"value","trial_type","trial_index","time_elapsed","internal_node_id","id","width","height","webaudio","browser","browser_version","mobile","os","fullscreen","vsync_rate","webcam","microphone","view_history","rt","stimulus","trial_info","success","response","exp_parameters","inducer_run","diagnostic_run","cue_num","post_cue","inducer_trial","italic","forced_equal_run","correct_inducer_response_side","correct_diag_response_side","correct_response_key","correct_response","congruent","force_equal","correct_indu_response_side","accuracy","interactive"
"","call-function","0","3","0.0-0.0","8cau8syb","","","","","","","","","","","","","","","","","","","","","","","","","","","","","","","","","",""
"","browser-check","1","1013","0.0-1.0","8cau8syb","1015","586","true","chrome","122.0.0","false","Mac OS","true","60.05","true","true","","","","","","","","","","","","","","","","","","","","","","",""
"","instructions","2","40327","0.0-2.0","8cau8syb","","","","","","","","","","","","[{""page_index"":0,""viewing_time"":20681},{""page_index"":1,""viewing_time"":16130},{""page_index"":2,""viewing_time"":2502}]","39313","The experiment and consent","The experiment and consent","","","","","","","","","","","","","","","","","","",""
"","fullscreen","3","45449","0.0-3.0","8cau8syb","","","","","","","","","","","","","4118","","Full screen","true","","","","","","","","","","","","","","","","","",""
"","instructions","4","69484","0.0-4.0","8cau8syb","","","","","","","","","","","","[{""page_index"":0,""viewing_time"":11490},{""page_index"":1,""viewing_time"":12544}]","24034","Instructions","Basic overview explanation","","","","","","","","","","","","","","","","","","",""
"","html-keyboard-response","5","78712","0.0-5.0","8cau8syb","","","","","","","","","","","","","7724","If italic press LEFT | If upright press RIGHT","Diagnostic instructions",""," ","{""debug"":false,""skip_instructions"":false,""skip_practice"":false,""save_local_data"":false,""studu_name"":""exp2"",""default_background_colour"":""#cccccc"",""wrong_response_colour"":""#d22d2d"",""instruction_delay"":20000,""trial_duration"":2000,""short_fixation"":750,""long_fixation"":1500,""wrong_response_delay"":300,""too_slow_delay"":300,""instruction_font_size"":""24px"",""general_font_size"":""42px"",""fixation_size"":""48px"",""allowed_responses"":[""f"",""j""],""cue_min_length"":0,""cue_max_length"":4,""tot_post_cue_len"":72,""cue_colour"":""blue"",""cue_shape"":""Circle"",""cue_size"":70,""cue_duration"":1250,""avg_number_of_cues"":3,""inducer_colour"":""yellow"",""number_of_inducers"":24,""pre_cue_italic_forced_equal"":true,""post_cue_italic_forced_equal"":true,""prac_diagnostic_rounds"":16,""prac_inducer_rounds"":6,""prac_cue_rounds"":16,""prac_post_cue_num"":3}","","","","","","","","","","","","","","","",""
"","html-keyboard-response","6","79465","0.0-6.0","8cau8syb","1920","1200","","","","","","","","","","","null","+","Fixation - short","","null","","","","","","","","","","","","","","","","",""
"","html-keyboard-response","7","80348","0.0-7.0","8cau8syb","","","","","","","","","","","","","881","bms","Diagnostic practice","","j","","Diagnostic practice","0","-84","true","false","false","prac equal","LEFT","RIGHT","j","1","false","","","",""
"","html-keyboard-response","8","81101","0.0-10.0","8cau8syb","1920","1200","","","","","","","","","","","null","+","Fixation - short","","null","","","","","","","","","","","","","","","","",""
"","html-keyboard-response","9","81679","0.0-11.0","8cau8syb","","","","","","","","","","","","","576","bms","Diagnostic practice","","f","","Diagnostic practice","1","-84","true","false","true","prac equal","LEFT","LEFT","f","1","true","","","",""
"","html-keyboard-response","10","82431","0.0-14.0","8cau8syb","1920","1200","","","","","","","","","","","null","+","Fixation - short","","null","","","","","","","","","","","","","","","","",""
"","html-keyboard-response","11","83227","0.0-15.0","8cau8syb","","","","","","","","","","","","","796","bms","Diagnostic practice","","f","","Diagnostic practice","2","-84","true","false","true","prac equal","LEFT","LEFT","f","1","true","","","",""
"","html-keyboard-response","12","83980","0.0-18.0","8cau8syb","1920","1200","","","","","","","","","","","null","+","Fixation - short","","null","","","","","","","","","","","","","","","","",""
"","html-keyboard-response","13","84554","0.0-19.0","8cau8syb","","","","","","","","","","","","","574","bms","Diagnostic practice","","f","","Diagnostic practice","3","-84","true","false","true","prac equal","LEFT","LEFT","f","1","true","","","",""
"","html-keyboard-response","14","85307","0.0-22.0","8cau8syb","1920","1200","","","","","","","","","","","null","+","Fixation - short","","null","","","","","","","","","","","","","","","","",""
"","html-keyboard-response","15","85933","0.0-23.0","8cau8syb","","","","","","","","","","","","","625","ydi","Diagnostic practice","","f","","Diagnostic practice","4","-84","true","false","true","prac equal","RIGHT","LEFT","f","1","false","","","",""
"","html-keyboard-response","16","86686","0.0-26.0","8cau8syb","1920","1200","","","","","","","","","","","null","+","Fixation - short","","null","","","","","","","","","","","","","","","","",""
"","html-keyboard-response","17","87301","0.0-27.0","8cau8syb","","","","","","","","","","","","","614","ydi","Diagnostic practice","","j","","Diagnostic practice","5","-84","true","false","false","prac equal","RIGHT","RIGHT","j","1","true","","","",""
"","html-keyboard-response","18","88053","0.0-30.0","8cau8syb","1920","1200","","","","","","","","","","","null","+","Fixation - short","","null","","","","","","","","","","","","","","","","",""
"","html-keyboard-response","19","88584","0.0-31.0","8cau8syb","","","","","","","","","","","","","530","ydi","Diagnostic practice","","j","","Diagnostic practice","6","-84","true","false","false","prac equal","RIGHT","RIGHT","j","1","true","","","",""
"","html-keyboard-response","20","89336","0.0-34.0","8cau8syb","1920","1200","","","","","","","","","","","null","+","Fixation - short","","null","","","","","","","","","","","","","","","","",""
"","html-keyboard-response","21","90003","0.0-35.0","8cau8syb","","","","","","","","","","","","","666","bms","Diagnostic practice","","f","","Diagnostic practice","7","-84","true","false","true","prac equal","LEFT","LEFT","f","1","true","","","",""
"","html-keyboard-response","22","90755","0.0-38.0","8cau8syb","1920","1200","","","","","","","","","","","null","+","Fixation - short","","null","","","","","","","","","","","","","","","","",""
"","html-keyboard-response","23","91465","0.0-39.0","8cau8syb","","","","","","","","","","","","","710","bms","Diagnostic practice","","j","","Diagnostic practice","8","-84","true","false","false","prac equal","LEFT","RIGHT","j","1","false","","","",""
"","html-keyboard-response","24","92217","0.0-42.0","8cau8syb","1920","1200","","","","","","","","","","","null","+","Fixation - short","","null","","","","","","","","","","","","","","","","",""
"","html-keyboard-response","25","93020","0.0-43.0","8cau8syb","","","","","","","","","","","","","802","ydi","Diagnostic practice","","j","","Diagnostic practice","9","-84","true","false","false","prac equal","RIGHT","RIGHT","j","1","true","","","",""
"","html-keyboard-response","26","93777","0.0-46.0","8cau8syb","1920","1200","","","","","","","","","","","null","+","Fixation - short","","null","","","","","","","","","","","","","","","","",""
"","html-keyboard-response","27","94488","0.0-47.0","8cau8syb","","","","","","","","","","","","","710","bms","Diagnostic practice","","j","","Diagnostic practice","10","-84","true","false","false","prac equal","LEFT","RIGHT","j","1","false","","","",""
"","html-keyboard-response","28","95239","0.0-50.0","8cau8syb","1920","1200","","","","","","","","","","","null","+","Fixation - short","","null","","","","","","","","","","","","","","","","",""
"","html-keyboard-response","29","95681","0.0-51.0","8cau8syb","","","","","","","","","","","","","441","bms","Diagnostic practice","","j","","Diagnostic practice","11","-84","true","false","false","prac equal","LEFT","RIGHT","j","1","false","","","",""
"","html-keyboard-response","30","96433","0.0-54.0","8cau8syb","1920","1200","","","","","","","","","","","null","+","Fixation - short","","null","","","","","","","","","","","","","","","","",""
"","html-keyboard-response","31","96859","0.0-55.0","8cau8syb","","","","","","","","","","","","","425","ydi","Diagnostic practice","","f","","Diagnostic practice","12","-84","true","false","true","prac equal","RIGHT","LEFT","f","1","false","","","",""
"","html-keyboard-response","32","97611","0.0-58.0","8cau8syb","1920","1200","","","","","","","","","","","null","+","Fixation - short","","null","","","","","","","","","","","","","","","","",""
"","html-keyboard-response","33","98153","0.0-59.0","8cau8syb","","","","","","","","","","","","","541","bms","Diagnostic practice","","f","","Diagnostic practice","13","-84","true","false","true","prac equal","LEFT","LEFT","f","1","true","","","",""
"","html-keyboard-response","34","98906","0.0-62.0","8cau8syb","1920","1200","","","","","","","","","","","null","+","Fixation - short","","null","","","","","","","","","","","","","","","","",""
"","html-keyboard-response","35","99376","0.0-63.0","8cau8syb","","","","","","","","","","","","","469","bms","Diagnostic practice","","f","","Diagnostic practice","14","-84","true","false","true","prac equal","LEFT","LEFT","f","1","true","","","",""
"","html-keyboard-response","36","100128","0.0-66.0","8cau8syb","1920","1200","","","","","","","","","","","null","+","Fixation - short","","null","","","","","","","","","","","","","","","","",""
"","html-keyboard-response","37","100725","0.0-67.0","8cau8syb","","","","","","","","","","","","","596","bms","Diagnostic practice","","j","","Diagnostic practice","15","-84","true","false","false","prac equal","LEFT","RIGHT","j","1","false","","","",""
"","html-keyboard-response","38","101478","0.0-70.0","8cau8syb","1920","1200","","","","","","","","","","","null","+","Fixation - short","","null","","","","","","","","","","","","","","","","",""
"","instructions","39","111486","0.0-71.0","8cau8syb","","","","","","","","","","","","[{""page_index"":0,""viewing_time"":10006}]","10007","Instructions","Final experiment explanation","","","","","","","","","","","","","","","","","","",""
"","html-keyboard-response","40","121014","0.0-72.0","8cau8syb","","","","","","","","","","","","","8026","If glp press LEFT | If aor press RIGHT","Inducer practice",""," ","","Practice","","","","","","","","","","","","","","",""
"","html-keyboard-response","41","121767","0.0-73.0","8cau8syb","1920","1200","","","","","","","","","","","null","+","Fixation - short","","null","","","","","","","","","","","","","","","","",""
"","html-keyboard-response","42","122461","0.0-74.0","8cau8syb","","","","","","","","","","","","","693","aor","Inducer practice","","j","","Practice","","","","true","","","","","j","1","","true","RIGHT","",""
"","html-keyboard-response","43","123214","0.0-77.0","8cau8syb","1920","1200","","","","","","","","","","","null","+","Fixation - short","","null","","","","","","","","","","","","","","","","",""
"","html-keyboard-response","44","129182","0.0-78.0","8cau8syb","","","","","","","","","","","","","5967","If wab press LEFT | If drk press RIGHT","Inducer practice",""," ","","Practice","","","","","","","","","","","","","","",""
"","html-keyboard-response","45","129934","0.0-79.0","8cau8syb","1920","1200","","","","","","","","","","","null","+","Fixation - short","","null","","","","","","","","","","","","","","","","",""
"","html-keyboard-response","46","130416","0.0-80.0","8cau8syb","","","","","","","","","","","","","480","wab","Inducer practice","","f","","Practice","","","","true","","","","","f","1","","true","LEFT","",""
"","html-keyboard-response","47","131168","0.0-83.0","8cau8syb","1920","1200","","","","","","","","","","","null","+","Fixation - short","","null","","","","","","","","","","","","","","","","",""
"","html-keyboard-response","48","144560","0.0-84.0","8cau8syb","","","","","","","","","","","","","13391","If crf press LEFT | If anz press RIGHT","Inducer practice",""," ","","Practice","","","","","","","","","","","","","","",""
"","html-keyboard-response","49","145313","0.0-85.0","8cau8syb","1920","1200","","","","","","","","","","","null","+","Fixation - short","","null","","","","","","","","","","","","","","","","",""
"","html-keyboard-response","50","147235","0.0-86.0","8cau8syb","","","","","","","","","","","","","1922","anz","Inducer practice","","j","","Practice","","","","true","","","","","j","1","","true","RIGHT","",""
"","html-keyboard-response","51","147988","0.0-89.0","8cau8syb","1920","1200","","","","","","","","","","","null","+","Fixation - short","","null","","","","","","","","","","","","","","","","",""
"","html-keyboard-response","52","154300","0.0-90.0","8cau8syb","","","","","","","","","","","","","6312","If cpt press LEFT | If pbz press RIGHT","Inducer practice",""," ","","Practice","","","","","","","","","","","","","","",""
"","html-keyboard-response","53","155053","0.0-91.0","8cau8syb","1920","1200","","","","","","","","","","","null","+","Fixation - short","","null","","","","","","","","","","","","","","","","",""
"","html-keyboard-response","54","155718","0.0-92.0","8cau8syb","","","","","","","","","","","","","663","pbz","Inducer practice","","j","","Practice","","","","true","","","","","j","1","","true","RIGHT","",""
"","html-keyboard-response","55","156470","0.0-95.0","8cau8syb","1920","1200","","","","","","","","","","","null","+","Fixation - short","","null","","","","","","","","","","","","","","","","",""
"","html-keyboard-response","56","162007","0.0-96.0","8cau8syb","","","","","","","","","","","","","5536","If ttm press LEFT | If chy press RIGHT","Inducer practice",""," ","","Practice","","","","","","","","","","","","","","",""
"","html-keyboard-response","57","162759","0.0-97.0","8cau8syb","1920","1200","","","","","","","","","","","null","+","Fixation - short","","null","","","","","","","","","","","","","","","","",""
"","html-keyboard-response","58","163468","0.0-98.0","8cau8syb","","","","","","","","","","","","","708","ttm","Inducer practice","","f","","Practice","","","","true","","","","","f","1","","true","LEFT","",""
"","html-keyboard-response","59","164220","0.0-101.0","8cau8syb","1920","1200","","","","","","","","","","","null","+","Fixation - short","","null","","","","","","","","","","","","","","","","",""
"","html-keyboard-response","60","169532","0.0-102.0","8cau8syb","","","","","","","","","","","","","5311","If cui press LEFT | If ofa press RIGHT","Inducer practice",""," ","","Practice","","","","","","","","","","","","","","",""
"","html-keyboard-response","61","170284","0.0-103.0","8cau8syb","1920","1200","","","","","","","","","","","null","+","Fixation - short","","null","","","","","","","","","","","","","","","","",""
"","html-keyboard-response","62","171131","0.0-104.0","8cau8syb","","","","","","","","","","","","","846","cui","Inducer practice","","f","","Practice","","","","true","","","","","f","1","","true","LEFT","",""
"","html-keyboard-response","63","171883","0.0-107.0","8cau8syb","1920","1200","","","","","","","","","","","null","+","Fixation - short","","null","","","","","","","","","","","","","","","","",""
"","instructions","64","192471","0.0-108.0","8cau8syb","","","","","","","","","","","","[{""page_index"":0,""viewing_time"":20587}]","20587","Instructions","Final experiment explanation","","","","","","","","","","","","","","","","","","",""
"","html-keyboard-response","65","201331","0.0-109.0","8cau8syb","","","","","","","","","","","","","7356","If mvv press LEFT | If amb press RIGHT","Cue practice",""," ","","Practice","","","","","","","","","","","","","","",""
"","html-keyboard-response","66","202083","0.0-110.0","8cau8syb","1920","1200","","","","","","","","","","","null","+","Fixation - short","","null","","","","","","","","","","","","","","","","",""
"","html-keyboard-response","67","204385","0.0-111.0","8cau8syb","","","","","","","","","","","","","2300","amb","Cue practice","","f","","Practice","0","13","false","false","true","both pre & post","RIGHT","LEFT","f","1","false","","","",""
"","html-keyboard-response","68","205137","0.0-114.0","8cau8syb","1920","1200","","","","","","","","","","","null","+","Fixation - short","","null","","","","","","","","","","","","","","","","",""
"","html-keyboard-response","69","206920","0.0-115.0","8cau8syb","","","","","","","","","","","","","1782","amb","Cue practice","","f","","Practice","1","13","false","false","true","both pre & post","RIGHT","LEFT","f","1","false","","","",""
"","html-keyboard-response","70","207673","0.0-118.0","8cau8syb","1920","1200","","","","","","","","","","","null","+","Fixation - short","","null","","","","","","","","","","","","","","","","",""
"","html-keyboard-response","71","208882","0.0-119.0","8cau8syb","","","","","","","","","","","","","1208","mvv","Cue practice","","f","","Practice","2","13","false","false","true","both pre & post","LEFT","LEFT","f","1","true","","","",""
"","html-keyboard-response","72","209635","0.0-122.0","8cau8syb","1920","1200","","","","","","","","","","","null","+","Fixation - short","","null","","","","","","","","","","","","","","","","",""
"","html-keyboard-response","73","210615","0.0-123.0","8cau8syb","","","","","","","","","","","","","979","mvv","Cue practice","","f","","Practice","3","13","false","false","true","both pre & post","LEFT","LEFT","f","1","true","","","",""
"","html-keyboard-response","74","211367","0.0-126.0","8cau8syb","1920","1200","","","","","","","","","","","null","+","Fixation - short","","null","","","","","","","","","","","","","","","","",""
"","html-keyboard-response","75","212257","0.0-127.0","8cau8syb","","","","","","","","","","","","","889","amb","Cue practice","","j","","Practice","4","13","false","false","false","both pre & post","RIGHT","RIGHT","j","1","true","","","",""
"","html-keyboard-response","76","213009","0.0-130.0","8cau8syb","1920","1200","","","","","","","","","","","null","+","Fixation - short","","null","","","","","","","","","","","","","","","","",""
"","html-keyboard-response","77","213815","0.0-131.0","8cau8syb","","","","","","","","","","","","","805","mvv","Cue practice","","j","","Practice","5","13","false","false","false","both pre & post","LEFT","RIGHT","j","1","false","","","",""
"","html-keyboard-response","78","214568","0.0-134.0","8cau8syb","1920","1200","","","","","","","","","","","null","+","Fixation - short","","null","","","","","","","","","","","","","","","","",""
"","html-keyboard-response","79","215260","0.0-135.0","8cau8syb","","","","","","","","","","","","","691","mvv","Cue practice","","f","","Practice","6","13","false","false","true","both pre & post","LEFT","LEFT","f","1","true","","","",""
"","html-keyboard-response","80","216012","0.0-138.0","8cau8syb","1920","1200","","","","","","","","","","","null","+","Fixation - short","","null","","","","","","","","","","","","","","","","",""
"","html-keyboard-response","81","217525","0.0-139.0","8cau8syb","","","","","","","","","","","","","1512","mvv","Cue practice","","j","","Practice","7","13","false","false","false","both pre & post","LEFT","RIGHT","j","1","false","","","",""
"","html-keyboard-response","82","218278","0.0-142.0","8cau8syb","1920","1200","","","","","","","","","","","null","+","Fixation - short","","null","","","","","","","","","","","","","","","","",""
"","html-keyboard-response","83","218858","0.0-143.0","8cau8syb","","","","","","","","","","","","","579","mvv","Cue practice","","j","","Practice","8","13","false","false","false","both pre & post","LEFT","RIGHT","j","1","false","","","",""
"","html-keyboard-response","84","219610","0.0-146.0","8cau8syb","1920","1200","","","","","","","","","","","null","+","Fixation - short","","null","","","","","","","","","","","","","","","","",""
"","html-keyboard-response","85","220226","0.0-147.0","8cau8syb","","","","","","","","","","","","","615","amb","Cue practice","","j","","Practice","9","13","false","false","false","both pre & post","RIGHT","RIGHT","j","1","true","","","",""
"","html-keyboard-response","86","220979","0.0-150.0","8cau8syb","1920","1200","","","","","","","","","","","null","+","Fixation - short","","null","","","","","","","","","","","","","","","","",""
"","html-keyboard-response","87","221663","0.0-151.0","8cau8syb","","","","","","","","","","","","","684","mvv","Cue practice","","j","","Practice","10","13","false","false","false","both pre & post","LEFT","RIGHT","j","1","false","","","",""
"","html-keyboard-response","88","222416","0.0-154.0","8cau8syb","1920","1200","","","","","","","","","","","null","+","Fixation - short","","null","","","","","","","","","","","","","","","","",""
"","html-keyboard-response","89","223184","0.0-155.0","8cau8syb","","","","","","","","","","","","","767","mvv","Cue practice","","f","","Practice","11","13","false","false","true","both pre & post","LEFT","LEFT","f","1","true","","","",""
"","html-keyboard-response","90","223937","0.0-158.0","8cau8syb","1920","1200","","","","","","","","","","","null","+","Fixation - short","","null","","","","","","","","","","","","","","","","",""
"","html-keyboard-response","91","224465","0.0-159.0","8cau8syb","","","","","","","","","","","","","528","mvv","Cue practice","","f","","Practice","12","13","false","false","true","both pre & post","LEFT","LEFT","f","1","true","","","",""
"","html-keyboard-response","92","225218","0.0-162.0","8cau8syb","1920","1200","","","","","","","","","","","null","+","Fixation - short","","null","","","","","","","","","","","","","","","","",""
"","canvas-keyboard-response","93","226482","0.0-163.0","8cau8syb","","","","","","","","","","","","","null","Cue","Cue","","null","","Practice","12","","","false","","","","","","","","","","",""
"","html-keyboard-response","94","227233","0.0-164.0","8cau8syb","1920","1200","","","","","","","","","","","null","+","Fixation - short","","null","","","","","","","","","","","","","","","","",""
"","html-keyboard-response","95","230856","0.0-165.0","8cau8syb","","","","","","","","","","","","","3622","mvv","Cue practice","","f","","Practice","13","13","true","false","true","both pre & post","LEFT","LEFT","f","1","true","","","",""
"","html-keyboard-response","96","231609","0.0-168.0","8cau8syb","1920","1200","","","","","","","","","","","null","+","Fixation - short","","null","","","","","","","","","","","","","","","","",""
"","html-keyboard-response","97","232587","0.0-169.0","8cau8syb","","","","","","","","","","","","","978","amb","Cue practice","","j","","Practice","14","13","true","false","false","both pre & post","RIGHT","RIGHT","j","1","true","","","",""
"","html-keyboard-response","98","233340","0.0-172.0","8cau8syb","1920","1200","","","","","","","","","","","null","+","Fixation - short","","null","","","","","","","","","","","","","","","","",""
"","html-keyboard-response","99","234571","0.0-173.0","8cau8syb","","","","","","","","","","","","","1231","mvv","Cue practice","","f","","Practice","15","13","true","false","true","both pre & post","LEFT","LEFT","f","1","true","","","",""
"","html-keyboard-response","100","235324","0.0-176.0","8cau8syb","1920","1200","","","","","","","","","","","null","+","Fixation - short","","null","","","","","","","","","","","","","","","","",""
"","html-keyboard-response","101","236444","0.0-177.0","8cau8syb","","","","","","","","","","","","","1119","mvv","Inducer practice","","f","","Practice","","","","true","","","","","f","1","","false","LEFT","",""
"","html-keyboard-response","102","237197","0.0-180.0","8cau8syb","1920","1200","","","","","","","","","","","null","+","Fixation - short","","null","","","","","","","","","","","","","","","","",""
"","instructions","103","243546","0.0-181.0","8cau8syb","","","","","","","","","","","","[{""page_index"":0,""viewing_time"":6348}]","6349","End practice","End of practice","","","","","","","","","","","","","","","","","","",""
"","html-keyboard-response","104","246551","0.0-182.0","8cau8syb","1920","1200","","","","","","","","","","","null","+","Fixation - long","","null","","","","","","","","","","","","","","","","",""
"","html-keyboard-response","105","252770","0.0-183.0","8cau8syb","","","","","","","","","","","","","6218","If zpl press LEFT | If cnl press RIGHT","Inducer instructions",""," ","","0","","","","","","","","","","","","","","",""
"","html-keyboard-response","106","253522","0.0-184.0","8cau8syb","1920","1200","","","","","","","","","","","null","+","Fixation - short","","null","","","","","","","","","","","","","","","","",""
"","html-keyboard-response","107","255080","0.0-185.0","8cau8syb","","","","","","","","","","","","","1557","cnl","Diagnostic trial","","f","","0","0","6","false","false","true","both pre & post","RIGHT","LEFT","f","1","false","","","",""
"","html-keyboard-response","108","255832","0.0-188.0","8cau8syb","1920","1200","","","","","","","","","","","null","+","Fixation - short","","null","","","","","","","","","","","","","","","","",""
"","html-keyboard-response","109","257132","0.0-189.0","8cau8syb","","","","","","","","","","","","","1299","zpl","Diagnostic trial","","f","","0","1","6","false","false","true","both pre & post","LEFT","LEFT","f","1","true","","","",""
"","html-keyboard-response","110","257884","0.0-192.0","8cau8syb","1920","1200","","","","","","","","","","","null","+","Fixation - short","","null","","","","","","","","","","","","","","","","",""
"","html-keyboard-response","111","258618","0.0-193.0","8cau8syb","","","","","","","","","","","","","733","zpl","Diagnostic trial","","f","","0","2","6","false","false","true","both pre & post","LEFT","LEFT","f","1","true","","","",""
"","html-keyboard-response","112","259371","0.0-196.0","8cau8syb","1920","1200","","","","","","","","","","","null","+","Fixation - short","","null","","","","","","","","","","","","","","","","",""
"","html-keyboard-response","113","259837","0.0-197.0","8cau8syb","","","","","","","","","","","","","465","cnl","Diagnostic trial","","f","","0","3","6","false","false","true","both pre & post","RIGHT","LEFT","f","1","false","","","",""
"","html-keyboard-response","114","260590","0.0-200.0","8cau8syb","1920","1200","","","","","","","","","","","null","+","Fixation - short","","null","","","","","","","","","","","","","","","","",""
"","html-keyboard-response","115","261573","0.0-201.0","8cau8syb","","","","","","","","","","","","","982","cnl","Diagnostic trial","","j","","0","4","6","false","false","false","both pre & post","RIGHT","RIGHT","j","1","true","","","",""
"","html-keyboard-response","116","262325","0.0-204.0","8cau8syb","1920","1200","","","","","","","","","","","null","+","Fixation - short","","null","","","","","","","","","","","","","","","","",""
"","html-keyboard-response","117","262724","0.0-205.0","8cau8syb","","","","","","","","","","","","","398","zpl","Diagnostic trial","","j","","0","5","6","false","false","false","both pre & post","LEFT","RIGHT","j","1","false","","","",""
"","html-keyboard-response","118","263477","0.0-208.0","8cau8syb","1920","1200","","","","","","","","","","","null","+","Fixation - short","","null","","","","","","","","","","","","","","","","",""
"","canvas-keyboard-response","119","264729","0.0-209.0","8cau8syb","","","","","","","","","","","","","null","Cue","Cue","","null","","0","5","","","false","","","","","","","","","","",""
"","html-keyboard-response","120","265481","0.0-210.0","8cau8syb","1920","1200","","","","","","","","","","","null","+","Fixation - short","","null","","","","","","","","","","","","","","","","",""
"","html-keyboard-response","121","266405","0.0-211.0","8cau8syb","","","","","","","","","","","","","923","cnl","Diagnostic trial","","j","","0","6","6","true","false","false","both pre & post","RIGHT","RIGHT","j","1","true","","","",""
"","html-keyboard-response","122","267158","0.0-214.0","8cau8syb","1920","1200","","","","","","","","","","","null","+","Fixation - short","","null","","","","","","","","","","","","","","","","",""
"","html-keyboard-response","123","267858","0.0-215.0","8cau8syb","","","","","","","","","","","","","700","zpl","Diagnostic trial","","j","","0","7","6","true","false","false","both pre & post","LEFT","RIGHT","j","1","false","","","",""
"","html-keyboard-response","124","268611","0.0-218.0","8cau8syb","1920","1200","","","","","","","","","","","null","+","Fixation - short","","null","","","","","","","","","","","","","","","","",""
"","html-keyboard-response","125","269205","0.0-219.0","8cau8syb","","","","","","","","","","","","","593","zpl","Diagnostic trial","","f","","0","8","6","true","false","true","both pre & post","LEFT","LEFT","f","1","true","","","",""
"","html-keyboard-response","126","269958","0.0-222.0","8cau8syb","1920","1200","","","","","","","","","","","null","+","Fixation - short","","null","","","","","","","","","","","","","","","","",""
"","html-keyboard-response","127","270465","0.0-223.0","8cau8syb","","","","","","","","","","","","","506","zpl","Inducer trial","","f","","0","","","","true","","","","","f","1","","false","LEFT","",""
"","html-keyboard-response","128","271217","0.0-226.0","8cau8syb","1920","1200","","","","","","","","","","","null","+","Fixation - short","","null","","","","","","","","","","","","","","","","",""
"","html-keyboard-response","129","275046","0.0-227.0","8cau8syb","","","","","","","","","","","","","3828","If hlb press LEFT | If otr press RIGHT","Inducer instructions",""," ","","1","","","","","","","","","","","","","","",""
"","html-keyboard-response","130","275798","0.0-228.0","8cau8syb","1920","1200","","","","","","","","","","","null","+","Fixation - short","","null","","","","","","","","","","","","","","","","",""
"","html-keyboard-response","131","276891","0.0-229.0","8cau8syb","","","","","","","","","","","","","1092","hlb","Diagnostic trial","","j","","1","0","6","false","false","false","both pre & post","LEFT","RIGHT","j","1","false","","","",""
"","html-keyboard-response","132","277644","0.0-232.0","8cau8syb","1920","1200","","","","","","","","","","","null","+","Fixation - short","","null","","","","","","","","","","","","","","","","",""
"","html-keyboard-response","133","278198","0.0-233.0","8cau8syb","","","","","","","","","","","","","554","otr","Diagnostic trial","","j","","1","1","6","false","false","false","both pre & post","RIGHT","RIGHT","j","1","true","","","",""
"","html-keyboard-response","134","278950","0.0-236.0","8cau8syb","1920","1200","","","","","","","","","","","null","+","Fixation - short","","null","","","","","","","","","","","","","","","","",""
"","html-keyboard-response","135","279454","0.0-237.0","8cau8syb","","","","","","","","","","","","","503","otr","Diagnostic trial","","j","","1","2","6","false","false","false","both pre & post","RIGHT","RIGHT","j","1","true","","","",""
"","html-keyboard-response","136","280206","0.0-240.0","8cau8syb","1920","1200","","","","","","","","","","","null","+","Fixation - short","","null","","","","","","","","","","","","","","","","",""
"","html-keyboard-response","137","280677","0.0-241.0","8cau8syb","","","","","","","","","","","","","470","otr","Diagnostic trial","","j","","1","3","6","false","false","false","both pre & post","RIGHT","RIGHT","j","1","true","","","",""
"","html-keyboard-response","138","281429","0.0-244.0","8cau8syb","1920","1200","","","","","","","","","","","null","+","Fixation - short","","null","","","","","","","","","","","","","","","","",""
"","html-keyboard-response","139","281887","0.0-245.0","8cau8syb","","","","","","","","","","","","","457","hlb","Diagnostic trial","","f","","1","4","6","false","false","true","both pre & post","LEFT","LEFT","f","1","true","","","",""
"","html-keyboard-response","140","282638","0.0-248.0","8cau8syb","1920","1200","","","","","","","","","","","null","+","Fixation - short","","null","","","","","","","","","","","","","","","","",""
"","html-keyboard-response","141","283221","0.0-249.0","8cau8syb","","","","","","","","","","","","","582","otr","Diagnostic trial","","f","","1","5","6","false","false","true","both pre & post","RIGHT","LEFT","f","1","false","","","",""
"","html-keyboard-response","142","283973","0.0-252.0","8cau8syb","1920","1200","","","","","","","","","","","null","+","Fixation - short","","null","","","","","","","","","","","","","","","","",""
"","canvas-keyboard-response","143","285225","0.0-253.0","8cau8syb","","","","","","","","","","","","","null","Cue","Cue","","null","","1","5","","","false","","","","","","","","","","",""
"","html-keyboard-response","144","285977","0.0-254.0","8cau8syb","1920","1200","","","","","","","","","","","null","+","Fixation - short","","null","","","","","","","","","","","","","","","","",""
"","html-keyboard-response","145","286588","0.0-255.0","8cau8syb","","","","","","","","","","","","","609","otr","Diagnostic trial","","j","","1","6","6","true","false","false","both pre & post","RIGHT","RIGHT","j","1","true","","","",""
"","html-keyboard-response","146","287339","0.0-258.0","8cau8syb","1920","1200","","","","","","","","","","","null","+","Fixation - short","","null","","","","","","","","","","","","","","","","",""
"","html-keyboard-response","147","287764","0.0-259.0","8cau8syb","","","","","","","","","","","","","424","hlb","Diagnostic trial","","j","","1","7","6","true","false","false","both pre & post","LEFT","RIGHT","j","1","false","","","",""
"","html-keyboard-response","148","288516","0.0-262.0","8cau8syb","1920","1200","","","","","","","","","","","null","+","Fixation - short","","null","","","","","","","","","","","","","","","","",""
"","html-keyboard-response","149","288915","0.0-263.0","8cau8syb","","","","","","","","","","","","","398","otr","Diagnostic trial","","j","","1","8","6","true","false","false","both pre & post","RIGHT","RIGHT","j","1","true","","","",""
"","html-keyboard-response","150","289668","0.0-266.0","8cau8syb","1920","1200","","","","","","","","","","","null","+","Fixation - short","","null","","","","","","","","","","","","","","","","",""
"","html-keyboard-response","151","290030","0.0-267.0","8cau8syb","","","","","","","","","","","","","362","otr","Diagnostic trial","","j","","1","9","6","true","false","true","both pre & post","RIGHT","LEFT","f","0","false","","","",""
"","call-function","152","290031","0.0-269.0-0.0","8cau8syb","","","","","","","","","","","","","","","","","","","","","","","","","","","","","","","","","",""
"","html-keyboard-response","153","290334","0.0-269.0-1.0","8cau8syb","1920","1200","","","","","","","","","","","null","Wrong","Feedback","","null","","","","","","","","","","","","","","","","",""
"","call-function","154","290334","0.0-269.0-2.0","8cau8syb","","","","","","","","","","","","","","","","","","","","","","","","","","","","","","","","","",""
"","html-keyboard-response","155","291086","0.0-270.0","8cau8syb","1920","1200","","","","","","","","","","","null","+","Fixation - short","","null","","","","","","","","","","","","","","","","",""
"","html-keyboard-response","156","291859","0.0-271.0","8cau8syb","","","","","","","","","","","","","772","hlb","Inducer trial","","f","","1","","","","true","","","","","f","1","","false","LEFT","",""
"","html-keyboard-response","157","292612","0.0-274.0","8cau8syb","1920","1200","","","","","","","","","","","null","+","Fixation - short","","null","","","","","","","","","","","","","","","","",""
"","html-keyboard-response","158","294977","0.0-275.0","8cau8syb","","","","","","","","","","","","","2365","If snx press LEFT | If fja press RIGHT","Inducer instructions",""," ","","2","","","","","","","","","","","","","","",""
"","html-keyboard-response","159","295729","0.0-276.0","8cau8syb","1920","1200","","","","","","","","","","","null","+","Fixation - short","","null","","","","","","","","","","","","","","","","",""
"","html-keyboard-response","160","297079","0.0-277.0","8cau8syb","","","","","","","","","","","","","1349","fja","Diagnostic trial","","f","","2","0","5","false","false","true","both pre & post","RIGHT","LEFT","f","1","false","","","",""
"","html-keyboard-response","161","297832","0.0-280.0","8cau8syb","1920","1200","","","","","","","","","","","null","+","Fixation - short","","null","","","","","","","","","","","","","","","","",""
"","html-keyboard-response","162","298504","0.0-281.0","8cau8syb","","","","","","","","","","","","","671","snx","Diagnostic trial","","f","","2","1","5","false","false","true","both pre & post","LEFT","LEFT","f","1","true","","","",""
"","html-keyboard-response","163","299257","0.0-284.0","8cau8syb","1920","1200","","","","","","","","","","","null","+","Fixation - short","","null","","","","","","","","","","","","","","","","",""
"","html-keyboard-response","164","299671","0.0-285.0","8cau8syb","","","","","","","","","","","","","413","snx","Diagnostic trial","","f","","2","2","5","false","false","true","both pre & post","LEFT","LEFT","f","1","true","","","",""
"","html-keyboard-response","165","300423","0.0-288.0","8cau8syb","1920","1200","","","","","","","","","","","null","+","Fixation - short","","null","","","","","","","","","","","","","","","","",""
"","html-keyboard-response","166","301004","0.0-289.0","8cau8syb","","","","","","","","","","","","","580","snx","Diagnostic trial","","j","","2","3","5","false","false","false","both pre & post","LEFT","RIGHT","j","1","false","","","",""
"","html-keyboard-response","167","301757","0.0-292.0","8cau8syb","1920","1200","","","","","","","","","","","null","+","Fixation - short","","null","","","","","","","","","","","","","","","","",""
"","html-keyboard-response","168","302191","0.0-293.0","8cau8syb","","","","","","","","","","","","","434","snx","Diagnostic trial","","j","","2","4","5","false","false","false","both pre & post","LEFT","RIGHT","j","1","false","","","",""
"","html-keyboard-response","169","302943","0.0-296.0","8cau8syb","1920","1200","","","","","","","","","","","null","+","Fixation - short","","null","","","","","","","","","","","","","","","","",""
"","canvas-keyboard-response","170","304196","0.0-297.0","8cau8syb","","","","","","","","","","","","","null","Cue","Cue","","null","","2","4","","","false","","","","","","","","","","",""
"","html-keyboard-response","171","304948","0.0-298.0","8cau8syb","1920","1200","","","","","","","","","","","null","+","Fixation - short","","null","","","","","","","","","","","","","","","","",""
"","html-keyboard-response","172","305571","0.0-299.0","8cau8syb","","","","","","","","","","","","","622","fja","Diagnostic trial","","f","","2","5","5","true","false","true","both pre & post","RIGHT","LEFT","f","1","false","","","",""
"","html-keyboard-response","173","306322","0.0-302.0","8cau8syb","1920","1200","","","","","","","","","","","null","+","Fixation - short","","null","","","","","","","","","","","","","","","","",""
"","html-keyboard-response","174","307068","0.0-303.0","8cau8syb","","","","","","","","","","","","","745","fja","Diagnostic trial","","j","","2","6","5","true","false","false","both pre & post","RIGHT","RIGHT","j","1","true","","","",""
"","html-keyboard-response","175","307820","0.0-306.0","8cau8syb","1920","1200","","","","","","","","","","","null","+","Fixation - short","","null","","","","","","","","","","","","","","","","",""
"","html-keyboard-response","176","308582","0.0-307.0","8cau8syb","","","","","","","","","","","","","762","fja","Inducer trial","","f","","2","","","","true","","","","","j","0","","false","RIGHT","",""
"","call-function","177","308583","0.0-309.0-0.0","8cau8syb","","","","","","","","","","","","","","","","","","","","","","","","","","","","","","","","","",""
"","html-keyboard-response","178","308885","0.0-309.0-1.0","8cau8syb","1920","1200","","","","","","","","","","","null","Wrong","Feedback","","null","","","","","","","","","","","","","","","","",""
"","call-function","179","308885","0.0-309.0-2.0","8cau8syb","","","","","","","","","","","","","","","","","","","","","","","","","","","","","","","","","",""
"","html-keyboard-response","180","309636","0.0-310.0","8cau8syb","1920","1200","","","","","","","","","","","null","+","Fixation - short","","null","","","","","","","","","","","","","","","","",""
"","html-keyboard-response","181","311237","0.0-311.0","8cau8syb","","","","","","","","","","","","","1600","If dij press LEFT | If imm press RIGHT","Inducer instructions",""," ","","3","","","","","","","","","","","","","","",""
"","html-keyboard-response","182","311990","0.0-312.0","8cau8syb","1920","1200","","","","","","","","","","","null","+","Fixation - short","","null","","","","","","","","","","","","","","","","",""
"","html-keyboard-response","183","313081","0.0-313.0","8cau8syb","","","","","","","","","","","","","1091","imm","Diagnostic trial","","f","","3","0","5","false","false","true","both pre & post","RIGHT","LEFT","f","1","false","","","",""
"","html-keyboard-response","184","313833","0.0-316.0","8cau8syb","1920","1200","","","","","","","","","","","null","+","Fixation - short","","null","","","","","","","","","","","","","","","","",""
"","html-keyboard-response","185","314488","0.0-317.0","8cau8syb","","","","","","","","","","","","","654","imm","Diagnostic trial","","j","","3","1","5","false","false","false","both pre & post","RIGHT","RIGHT","j","1","true","","","",""
"","html-keyboard-response","186","315241","0.0-320.0","8cau8syb","1920","1200","","","","","","","","","","","null","+","Fixation - short","","null","","","","","","","","","","","","","","","","",""
"","html-keyboard-response","187","316314","0.0-321.0","8cau8syb","","","","","","","","","","","","","1073","dij","Diagnostic trial","","j","","3","2","5","false","false","true","both pre & post","LEFT","LEFT","f","0","true","","","",""
"","call-function","188","316315","0.0-323.0-0.0","8cau8syb","","","","","","","","","","","","","","","","","","","","","","","","","","","","","","","","","",""
"","html-keyboard-response","189","316618","0.0-323.0-1.0","8cau8syb","1920","1200","","","","","","","","","","","null","Wrong","Feedback","","null","","","","","","","","","","","","","","","","",""
"","call-function","190","316618","0.0-323.0-2.0","8cau8syb","","","","","","","","","","","","","","","","","","","","","","","","","","","","","","","","","",""
"","html-keyboard-response","191","317370","0.0-324.0","8cau8syb","1920","1200","","","","","","","","","","","null","+","Fixation - short","","null","","","","","","","","","","","","","","","","",""
"","html-keyboard-response","192","318049","0.0-325.0","8cau8syb","","","","","","","","","","","","","678","dij","Diagnostic trial","","f","","3","3","5","false","false","true","both pre & post","LEFT","LEFT","f","1","true","","","",""
"","html-keyboard-response","193","318802","0.0-328.0","8cau8syb","1920","1200","","","","","","","","","","","null","+","Fixation - short","","null","","","","","","","","","","","","","","","","",""
"","html-keyboard-response","194","319607","0.0-329.0","8cau8syb","","","","","","","","","","","","","804","imm","Diagnostic trial","","j","","3","4","5","false","false","false","both pre & post","RIGHT","RIGHT","j","1","true","","","",""
"","html-keyboard-response","195","320359","0.0-332.0","8cau8syb","1920","1200","","","","","","","","","","","null","+","Fixation - short","","null","","","","","","","","","","","","","","","","",""
"","canvas-keyboard-response","196","321611","0.0-333.0","8cau8syb","","","","","","","","","","","","","null","Cue","Cue","","null","","3","4","","","false","","","","","","","","","","",""
"","html-keyboard-response","197","322364","0.0-334.0","8cau8syb","1920","1200","","","","","","","","","","","null","+","Fixation - short","","null","","","","","","","","","","","","","","","","",""
"","html-keyboard-response","198","323081","0.0-335.0","8cau8syb","","","","","","","","","","","","","716","imm","Diagnostic trial","","f","","3","5","5","true","false","true","both pre & post","RIGHT","LEFT","f","1","false","","","",""
"","html-keyboard-response","199","323833","0.0-338.0","8cau8syb","1920","1200","","","","","","","","","","","null","+","Fixation - short","","null","","","","","","","","","","","","","","","","",""
"","html-keyboard-response","200","324404","0.0-339.0","8cau8syb","","","","","","","","","","","","","571","imm","Diagnostic trial","","j","","3","6","5","true","false","false","both pre & post","RIGHT","RIGHT","j","1","true","","","",""
"","html-keyboard-response","201","325156","0.0-342.0","8cau8syb","1920","1200","","","","","","","","","","","null","+","Fixation - short","","null","","","","","","","","","","","","","","","","",""
"","html-keyboard-response","202","326168","0.0-343.0","8cau8syb","","","","","","","","","","","","","1010","dij","Diagnostic trial","","f","","3","7","5","true","false","true","both pre & post","LEFT","LEFT","f","1","true","","","",""
"","html-keyboard-response","203","326920","0.0-346.0","8cau8syb","1920","1200","","","","","","","","","","","null","+","Fixation - short","","null","","","","","","","","","","","","","","","","",""
"","html-keyboard-response","204","327572","0.0-347.0","8cau8syb","","","","","","","","","","","","","651","imm","Diagnostic trial","","j","","3","8","5","true","false","false","both pre & post","RIGHT","RIGHT","j","1","true","","","",""
"","html-keyboard-response","205","328324","0.0-350.0","8cau8syb","1920","1200","","","","","","","","","","","null","+","Fixation - short","","null","","","","","","","","","","","","","","","","",""
"","html-keyboard-response","206","329466","0.0-351.0","8cau8syb","","","","","","","","","","","","","1141","imm","Inducer trial","","j","","3","","","","true","","","","","j","1","","false","RIGHT","",""
"","html-keyboard-response","207","330218","0.0-354.0","8cau8syb","1920","1200","","","","","","","","","","","null","+","Fixation - short","","null","","","","","","","","","","","","","","","","",""
"","html-keyboard-response","208","334301","0.0-355.0","8cau8syb","","","","","","","","","","","","","4082","If xet press LEFT | If hrc press RIGHT","Inducer instructions",""," ","","4","","","","","","","","","","","","","","",""
"","html-keyboard-response","209","335052","0.0-356.0","8cau8syb","1920","1200","","","","","","","","","","","null","+","Fixation - short","","null","","","","","","","","","","","","","","","","",""
"","html-keyboard-response","210","336015","0.0-357.0","8cau8syb","","","","","","","","","","","","","962","hrc","Diagnostic trial","","f","","4","0","10","false","false","true","both pre & post","RIGHT","LEFT","f","1","false","","","",""
"","html-keyboard-response","211","336768","0.0-360.0","8cau8syb","1920","1200","","","","","","","","","","","null","+","Fixation - short","","null","","","","","","","","","","","","","","","","",""
"","html-keyboard-response","212","337322","0.0-361.0","8cau8syb","","","","","","","","","","","","","553","hrc","Diagnostic trial","","f","","4","1","10","false","false","true","both pre & post","RIGHT","LEFT","f","1","false","","","",""
"","html-keyboard-response","213","338074","0.0-364.0","8cau8syb","1920","1200","","","","","","","","","","","null","+","Fixation - short","","null","","","","","","","","","","","","","","","","",""
"","html-keyboard-response","214","339357","0.0-365.0","8cau8syb","","","","","","","","","","","","","1282","xet","Diagnostic trial","","j","","4","2","10","false","false","false","both pre & post","LEFT","RIGHT","j","1","false","","","",""
"","html-keyboard-response","215","340110","0.0-368.0","8cau8syb","1920","1200","","","","","","","","","","","null","+","Fixation - short","","null","","","","","","","","","","","","","","","","",""
"","html-keyboard-response","216","340808","0.0-369.0","8cau8syb","","","","","","","","","","","","","697","hrc","Diagnostic trial","","j","","4","3","10","false","false","false","both pre & post","RIGHT","RIGHT","j","1","true","","","",""
"","html-keyboard-response","217","341560","0.0-372.0","8cau8syb","1920","1200","","","","","","","","","","","null","+","Fixation - short","","null","","","","","","","","","","","","","","","","",""
"","html-keyboard-response","218","342426","0.0-373.0","8cau8syb","","","","","","","","","","","","","865","xet","Diagnostic trial","","j","","4","4","10","false","false","false","both pre & post","LEFT","RIGHT","j","1","false","","","",""
"","html-keyboard-response","219","343178","0.0-376.0","8cau8syb","1920","1200","","","","","","","","","","","null","+","Fixation - short","","null","","","","","","","","","","","","","","","","",""
"","html-keyboard-response","220","343638","0.0-377.0","8cau8syb","","","","","","","","","","","","","459","xet","Diagnostic trial","","j","","4","5","10","false","false","false","both pre & post","LEFT","RIGHT","j","1","false","","","",""
"","html-keyboard-response","221","344391","0.0-380.0","8cau8syb","1920","1200","","","","","","","","","","","null","+","Fixation - short","","null","","","","","","","","","","","","","","","","",""
"","html-keyboard-response","222","345024","0.0-381.0","8cau8syb","","","","","","","","","","","","","632","xet","Diagnostic trial","","f","","4","6","10","false","false","true","both pre & post","LEFT","LEFT","f","1","true","","","",""
"","html-keyboard-response","223","345776","0.0-384.0","8cau8syb","1920","1200","","","","","","","","","","","null","+","Fixation - short","","null","","","","","","","","","","","","","","","","",""
"","html-keyboard-response","224","346451","0.0-385.0","8cau8syb","","","","","","","","","","","","","674","hrc","Diagnostic trial","","f","","4","7","10","false","false","true","both pre & post","RIGHT","LEFT","f","1","false","","","",""
"","html-keyboard-response","225","347203","0.0-388.0","8cau8syb","1920","1200","","","","","","","","","","","null","+","Fixation - short","","null","","","","","","","","","","","","","","","","",""
"","html-keyboard-response","226","347904","0.0-389.0","8cau8syb","","","","","","","","","","","","","700","hrc","Diagnostic trial","","f","","4","8","10","false","false","true","both pre & post","RIGHT","LEFT","f","1","false","","","",""
"","html-keyboard-response","227","348656","0.0-392.0","8cau8syb","1920","1200","","","","","","","","","","","null","+","Fixation - short","","null","","","","","","","","","","","","","","","","",""
"","html-keyboard-response","228","349692","0.0-393.0","8cau8syb","","","","","","","","","","","","","1035","xet","Diagnostic trial","","f","","4","9","10","false","false","true","both pre & post","LEFT","LEFT","f","1","true","","","",""
"","html-keyboard-response","229","350444","0.0-396.0","8cau8syb","1920","1200","","","","","","","","","","","null","+","Fixation - short","","null","","","","","","","","","","","","","","","","",""
"","canvas-keyboard-response","230","351697","0.0-397.0","8cau8syb","","","","","","","","","","","","","null","Cue","Cue","","null","","4","9","","","false","","","","","","","","","","",""
"","html-keyboard-response","231","352449","0.0-398.0","8cau8syb","1920","1200","","","","","","","","","","","null","+","Fixation - short","","null","","","","","","","","","","","","","","","","",""
"","html-keyboard-response","232","353139","0.0-399.0","8cau8syb","","","","","","","","","","","","","689","hrc","Diagnostic trial","","f","","4","10","10","true","false","true","both pre & post","RIGHT","LEFT","f","1","false","","","",""
"","html-keyboard-response","233","353891","0.0-402.0","8cau8syb","1920","1200","","","","","","","","","","","null","+","Fixation - short","","null","","","","","","","","","","","","","","","","",""
"","html-keyboard-response","234","354474","0.0-403.0","8cau8syb","","","","","","","","","","","","","582","xet","Diagnostic trial","","j","","4","11","10","true","false","false","both pre & post","LEFT","RIGHT","j","1","false","","","",""
"","html-keyboard-response","235","355226","0.0-406.0","8cau8syb","1920","1200","","","","","","","","","","","null","+","Fixation - short","","null","","","","","","","","","","","","","","","","",""
"","html-keyboard-response","236","355959","0.0-407.0","8cau8syb","","","","","","","","","","","","","732","hrc","Diagnostic trial","","f","","4","12","10","true","false","true","both pre & post","RIGHT","LEFT","f","1","false","","","",""
"","html-keyboard-response","237","356711","0.0-410.0","8cau8syb","1920","1200","","","","","","","","","","","null","+","Fixation - short","","null","","","","","","","","","","","","","","","","",""
"","html-keyboard-response","238","357491","0.0-411.0","8cau8syb","","","","","","","","","","","","","780","hrc","Inducer trial","","j","","4","","","","true","","","","","j","1","","false","RIGHT","",""
"","html-keyboard-response","239","358244","0.0-414.0","8cau8syb","1920","1200","","","","","","","","","","","null","+","Fixation - short","","null","","","","","","","","","","","","","","","","",""
"","html-keyboard-response","240","359519","0.0-415.0","8cau8syb","","","","","","","","","","","","","1275","If idy press LEFT | If pmf press RIGHT","Inducer instructions",""," ","","5","","","","","","","","","","","","","","",""
"","html-keyboard-response","241","360272","0.0-416.0","8cau8syb","1920","1200","","","","","","","","","","","null","+","Fixation - short","","null","","","","","","","","","","","","","","","","",""
"","html-keyboard-response","242","361106","0.0-417.0","8cau8syb","","","","","","","","","","","","","834","pmf","Diagnostic trial","","j","","5","0","6","false","false","false","both pre & post","RIGHT","RIGHT","j","1","true","","","",""
"","html-keyboard-response","243","361858","0.0-420.0","8cau8syb","1920","1200","","","","","","","","","","","null","+","Fixation - short","","null","","","","","","","","","","","","","","","","",""
"","html-keyboard-response","244","362557","0.0-421.0","8cau8syb","","","","","","","","","","","","","698","idy","Diagnostic trial","","f","","5","1","6","false","false","true","both pre & post","LEFT","LEFT","f","1","true","","","",""
"","html-keyboard-response","245","363310","0.0-424.0","8cau8syb","1920","1200","","","","","","","","","","","null","+","Fixation - short","","null","","","","","","","","","","","","","","","","",""
"","html-keyboard-response","246","364366","0.0-425.0","8cau8syb","","","","","","","","","","","","","1056","pmf","Diagnostic trial","","f","","5","2","6","false","false","true","both pre & post","RIGHT","LEFT","f","1","false","","","",""
"","html-keyboard-response","247","365118","0.0-428.0","8cau8syb","1920","1200","","","","","","","","","","","null","+","Fixation - short","","null","","","","","","","","","","","","","","","","",""
"","html-keyboard-response","248","365609","0.0-429.0","8cau8syb","","","","","","","","","","","","","490","idy","Diagnostic trial","","f","","5","3","6","false","false","true","both pre & post","LEFT","LEFT","f","1","true","","","",""
"","html-keyboard-response","249","366361","0.0-432.0","8cau8syb","1920","1200","","","","","","","","","","","null","+","Fixation - short","","null","","","","","","","","","","","","","","","","",""
"","html-keyboard-response","250","366931","0.0-433.0","8cau8syb","","","","","","","","","","","","","569","idy","Diagnostic trial","","f","","5","4","6","false","false","true","both pre & post","LEFT","LEFT","f","1","true","","","",""
"","html-keyboard-response","251","367683","0.0-436.0","8cau8syb","1920","1200","","","","","","","","","","","null","+","Fixation - short","","null","","","","","","","","","","","","","","","","",""
"","html-keyboard-response","252","368400","0.0-437.0","8cau8syb","","","","","","","","","","","","","716","pmf","Diagnostic trial","","j","","5","5","6","false","false","false","both pre & post","RIGHT","RIGHT","j","1","true","","","",""
"","html-keyboard-response","253","369152","0.0-440.0","8cau8syb","1920","1200","","","","","","","","","","","null","+","Fixation - short","","null","","","","","","","","","","","","","","","","",""
"","canvas-keyboard-response","254","370405","0.0-441.0","8cau8syb","","","","","","","","","","","","","null","Cue","Cue","","null","","5","5","","","false","","","","","","","","","","",""
"","html-keyboard-response","255","371157","0.0-442.0","8cau8syb","1920","1200","","","","","","","","","","","null","+","Fixation - short","","null","","","","","","","","","","","","","","","","",""
"","html-keyboard-response","256","372213","0.0-443.0","8cau8syb","","","","","","","","","","","","","1056","pmf","Diagnostic trial","","j","","5","6","6","true","false","false","both pre & post","RIGHT","RIGHT","j","1","true","","","",""
"","html-keyboard-response","257","372966","0.0-446.0","8cau8syb","1920","1200","","","","","","","","","","","null","+","Fixation - short","","null","","","","","","","","","","","","","","","","",""
"","html-keyboard-response","258","373519","0.0-447.0","8cau8syb","","","","","","","","","","","","","553","idy","Diagnostic trial","","f","","5","7","6","true","false","true","both pre & post","LEFT","LEFT","f","1","true","","","",""
"","html-keyboard-response","259","374272","0.0-450.0","8cau8syb","1920","1200","","","","","","","","","","","null","+","Fixation - short","","null","","","","","","","","","","","","","","","","",""
"","html-keyboard-response","260","374872","0.0-451.0","8cau8syb","","","","","","","","","","","","","600","pmf","Diagnostic trial","","j","","5","8","6","true","false","false","both pre & post","RIGHT","RIGHT","j","1","true","","","",""
"","html-keyboard-response","261","375624","0.0-454.0","8cau8syb","1920","1200","","","","","","","","","","","null","+","Fixation - short","","null","","","","","","","","","","","","","","","","",""
"","html-keyboard-response","262","376281","0.0-455.0","8cau8syb","","","","","","","","","","","","","656","idy","Inducer trial","","f","","5","","","","true","","","","","f","1","","false","LEFT","",""
"","html-keyboard-response","263","377033","0.0-458.0","8cau8syb","1920","1200","","","","","","","","","","","null","+","Fixation - short","","null","","","","","","","","","","","","","","","","",""
"","html-keyboard-response","264","378481","0.0-459.0","8cau8syb","","","","","","","","","","","","","1447","If wrz press LEFT | If jup press RIGHT","Inducer instructions",""," ","","6","","","","","","","","","","","","","","",""
"","html-keyboard-response","265","379233","0.0-460.0","8cau8syb","1920","1200","","","","","","","","","","","null","+","Fixation - short","","null","","","","","","","","","","","","","","","","",""
"","html-keyboard-response","266","380418","0.0-461.0","8cau8syb","","","","","","","","","","","","","1183","wrz","Diagnostic trial","","j","","6","0","5","false","false","false","both pre & post","LEFT","RIGHT","j","1","false","","","",""
"","html-keyboard-response","267","381170","0.0-464.0","8cau8syb","1920","1200","","","","","","","","","","","null","+","Fixation - short","","null","","","","","","","","","","","","","","","","",""
"","html-keyboard-response","268","381721","0.0-465.0","8cau8syb","","","","","","","","","","","","","550","wrz","Diagnostic trial","","j","","6","1","5","false","false","false","both pre & post","LEFT","RIGHT","j","1","false","","","",""
"","html-keyboard-response","269","382474","0.0-468.0","8cau8syb","1920","1200","","","","","","","","","","","null","+","Fixation - short","","null","","","","","","","","","","","","","","","","",""
"","html-keyboard-response","270","382914","0.0-469.0","8cau8syb","","","","","","","","","","","","","439","wrz","Diagnostic trial","","j","","6","2","5","false","false","false","both pre & post","LEFT","RIGHT","j","1","false","","","",""
"","html-keyboard-response","271","383666","0.0-472.0","8cau8syb","1920","1200","","","","","","","","","","","null","+","Fixation - short","","null","","","","","","","","","","","","","","","","",""
"","html-keyboard-response","272","384196","0.0-473.0","8cau8syb","","","","","","","","","","","","","529","jup","Diagnostic trial","","j","","6","3","5","false","false","false","both pre & post","RIGHT","RIGHT","j","1","true","","","",""
"","html-keyboard-response","273","384948","0.0-476.0","8cau8syb","1920","1200","","","","","","","","","","","null","+","Fixation - short","","null","","","","","","","","","","","","","","","","",""
"","html-keyboard-response","274","385345","0.0-477.0","8cau8syb","","","","","","","","","","","","","397","jup","Diagnostic trial","","j","","6","4","5","false","false","false","both pre & post","RIGHT","RIGHT","j","1","true","","","",""
"","html-keyboard-response","275","386098","0.0-480.0","8cau8syb","1920","1200","","","","","","","","","","","null","+","Fixation - short","","null","","","","","","","","","","","","","","","","",""
"","canvas-keyboard-response","276","387350","0.0-481.0","8cau8syb","","","","","","","","","","","","","null","Cue","Cue","","null","","6","4","","","false","","","","","","","","","","",""
"","html-keyboard-response","277","388102","0.0-482.0","8cau8syb","1920","1200","","","","","","","","","","","null","+","Fixation - short","","null","","","","","","","","","","","","","","","","",""
"","html-keyboard-response","278","389027","0.0-483.0","8cau8syb","","","","","","","","","","","","","923","jup","Diagnostic trial","","f","","6","5","5","true","false","true","both pre & post","RIGHT","LEFT","f","1","false","","","",""
"","html-keyboard-response","279","389780","0.0-486.0","8cau8syb","1920","1200","","","","","","","","","","","null","+","Fixation - short","","null","","","","","","","","","","","","","","","","",""
"","html-keyboard-response","280","390263","0.0-487.0","8cau8syb","","","","","","","","","","","","","483","jup","Diagnostic trial","","f","","6","6","5","true","false","true","both pre & post","RIGHT","LEFT","f","1","false","","","",""
"","html-keyboard-response","281","391016","0.0-490.0","8cau8syb","1920","1200","","","","","","","","","","","null","+","Fixation - short","","null","","","","","","","","","","","","","","","","",""
"","html-keyboard-response","282","391580","0.0-491.0","8cau8syb","","","","","","","","","","","","","563","jup","Diagnostic trial","","j","","6","7","5","true","false","false","both pre & post","RIGHT","RIGHT","j","1","true","","","",""
"","html-keyboard-response","283","392332","0.0-494.0","8cau8syb","1920","1200","","","","","","","","","","","null","+","Fixation - short","","null","","","","","","","","","","","","","","","","",""
"","html-keyboard-response","284","393049","0.0-495.0","8cau8syb","","","","","","","","","","","","","716","jup","Diagnostic trial","","f","","6","8","5","true","false","true","both pre & post","RIGHT","LEFT","f","1","false","","","",""
"","html-keyboard-response","285","393800","0.0-498.0","8cau8syb","1920","1200","","","","","","","","","","","null","+","Fixation - short","","null","","","","","","","","","","","","","","","","",""
"","html-keyboard-response","286","394660","0.0-499.0","8cau8syb","","","","","","","","","","","","","859","jup","Inducer trial","","j","","6","","","","true","","","","","j","1","","false","RIGHT","",""
"","html-keyboard-response","287","395412","0.0-502.0","8cau8syb","1920","1200","","","","","","","","","","","null","+","Fixation - short","","null","","","","","","","","","","","","","","","","",""
"","html-keyboard-response","288","399044","0.0-503.0","8cau8syb","","","","","","","","","","","","","3631","If cmj press LEFT | If yrp press RIGHT","Inducer instructions",""," ","","7","","","","","","","","","","","","","","",""
"","html-keyboard-response","289","399796","0.0-504.0","8cau8syb","1920","1200","","","","","","","","","","","null","+","Fixation - short","","null","","","","","","","","","","","","","","","","",""
"","html-keyboard-response","290","400800","0.0-505.0","8cau8syb","","","","","","","","","","","","","1003","yrp","Diagnostic trial","","f","","7","0","4","false","false","true","both pre & post","RIGHT","LEFT","f","1","false","","","",""
"","html-keyboard-response","291","401552","0.0-508.0","8cau8syb","1920","1200","","","","","","","","","","","null","+","Fixation - short","","null","","","","","","","","","","","","","","","","",""
"","html-keyboard-response","292","402383","0.0-509.0","8cau8syb","","","","","","","","","","","","","829","yrp","Diagnostic trial","","j","","7","1","4","false","false","false","both pre & post","RIGHT","RIGHT","j","1","true","","","",""
"","html-keyboard-response","293","403135","0.0-512.0","8cau8syb","1920","1200","","","","","","","","","","","null","+","Fixation - short","","null","","","","","","","","","","","","","","","","",""
"","html-keyboard-response","294","403920","0.0-513.0","8cau8syb","","","","","","","","","","","","","784","cmj","Diagnostic trial","","j","","7","2","4","false","false","false","both pre & post","LEFT","RIGHT","j","1","false","","","",""
"","html-keyboard-response","295","404672","0.0-516.0","8cau8syb","1920","1200","","","","","","","","","","","null","+","Fixation - short","","null","","","","","","","","","","","","","","","","",""
"","html-keyboard-response","296","405111","0.0-517.0","8cau8syb","","","","","","","","","","","","","438","cmj","Diagnostic trial","","j","","7","3","4","false","false","false","both pre & post","LEFT","RIGHT","j","1","false","","","",""
"","html-keyboard-response","297","405863","0.0-520.0","8cau8syb","1920","1200","","","","","","","","","","","null","+","Fixation - short","","null","","","","","","","","","","","","","","","","",""
"","canvas-keyboard-response","298","407116","0.0-521.0","8cau8syb","","","","","","","","","","","","","null","Cue","Cue","","null","","7","3","","","false","","","","","","","","","","",""
"","html-keyboard-response","299","407868","0.0-522.0","8cau8syb","1920","1200","","","","","","","","","","","null","+","Fixation - short","","null","","","","","","","","","","","","","","","","",""
"","html-keyboard-response","300","408922","0.0-523.0","8cau8syb","","","","","","","","","","","","","1053","cmj","Diagnostic trial","","f","","7","4","4","true","false","true","both pre & post","LEFT","LEFT","f","1","true","","","",""
"","html-keyboard-response","301","409675","0.0-526.0","8cau8syb","1920","1200","","","","","","","","","","","null","+","Fixation - short","","null","","","","","","","","","","","","","","","","",""
"","html-keyboard-response","302","410604","0.0-527.0","8cau8syb","","","","","","","","","","","","","928","yrp","Diagnostic trial","","f","","7","5","4","true","false","true","both pre & post","RIGHT","LEFT","f","1","false","","","",""
"","html-keyboard-response","303","411357","0.0-530.0","8cau8syb","1920","1200","","","","","","","","","","","null","+","Fixation - short","","null","","","","","","","","","","","","","","","","",""
"","html-keyboard-response","304","411817","0.0-531.0","8cau8syb","","","","","","","","","","","","","460","yrp","Diagnostic trial","","f","","7","6","4","true","false","true","both pre & post","RIGHT","LEFT","f","1","false","","","",""
"","html-keyboard-response","305","412570","0.0-534.0","8cau8syb","1920","1200","","","","","","","","","","","null","+","Fixation - short","","null","","","","","","","","","","","","","","","","",""
"","html-keyboard-response","306","413227","0.0-535.0","8cau8syb","","","","","","","","","","","","","657","yrp","Diagnostic trial","","j","","7","7","4","true","false","false","both pre & post","RIGHT","RIGHT","j","1","true","","","",""
"","html-keyboard-response","307","413980","0.0-538.0","8cau8syb","1920","1200","","","","","","","","","","","null","+","Fixation - short","","null","","","","","","","","","","","","","","","","",""
"","html-keyboard-response","308","414711","0.0-539.0","8cau8syb","","","","","","","","","","","","","731","yrp","Inducer trial","","j","","7","","","","true","","","","","j","1","","false","RIGHT","",""
"","html-keyboard-response","309","415463","0.0-542.0","8cau8syb","1920","1200","","","","","","","","","","","null","+","Fixation - short","","null","","","","","","","","","","","","","","","","",""
"","html-keyboard-response","310","416512","0.0-543.0","8cau8syb","","","","","","","","","","","","","1048","If dpa press LEFT | If ebe press RIGHT","Inducer instructions",""," ","","8","","","","","","","","","","","","","","",""
"","html-keyboard-response","311","417264","0.0-544.0","8cau8syb","1920","1200","","","","","","","","","","","null","+","Fixation - short","","null","","","","","","","","","","","","","","","","",""
"","html-keyboard-response","312","418350","0.0-545.0","8cau8syb","","","","","","","","","","","","","1085","ebe","Diagnostic trial","","j","","8","0","8","false","false","false","both pre & post","RIGHT","RIGHT","j","1","true","","","",""
"","html-keyboard-response","313","419102","0.0-548.0","8cau8syb","1920","1200","","","","","","","","","","","null","+","Fixation - short","","null","","","","","","","","","","","","","","","","",""
"","html-keyboard-response","314","419692","0.0-549.0","8cau8syb","","","","","","","","","","","","","589","ebe","Diagnostic trial","","j","","8","1","8","false","false","false","both pre & post","RIGHT","RIGHT","j","1","true","","","",""
"","html-keyboard-response","315","420444","0.0-552.0","8cau8syb","1920","1200","","","","","","","","","","","null","+","Fixation - short","","null","","","","","","","","","","","","","","","","",""
"","html-keyboard-response","316","420965","0.0-553.0","8cau8syb","","","","","","","","","","","","","520","dpa","Diagnostic trial","","f","","8","2","8","false","false","true","both pre & post","LEFT","LEFT","f","1","true","","","",""
"","html-keyboard-response","317","421718","0.0-556.0","8cau8syb","1920","1200","","","","","","","","","","","null","+","Fixation - short","","null","","","","","","","","","","","","","","","","",""
"","html-keyboard-response","318","422222","0.0-557.0","8cau8syb","","","","","","","","","","","","","504","ebe","Diagnostic trial","","f","","8","3","8","false","false","true","both pre & post","RIGHT","LEFT","f","1","false","","","",""
"","html-keyboard-response","319","422975","0.0-560.0","8cau8syb","1920","1200","","","","","","","","","","","null","+","Fixation - short","","null","","","","","","","","","","","","","","","","",""
"","html-keyboard-response","320","423535","0.0-561.0","8cau8syb","","","","","","","","","","","","","560","dpa","Diagnostic trial","","j","","8","4","8","false","false","false","both pre & post","LEFT","RIGHT","j","1","false","","","",""
"","html-keyboard-response","321","424287","0.0-564.0","8cau8syb","1920","1200","","","","","","","","","","","null","+","Fixation - short","","null","","","","","","","","","","","","","","","","",""
"","html-keyboard-response","322","424875","0.0-565.0","8cau8syb","","","","","","","","","","","","","587","dpa","Diagnostic trial","","j","","8","5","8","false","false","false","both pre & post","LEFT","RIGHT","j","1","false","","","",""
"","html-keyboard-response","323","425626","0.0-568.0","8cau8syb","1920","1200","","","","","","","","","","","null","+","Fixation - short","","null","","","","","","","","","","","","","","","","",""
"","html-keyboard-response","324","426223","0.0-569.0","8cau8syb","","","","","","","","","","","","","596","dpa","Diagnostic trial","","f","","8","6","8","false","false","true","both pre & post","LEFT","LEFT","f","1","true","","","",""
"","html-keyboard-response","325","426975","0.0-572.0","8cau8syb","1920","1200","","","","","","","","","","","null","+","Fixation - short","","null","","","","","","","","","","","","","","","","",""
"","html-keyboard-response","326","427853","0.0-573.0","8cau8syb","","","","","","","","","","","","","877","ebe","Diagnostic trial","","f","","8","7","8","false","false","true","both pre & post","RIGHT","LEFT","f","1","false","","","",""
"","html-keyboard-response","327","428605","0.0-576.0","8cau8syb","1920","1200","","","","","","","","","","","null","+","Fixation - short","","null","","","","","","","","","","","","","","","","",""
"","canvas-keyboard-response","328","429857","0.0-577.0","8cau8syb","","","","","","","","","","","","","null","Cue","Cue","","null","","8","7","","","false","","","","","","","","","","",""
"","html-keyboard-response","329","430609","0.0-578.0","8cau8syb","1920","1200","","","","","","","","","","","null","+","Fixation - short","","null","","","","","","","","","","","","","","","","",""
"","html-keyboard-response","330","431463","0.0-579.0","8cau8syb","","","","","","","","","","","","","853","ebe","Diagnostic trial","","f","","8","8","8","true","false","true","both pre & post","RIGHT","LEFT","f","1","false","","","",""
"","html-keyboard-response","331","432215","0.0-582.0","8cau8syb","1920","1200","","","","","","","","","","","null","+","Fixation - short","","null","","","","","","","","","","","","","","","","",""
"","html-keyboard-response","332","432956","0.0-583.0","8cau8syb","","","","","","","","","","","","","740","dpa","Diagnostic trial","","j","","8","9","8","true","false","false","both pre & post","LEFT","RIGHT","j","1","false","","","",""
"","html-keyboard-response","333","433709","0.0-586.0","8cau8syb","1920","1200","","","","","","","","","","","null","+","Fixation - short","","null","","","","","","","","","","","","","","","","",""
"","html-keyboard-response","334","434516","0.0-587.0","8cau8syb","","","","","","","","","","","","","807","ebe","Diagnostic trial","","j","","8","10","8","true","false","false","both pre & post","RIGHT","RIGHT","j","1","true","","","",""
"","html-keyboard-response","335","435269","0.0-590.0","8cau8syb","1920","1200","","","","","","","","","","","null","+","Fixation - short","","null","","","","","","","","","","","","","","","","",""
"","html-keyboard-response","336","436945","0.0-591.0","8cau8syb","","","","","","","","","","","","","1676","ebe","Inducer trial","","j","","8","","","","true","","","","","j","1","","false","RIGHT","",""
"","html-keyboard-response","337","437697","0.0-594.0","8cau8syb","1920","1200","","","","","","","","","","","null","+","Fixation - short","","null","","","","","","","","","","","","","","","","",""
"","html-keyboard-response","338","439026","0.0-595.0","8cau8syb","","","","","","","","","","","","","1328","If jsf press LEFT | If edc press RIGHT","Inducer instructions",""," ","","9","","","","","","","","","","","","","","",""
"","html-keyboard-response","339","439778","0.0-596.0","8cau8syb","1920","1200","","","","","","","","","","","null","+","Fixation - short","","null","","","","","","","","","","","","","","","","",""
"","html-keyboard-response","340","440521","0.0-597.0","8cau8syb","","","","","","","","","","","","","742","jsf","Diagnostic trial","","f","","9","0","8","false","false","true","both pre & post","LEFT","LEFT","f","1","true","","","",""
"","html-keyboard-response","341","441274","0.0-600.0","8cau8syb","1920","1200","","","","","","","","","","","null","+","Fixation - short","","null","","","","","","","","","","","","","","","","",""
"","html-keyboard-response","342","441824","0.0-601.0","8cau8syb","","","","","","","","","","","","","549","edc","Diagnostic trial","","j","","9","1","8","false","false","false","both pre & post","RIGHT","RIGHT","j","1","true","","","",""
"","html-keyboard-response","343","442577","0.0-604.0","8cau8syb","1920","1200","","","","","","","","","","","null","+","Fixation - short","","null","","","","","","","","","","","","","","","","",""
"","html-keyboard-response","344","443325","0.0-605.0","8cau8syb","","","","","","","","","","","","","748","jsf","Diagnostic trial","","f","","9","2","8","false","false","true","both pre & post","LEFT","LEFT","f","1","true","","","",""
"","html-keyboard-response","345","444076","0.0-608.0","8cau8syb","1920","1200","","","","","","","","","","","null","+","Fixation - short","","null","","","","","","","","","","","","","","","","",""
"","html-keyboard-response","346","444698","0.0-609.0","8cau8syb","","","","","","","","","","","","","621","edc","Diagnostic trial","","f","","9","3","8","false","false","true","both pre & post","RIGHT","LEFT","f","1","false","","","",""
"","html-keyboard-response","347","445450","0.0-612.0","8cau8syb","1920","1200","","","","","","","","","","","null","+","Fixation - short","","null","","","","","","","","","","","","","","","","",""
"","html-keyboard-response","348","446192","0.0-613.0","8cau8syb","","","","","","","","","","","","","741","jsf","Diagnostic trial","","j","","9","4","8","false","false","false","both pre & post","LEFT","RIGHT","j","1","false","","","",""
"","html-keyboard-response","349","446944","0.0-616.0","8cau8syb","1920","1200","","","","","","","","","","","null","+","Fixation - short","","null","","","","","","","","","","","","","","","","",""
"","html-keyboard-response","350","447588","0.0-617.0","8cau8syb","","","","","","","","","","","","","643","edc","Diagnostic trial","","f","","9","5","8","false","false","true","both pre & post","RIGHT","LEFT","f","1","false","","","",""
"","html-keyboard-response","351","448341","0.0-620.0","8cau8syb","1920","1200","","","","","","","","","","","null","+","Fixation - short","","null","","","","","","","","","","","","","","","","",""
"","html-keyboard-response","352","449248","0.0-621.0","8cau8syb","","","","","","","","","","","","","906","jsf","Diagnostic trial","","f","","9","6","8","false","false","true","both pre & post","LEFT","LEFT","f","1","true","","","",""
"","html-keyboard-response","353","450000","0.0-624.0","8cau8syb","1920","1200","","","","","","","","","","","null","+","Fixation - short","","null","","","","","","","","","","","","","","","","",""
"","html-keyboard-response","354","450580","0.0-625.0","8cau8syb","","","","","","","","","","","","","579","edc","Diagnostic trial","","j","","9","7","8","false","false","false","both pre & post","RIGHT","RIGHT","j","1","true","","","",""
"","html-keyboard-response","355","451332","0.0-628.0","8cau8syb","1920","1200","","","","","","","","","","","null","+","Fixation - short","","null","","","","","","","","","","","","","","","","",""
"","canvas-keyboard-response","356","452584","0.0-629.0","8cau8syb","","","","","","","","","","","","","null","Cue","Cue","","null","","9","7","","","false","","","","","","","","","","",""
"","html-keyboard-response","357","453337","0.0-630.0","8cau8syb","1920","1200","","","","","","","","","","","null","+","Fixation - short","","null","","","","","","","","","","","","","","","","",""
"","html-keyboard-response","358","454097","0.0-631.0","8cau8syb","","","","","","","","","","","","","759","edc","Diagnostic trial","","j","","9","8","8","true","false","false","both pre & post","RIGHT","RIGHT","j","1","true","","","",""
"","html-keyboard-response","359","454849","0.0-634.0","8cau8syb","1920","1200","","","","","","","","","","","null","+","Fixation - short","","null","","","","","","","","","","","","","","","","",""
"","html-keyboard-response","360","455743","0.0-635.0","8cau8syb","","","","","","","","","","","","","893","jsf","Diagnostic trial","","j","","9","9","8","true","false","false","both pre & post","LEFT","RIGHT","j","1","false","","","",""
"","html-keyboard-response","361","456495","0.0-638.0","8cau8syb","1920","1200","","","","","","","","","","","null","+","Fixation - short","","null","","","","","","","","","","","","","","","","",""
"","html-keyboard-response","362","457079","0.0-639.0","8cau8syb","","","","","","","","","","","","","583","edc","Diagnostic trial","","j","","9","10","8","true","false","false","both pre & post","RIGHT","RIGHT","j","1","true","","","",""
"","html-keyboard-response","363","457830","0.0-642.0","8cau8syb","1920","1200","","","","","","","","","","","null","+","Fixation - short","","null","","","","","","","","","","","","","","","","",""
"","html-keyboard-response","364","458945","0.0-643.0","8cau8syb","","","","","","","","","","","","","1114","jsf","Inducer trial","","f","","9","","","","true","","","","","f","1","","false","LEFT","",""
"","html-keyboard-response","365","459697","0.0-646.0","8cau8syb","1920","1200","","","","","","","","","","","null","+","Fixation - short","","null","","","","","","","","","","","","","","","","",""
"","html-keyboard-response","366","460895","0.0-647.0","8cau8syb","","","","","","","","","","","","","1197","If bsh press LEFT | If vnn press RIGHT","Inducer instructions",""," ","","10","","","","","","","","","","","","","","",""
"","html-keyboard-response","367","461648","0.0-648.0","8cau8syb","1920","1200","","","","","","","","","","","null","+","Fixation - short","","null","","","","","","","","","","","","","","","","",""
"","html-keyboard-response","368","462740","0.0-649.0","8cau8syb","","","","","","","","","","","","","1091","vnn","Diagnostic trial","","f","","10","0","9","false","false","true","both pre & post","RIGHT","LEFT","f","1","false","","","",""
"","html-keyboard-response","369","463492","0.0-652.0","8cau8syb","1920","1200","","","","","","","","","","","null","+","Fixation - short","","null","","","","","","","","","","","","","","","","",""
"","html-keyboard-response","370","464006","0.0-653.0","8cau8syb","","","","","","","","","","","","","514","vnn","Diagnostic trial","","f","","10","1","9","false","false","true","both pre & post","RIGHT","LEFT","f","1","false","","","",""
"","html-keyboard-response","371","464758","0.0-656.0","8cau8syb","1920","1200","","","","","","","","","","","null","+","Fixation - short","","null","","","","","","","","","","","","","","","","",""
"","html-keyboard-response","372","465399","0.0-657.0","8cau8syb","","","","","","","","","","","","","639","vnn","Diagnostic trial","","j","","10","2","9","false","false","false","both pre & post","RIGHT","RIGHT","j","1","true","","","",""
"","html-keyboard-response","373","466151","0.0-660.0","8cau8syb","1920","1200","","","","","","","","","","","null","+","Fixation - short","","null","","","","","","","","","","","","","","","","",""
"","html-keyboard-response","374","466696","0.0-661.0","8cau8syb","","","","","","","","","","","","","544","bsh","Diagnostic trial","","j","","10","3","9","false","false","false","both pre & post","LEFT","RIGHT","j","1","false","","","",""
"","html-keyboard-response","375","467449","0.0-664.0","8cau8syb","1920","1200","","","","","","","","","","","null","+","Fixation - short","","null","","","","","","","","","","","","","","","","",""
"","html-keyboard-response","376","468220","0.0-665.0","8cau8syb","","","","","","","","","","","","","771","vnn","Diagnostic trial","","f","","10","4","9","false","false","true","both pre & post","RIGHT","LEFT","f","1","false","","","",""
"","html-keyboard-response","377","468972","0.0-668.0","8cau8syb","1920","1200","","","","","","","","","","","null","+","Fixation - short","","null","","","","","","","","","","","","","","","","",""
"","html-keyboard-response","378","469619","0.0-669.0","8cau8syb","","","","","","","","","","","","","647","bsh","Diagnostic trial","","f","","10","5","9","false","false","true","both pre & post","LEFT","LEFT","f","1","true","","","",""
"","html-keyboard-response","379","470371","0.0-672.0","8cau8syb","1920","1200","","","","","","","","","","","null","+","Fixation - short","","null","","","","","","","","","","","","","","","","",""
"","html-keyboard-response","380","470885","0.0-673.0","8cau8syb","","","","","","","","","","","","","513","bsh","Diagnostic trial","","f","","10","6","9","false","false","true","both pre & post","LEFT","LEFT","f","1","true","","","",""
"","html-keyboard-response","381","471636","0.0-676.0","8cau8syb","1920","1200","","","","","","","","","","","null","+","Fixation - short","","null","","","","","","","","","","","","","","","","",""
"","html-keyboard-response","382","472252","0.0-677.0","8cau8syb","","","","","","","","","","","","","615","bsh","Diagnostic trial","","j","","10","7","9","false","false","false","both pre & post","LEFT","RIGHT","j","1","false","","","",""
"","html-keyboard-response","383","473004","0.0-680.0","8cau8syb","1920","1200","","","","","","","","","","","null","+","Fixation - short","","null","","","","","","","","","","","","","","","","",""
"","html-keyboard-response","384","473967","0.0-681.0","8cau8syb","","","","","","","","","","","","","961","vnn","Diagnostic trial","","f","","10","8","9","false","false","true","both pre & post","RIGHT","LEFT","f","1","false","","","",""
"","html-keyboard-response","385","474719","0.0-684.0","8cau8syb","1920","1200","","","","","","","","","","","null","+","Fixation - short","","null","","","","","","","","","","","","","","","","",""
"","canvas-keyboard-response","386","475972","0.0-685.0","8cau8syb","","","","","","","","","","","","","null","Cue","Cue","","null","","10","8","","","false","","","","","","","","","","",""
"","html-keyboard-response","387","476724","0.0-686.0","8cau8syb","1920","1200","","","","","","","","","","","null","+","Fixation - short","","null","","","","","","","","","","","","","","","","",""
"","html-keyboard-response","388","477307","0.0-687.0","8cau8syb","","","","","","","","","","","","","582","bsh","Diagnostic trial","","f","","10","9","9","true","false","true","both pre & post","LEFT","LEFT","f","1","true","","","",""
"","html-keyboard-response","389","478060","0.0-690.0","8cau8syb","1920","1200","","","","","","","","","","","null","+","Fixation - short","","null","","","","","","","","","","","","","","","","",""
"","html-keyboard-response","390","478657","0.0-691.0","8cau8syb","","","","","","","","","","","","","596","vnn","Diagnostic trial","","f","","10","10","9","true","false","true","both pre & post","RIGHT","LEFT","f","1","false","","","",""
"","html-keyboard-response","391","479409","0.0-694.0","8cau8syb","1920","1200","","","","","","","","","","","null","+","Fixation - short","","null","","","","","","","","","","","","","","","","",""
"","html-keyboard-response","392","479971","0.0-695.0","8cau8syb","","","","","","","","","","","","","561","vnn","Diagnostic trial","","j","","10","11","9","true","false","false","both pre & post","RIGHT","RIGHT","j","1","true","","","",""
"","html-keyboard-response","393","480724","0.0-698.0","8cau8syb","1920","1200","","","","","","","","","","","null","+","Fixation - short","","null","","","","","","","","","","","","","","","","",""
"","html-keyboard-response","394","481301","0.0-699.0","8cau8syb","","","","","","","","","","","","","577","vnn","Diagnostic trial","","j","","10","12","9","true","false","false","both pre & post","RIGHT","RIGHT","j","1","true","","","",""
"","html-keyboard-response","395","482054","0.0-702.0","8cau8syb","1920","1200","","","","","","","","","","","null","+","Fixation - short","","null","","","","","","","","","","","","","","","","",""
"","html-keyboard-response","396","482950","0.0-703.0","8cau8syb","","","","","","","","","","","","","896","vnn","Inducer trial","","j","","10","","","","true","","","","","j","1","","false","RIGHT","",""
"","html-keyboard-response","397","483703","0.0-706.0","8cau8syb","1920","1200","","","","","","","","","","","null","+","Fixation - short","","null","","","","","","","","","","","","","","","","",""
"","html-keyboard-response","398","484692","0.0-707.0","8cau8syb","","","","","","","","","","","","","989","If ndm press LEFT | If hhd press RIGHT","Inducer instructions",""," ","","11","","","","","","","","","","","","","","",""
"","html-keyboard-response","399","485444","0.0-708.0","8cau8syb","1920","1200","","","","","","","","","","","null","+","Fixation - short","","null","","","","","","","","","","","","","","","","",""
"","html-keyboard-response","400","486278","0.0-709.0","8cau8syb","","","","","","","","","","","","","833","ndm","Diagnostic trial","","j","","11","0","8","false","false","false","both pre & post","LEFT","RIGHT","j","1","false","","","",""
"","html-keyboard-response","401","487030","0.0-712.0","8cau8syb","1920","1200","","","","","","","","","","","null","+","Fixation - short","","null","","","","","","","","","","","","","","","","",""
"","html-keyboard-response","402","487640","0.0-713.0","8cau8syb","","","","","","","","","","","","","609","hhd","Diagnostic trial","","f","","11","1","8","false","false","true","both pre & post","RIGHT","LEFT","f","1","false","","","",""
"","html-keyboard-response","403","488392","0.0-716.0","8cau8syb","1920","1200","","","","","","","","","","","null","+","Fixation - short","","null","","","","","","","","","","","","","","","","",""
"","html-keyboard-response","404","489251","0.0-717.0","8cau8syb","","","","","","","","","","","","","858","hhd","Diagnostic trial","","j","","11","2","8","false","false","false","both pre & post","RIGHT","RIGHT","j","1","true","","","",""
"","html-keyboard-response","405","490002","0.0-720.0","8cau8syb","1920","1200","","","","","","","","","","","null","+","Fixation - short","","null","","","","","","","","","","","","","","","","",""
"","html-keyboard-response","406","490483","0.0-721.0","8cau8syb","","","","","","","","","","","","","480","hhd","Diagnostic trial","","j","","11","3","8","false","false","false","both pre & post","RIGHT","RIGHT","j","1","true","","","",""
"","html-keyboard-response","407","491236","0.0-724.0","8cau8syb","1920","1200","","","","","","","","","","","null","+","Fixation - short","","null","","","","","","","","","","","","","","","","",""
"","html-keyboard-response","408","491797","0.0-725.0","8cau8syb","","","","","","","","","","","","","561","ndm","Diagnostic trial","","f","","11","4","8","false","false","true","both pre & post","LEFT","LEFT","f","1","true","","","",""
"","html-keyboard-response","409","492550","0.0-728.0","8cau8syb","1920","1200","","","","","","","","","","","null","+","Fixation - short","","null","","","","","","","","","","","","","","","","",""
"","html-keyboard-response","410","493167","0.0-729.0","8cau8syb","","","","","","","","","","","","","616","hhd","Diagnostic trial","","j","","11","5","8","false","false","false","both pre & post","RIGHT","RIGHT","j","1","true","","","",""
"","html-keyboard-response","411","493920","0.0-732.0","8cau8syb","1920","1200","","","","","","","","","","","null","+","Fixation - short","","null","","","","","","","","","","","","","","","","",""
"","html-keyboard-response","412","494528","0.0-733.0","8cau8syb","","","","","","","","","","","","","608","hhd","Diagnostic trial","","f","","11","6","8","false","false","true","both pre & post","RIGHT","LEFT","f","1","false","","","",""
"","html-keyboard-response","413","495280","0.0-736.0","8cau8syb","1920","1200","","","","","","","","","","","null","+","Fixation - short","","null","","","","","","","","","","","","","","","","",""
"","html-keyboard-response","414","495921","0.0-737.0","8cau8syb","","","","","","","","","","","","","640","hhd","Diagnostic trial","","j","","11","7","8","false","false","false","both pre & post","RIGHT","RIGHT","j","1","true","","","",""
"","html-keyboard-response","415","496673","0.0-740.0","8cau8syb","1920","1200","","","","","","","","","","","null","+","Fixation - short","","null","","","","","","","","","","","","","","","","",""
"","canvas-keyboard-response","416","497925","0.0-741.0","8cau8syb","","","","","","","","","","","","","null","Cue","Cue","","null","","11","7","","","false","","","","","","","","","","",""
"","html-keyboard-response","417","498678","0.0-742.0","8cau8syb","1920","1200","","","","","","","","","","","null","+","Fixation - short","","null","","","","","","","","","","","","","","","","",""
"","html-keyboard-response","418","499433","0.0-743.0","8cau8syb","","","","","","","","","","","","","754","hhd","Diagnostic trial","","f","","11","8","8","true","false","true","both pre & post","RIGHT","LEFT","f","1","false","","","",""
"","html-keyboard-response","419","500185","0.0-746.0","8cau8syb","1920","1200","","","","","","","","","","","null","+","Fixation - short","","null","","","","","","","","","","","","","","","","",""
"","html-keyboard-response","420","500791","0.0-747.0","8cau8syb","","","","","","","","","","","","","605","ndm","Inducer trial","","f","","11","","","","true","","","","","f","1","","false","LEFT","",""
"","html-keyboard-response","421","501543","0.0-750.0","8cau8syb","1920","1200","","","","","","","","","","","null","+","Fixation - short","","null","","","","","","","","","","","","","","","","",""
"","html-keyboard-response","422","502357","0.0-751.0","8cau8syb","","","","","","","","","","","","","812","If goj press LEFT | If bgi press RIGHT","Inducer instructions",""," ","","12","","","","","","","","","","","","","","",""
"","html-keyboard-response","423","503109","0.0-752.0","8cau8syb","1920","1200","","","","","","","","","","","null","+","Fixation - short","","null","","","","","","","","","","","","","","","","",""
"","html-keyboard-response","424","504004","0.0-753.0","8cau8syb","","","","","","","","","","","","","894","bgi","Diagnostic trial","","f","","12","0","6","false","false","true","both pre & post","RIGHT","LEFT","f","1","false","","","",""
"","html-keyboard-response","425","504756","0.0-756.0","8cau8syb","1920","1200","","","","","","","","","","","null","+","Fixation - short","","null","","","","","","","","","","","","","","","","",""
"","html-keyboard-response","426","505336","0.0-757.0","8cau8syb","","","","","","","","","","","","","580","bgi","Diagnostic trial","","j","","12","1","6","false","false","false","both pre & post","RIGHT","RIGHT","j","1","true","","","",""
"","html-keyboard-response","427","506089","0.0-760.0","8cau8syb","1920","1200","","","","","","","","","","","null","+","Fixation - short","","null","","","","","","","","","","","","","","","","",""
"","html-keyboard-response","428","506686","0.0-761.0","8cau8syb","","","","","","","","","","","","","597","goj","Diagnostic trial","","f","","12","2","6","false","false","true","both pre & post","LEFT","LEFT","f","1","true","","","",""
"","html-keyboard-response","429","507439","0.0-764.0","8cau8syb","1920","1200","","","","","","","","","","","null","+","Fixation - short","","null","","","","","","","","","","","","","","","","",""
"","html-keyboard-response","430","507995","0.0-765.0","8cau8syb","","","","","","","","","","","","","555","goj","Diagnostic trial","","f","","12","3","6","false","false","true","both pre & post","LEFT","LEFT","f","1","true","","","",""
"","html-keyboard-response","431","508747","0.0-768.0","8cau8syb","1920","1200","","","","","","","","","","","null","+","Fixation - short","","null","","","","","","","","","","","","","","","","",""
"","html-keyboard-response","432","509394","0.0-769.0","8cau8syb","","","","","","","","","","","","","646","bgi","Diagnostic trial","","f","","12","4","6","false","false","true","both pre & post","RIGHT","LEFT","f","1","false","","","",""
"","html-keyboard-response","433","510146","0.0-772.0","8cau8syb","1920","1200","","","","","","","","","","","null","+","Fixation - short","","null","","","","","","","","","","","","","","","","",""
"","html-keyboard-response","434","510718","0.0-773.0","8cau8syb","","","","","","","","","","","","","571","bgi","Diagnostic trial","","j","","12","5","6","false","false","false","both pre & post","RIGHT","RIGHT","j","1","true","","","",""
"","html-keyboard-response","435","511471","0.0-776.0","8cau8syb","1920","1200","","","","","","","","","","","null","+","Fixation - short","","null","","","","","","","","","","","","","","","","",""
"","canvas-keyboard-response","436","512724","0.0-777.0","8cau8syb","","","","","","","","","","","","","null","Cue","Cue","","null","","12","5","","","false","","","","","","","","","","",""
"","html-keyboard-response","437","513476","0.0-778.0","8cau8syb","1920","1200","","","","","","","","","","","null","+","Fixation - short","","null","","","","","","","","","","","","","","","","",""
"","html-keyboard-response","438","514077","0.0-779.0","8cau8syb","","","","","","","","","","","","","600","bgi","Diagnostic trial","","j","","12","6","6","true","false","false","both pre & post","RIGHT","RIGHT","j","1","true","","","",""
"","html-keyboard-response","439","514830","0.0-782.0","8cau8syb","1920","1200","","","","","","","","","","","null","+","Fixation - short","","null","","","","","","","","","","","","","","","","",""
"","html-keyboard-response","440","515403","0.0-783.0","8cau8syb","","","","","","","","","","","","","573","goj","Diagnostic trial","","f","","12","7","6","true","false","true","both pre & post","LEFT","LEFT","f","1","true","","","",""
"","html-keyboard-response","441","516156","0.0-786.0","8cau8syb","1920","1200","","","","","","","","","","","null","+","Fixation - short","","null","","","","","","","","","","","","","","","","",""
"","html-keyboard-response","442","516801","0.0-787.0","8cau8syb","","","","","","","","","","","","","644","goj","Diagnostic trial","","j","","12","8","6","true","false","false","both pre & post","LEFT","RIGHT","j","1","false","","","",""
"","html-keyboard-response","443","517553","0.0-790.0","8cau8syb","1920","1200","","","","","","","","","","","null","+","Fixation - short","","null","","","","","","","","","","","","","","","","",""
"","html-keyboard-response","444","518674","0.0-791.0","8cau8syb","","","","","","","","","","","","","1120","bgi","Inducer trial","","j","","12","","","","true","","","","","j","1","","false","RIGHT","",""
"","html-keyboard-response","445","519427","0.0-794.0","8cau8syb","1920","1200","","","","","","","","","","","null","+","Fixation - short","","null","","","","","","","","","","","","","","","","",""
"","html-keyboard-response","446","520822","0.0-795.0","8cau8syb","","","","","","","","","","","","","1394","If hfs press LEFT | If pcm press RIGHT","Inducer instructions",""," ","","13","","","","","","","","","","","","","","",""
"","html-keyboard-response","447","521574","0.0-796.0","8cau8syb","1920","1200","","","","","","","","","","","null","+","Fixation - short","","null","","","","","","","","","","","","","","","","",""
"","html-keyboard-response","448","522617","0.0-797.0","8cau8syb","","","","","","","","","","","","","1042","pcm","Diagnostic trial","","j","","13","0","7","false","false","false","both pre & post","RIGHT","RIGHT","j","1","true","","","",""
"","html-keyboard-response","449","523369","0.0-800.0","8cau8syb","1920","1200","","","","","","","","","","","null","+","Fixation - short","","null","","","","","","","","","","","","","","","","",""
"","html-keyboard-response","450","523804","0.0-801.0","8cau8syb","","","","","","","","","","","","","434","pcm","Diagnostic trial","","j","","13","1","7","false","false","false","both pre & post","RIGHT","RIGHT","j","1","true","","","",""
"","html-keyboard-response","451","524557","0.0-804.0","8cau8syb","1920","1200","","","","","","","","","","","null","+","Fixation - short","","null","","","","","","","","","","","","","","","","",""
"","html-keyboard-response","452","525258","0.0-805.0","8cau8syb","","","","","","","","","","","","","700","pcm","Diagnostic trial","","f","","13","2","7","false","false","true","both pre & post","RIGHT","LEFT","f","1","false","","","",""
"","html-keyboard-response","453","526010","0.0-808.0","8cau8syb","1920","1200","","","","","","","","","","","null","+","Fixation - short","","null","","","","","","","","","","","","","","","","",""
