"value","trial_type","trial_index","time_elapsed","internal_node_id","id","width","height","webaudio","browser","browser_version","mobile","os","fullscreen","vsync_rate","webcam","microphone","view_history","rt","stimulus","trial_info","success","response","exp_parameters","inducer_run","diagnostic_run","cue_num","post_cue","inducer_trial","italic","forced_equal_run","correct_inducer_response_side","correct_diag_response_side","correct_response_key","correct_response","congruent","force_equal","correct_indu_response_side","accuracy","interactive"
"","call-function","0","2","0.0-0.0","ydobps06","","","","","","","","","","","","","","","","","","","","","","","","","","","","","","","","","",""
"","browser-check","1","989","0.0-1.0","ydobps06","1440","673","true","chrome","121.0.0","false","Mac OS","true","61.02","true","true","","","","","","","","","","","","","","","","","","","","","","",""
"","instructions","2","998705","0.0-2.0","ydobps06","","","","","","","","","","","","[{""page_index"":0,""viewing_time"":9005},{""page_index"":1,""viewing_time"":985211},{""page_index"":2,""viewing_time"":3570}]","997788","The experiment and consent","The experiment and consent","","","","","","","","","","","","","","","","","","",""
"","fullscreen","3","1011205","0.0-3.0","ydobps06","","","","","","","","","","","","","11496","","Full screen","true","","","","","","","","","","","","","","","","","",""
"","instructions","4","1106991","0.0-4.0","ydobps06","","","","","","","","","","","","[{""page_index"":0,""viewing_time"":84572},{""page_index"":1,""viewing_time"":11216}]","95789","Instructions","Basic overview explanation","","","","","","","","","","","","","","","","","","",""
"","html-keyboard-response","5","1124573","0.0-5.0","ydobps06","","","","","","","","","","","","","16080","If italic press RIGHT | If upright press LEFT","Diagnostic instructions",""," ","{""debug"":false,""skip_instructions"":false,""skip_practice"":false,""save_local_data"":false,""studu_name"":""exp2"",""default_background_colour"":""#cccccc"",""wrong_response_colour"":""#d22d2d"",""instruction_delay"":20000,""trial_duration"":2000,""short_fixation"":750,""long_fixation"":1500,""wrong_response_delay"":300,""too_slow_delay"":300,""instruction_font_size"":""24px"",""general_font_size"":""42px"",""fixation_size"":""48px"",""allowed_responses"":[""f"",""j""],""cue_min_length"":0,""cue_max_length"":4,""tot_post_cue_len"":72,""cue_colour"":""blue"",""cue_shape"":""Square"",""cue_size"":70,""cue_duration"":1250,""avg_number_of_cues"":3,""inducer_colour"":""red"",""number_of_inducers"":24,""pre_cue_italic_forced_equal"":true,""post_cue_italic_forced_equal"":true,""prac_diagnostic_rounds"":16,""prac_inducer_rounds"":6,""prac_cue_rounds"":16,""prac_post_cue_num"":3}","","","","","","","","","","","","","","","",""
"","html-keyboard-response","6","1125325","0.0-6.0","ydobps06","1440","900","","","","","","","","","","","null","+","Fixation - short","","null","","","","","","","","","","","","","","","","",""
"","html-keyboard-response","7","1125906","0.0-7.0","ydobps06","","","","","","","","","","","","","580","iei","Diagnostic practice","","j","","Diagnostic practice","0","-84","true","false","true","prac equal","RIGHT","RIGHT","j","1","true","","","",""
"","html-keyboard-response","8","1126657","0.0-10.0","ydobps06","1440","900","","","","","","","","","","","null","+","Fixation - short","","null","","","","","","","","","","","","","","","","",""
"","html-keyboard-response","9","1127218","0.0-11.0","ydobps06","","","","","","","","","","","","","560","lpn","Diagnostic practice","","f","","Diagnostic practice","1","-84","true","false","false","prac equal","LEFT","LEFT","f","1","true","","","",""
"","html-keyboard-response","10","1127970","0.0-14.0","ydobps06","1440","900","","","","","","","","","","","null","+","Fixation - short","","null","","","","","","","","","","","","","","","","",""
"","html-keyboard-response","11","1128474","0.0-15.0","ydobps06","","","","","","","","","","","","","503","iei","Diagnostic practice","","j","","Diagnostic practice","2","-84","true","false","true","prac equal","RIGHT","RIGHT","j","1","true","","","",""
"","html-keyboard-response","12","1129226","0.0-18.0","ydobps06","1440","900","","","","","","","","","","","null","+","Fixation - short","","null","","","","","","","","","","","","","","","","",""
"","html-keyboard-response","13","1129648","0.0-19.0","ydobps06","","","","","","","","","","","","","421","lpn","Diagnostic practice","","j","","Diagnostic practice","3","-84","true","false","true","prac equal","LEFT","RIGHT","j","1","false","","","",""
"","html-keyboard-response","14","1130400","0.0-22.0","ydobps06","1440","900","","","","","","","","","","","null","+","Fixation - short","","null","","","","","","","","","","","","","","","","",""
"","html-keyboard-response","15","1130802","0.0-23.0","ydobps06","","","","","","","","","","","","","401","iei","Diagnostic practice","","j","","Diagnostic practice","4","-84","true","false","true","prac equal","RIGHT","RIGHT","j","1","true","","","",""
"","html-keyboard-response","16","1131554","0.0-26.0","ydobps06","1440","900","","","","","","","","","","","null","+","Fixation - short","","null","","","","","","","","","","","","","","","","",""
"","html-keyboard-response","17","1132026","0.0-27.0","ydobps06","","","","","","","","","","","","","471","lpn","Diagnostic practice","","f","","Diagnostic practice","5","-84","true","false","false","prac equal","LEFT","LEFT","f","1","true","","","",""
"","html-keyboard-response","18","1132778","0.0-30.0","ydobps06","1440","900","","","","","","","","","","","null","+","Fixation - short","","null","","","","","","","","","","","","","","","","",""
"","html-keyboard-response","19","1133226","0.0-31.0","ydobps06","","","","","","","","","","","","","447","lpn","Diagnostic practice","","f","","Diagnostic practice","6","-84","true","false","false","prac equal","LEFT","LEFT","f","1","true","","","",""
"","html-keyboard-response","20","1133977","0.0-34.0","ydobps06","1440","900","","","","","","","","","","","null","+","Fixation - short","","null","","","","","","","","","","","","","","","","",""
"","html-keyboard-response","21","1134481","0.0-35.0","ydobps06","","","","","","","","","","","","","503","iei","Diagnostic practice","","j","","Diagnostic practice","7","-84","true","false","false","prac equal","RIGHT","LEFT","f","0","false","","","",""
"","call-function","22","1134481","0.0-37.0-0.0","ydobps06","","","","","","","","","","","","","","","","","","","","","","","","","","","","","","","","","",""
"","html-keyboard-response","23","1134784","0.0-37.0-1.0","ydobps06","1440","900","","","","","","","","","","","null","Wrong","Feedback","","null","","","","","","","","","","","","","","","","",""
"","call-function","24","1134784","0.0-37.0-2.0","ydobps06","","","","","","","","","","","","","","","","","","","","","","","","","","","","","","","","","",""
"","html-keyboard-response","25","1135537","0.0-38.0","ydobps06","1440","900","","","","","","","","","","","null","+","Fixation - short","","null","","","","","","","","","","","","","","","","",""
"","html-keyboard-response","26","1136020","0.0-39.0","ydobps06","","","","","","","","","","","","","483","lpn","Diagnostic practice","","j","","Diagnostic practice","8","-84","true","false","true","prac equal","LEFT","RIGHT","j","1","false","","","",""
"","html-keyboard-response","27","1136772","0.0-42.0","ydobps06","1440","900","","","","","","","","","","","null","+","Fixation - short","","null","","","","","","","","","","","","","","","","",""
"","html-keyboard-response","28","1137225","0.0-43.0","ydobps06","","","","","","","","","","","","","453","iei","Diagnostic practice","","j","","Diagnostic practice","9","-84","true","false","true","prac equal","RIGHT","RIGHT","j","1","true","","","",""
"","html-keyboard-response","29","1137978","0.0-46.0","ydobps06","1440","900","","","","","","","","","","","null","+","Fixation - short","","null","","","","","","","","","","","","","","","","",""
"","html-keyboard-response","30","1138425","0.0-47.0","ydobps06","","","","","","","","","","","","","447","lpn","Diagnostic practice","","j","","Diagnostic practice","10","-84","true","false","true","prac equal","LEFT","RIGHT","j","1","false","","","",""
"","html-keyboard-response","31","1139178","0.0-50.0","ydobps06","1440","900","","","","","","","","","","","null","+","Fixation - short","","null","","","","","","","","","","","","","","","","",""
"","html-keyboard-response","32","1139648","0.0-51.0","ydobps06","","","","","","","","","","","","","469","lpn","Diagnostic practice","","f","","Diagnostic practice","11","-84","true","false","false","prac equal","LEFT","LEFT","f","1","true","","","",""
"","html-keyboard-response","33","1140399","0.0-54.0","ydobps06","1440","900","","","","","","","","","","","null","+","Fixation - short","","null","","","","","","","","","","","","","","","","",""
"","html-keyboard-response","34","1140961","0.0-55.0","ydobps06","","","","","","","","","","","","","562","iei","Diagnostic practice","","f","","Diagnostic practice","12","-84","true","false","false","prac equal","RIGHT","LEFT","f","1","false","","","",""
"","html-keyboard-response","35","1141713","0.0-58.0","ydobps06","1440","900","","","","","","","","","","","null","+","Fixation - short","","null","","","","","","","","","","","","","","","","",""
"","html-keyboard-response","36","1142249","0.0-59.0","ydobps06","","","","","","","","","","","","","535","lpn","Diagnostic practice","","j","","Diagnostic practice","13","-84","true","false","true","prac equal","LEFT","RIGHT","j","1","false","","","",""
"","html-keyboard-response","37","1143001","0.0-62.0","ydobps06","1440","900","","","","","","","","","","","null","+","Fixation - short","","null","","","","","","","","","","","","","","","","",""
"","html-keyboard-response","38","1143529","0.0-63.0","ydobps06","","","","","","","","","","","","","528","lpn","Diagnostic practice","","f","","Diagnostic practice","14","-84","true","false","false","prac equal","LEFT","LEFT","f","1","true","","","",""
"","html-keyboard-response","39","1144281","0.0-66.0","ydobps06","1440","900","","","","","","","","","","","null","+","Fixation - short","","null","","","","","","","","","","","","","","","","",""
"","html-keyboard-response","40","1144697","0.0-67.0","ydobps06","","","","","","","","","","","","","415","lpn","Diagnostic practice","","f","","Diagnostic practice","15","-84","true","false","false","prac equal","LEFT","LEFT","f","1","true","","","",""
"","html-keyboard-response","41","1145449","0.0-70.0","ydobps06","1440","900","","","","","","","","","","","null","+","Fixation - short","","null","","","","","","","","","","","","","","","","",""
"","instructions","42","1191204","0.0-71.0","ydobps06","","","","","","","","","","","","[{""page_index"":0,""viewing_time"":45755}]","45756","Instructions","Final experiment explanation","","","","","","","","","","","","","","","","","","",""
"","html-keyboard-response","43","1203097","0.0-72.0","ydobps06","","","","","","","","","","","","","10391","If jil press RIGHT | If ibg press LEFT","Inducer practice",""," ","","Practice","","","","","","","","","","","","","","",""
"","html-keyboard-response","44","1203850","0.0-73.0","ydobps06","1440","900","","","","","","","","","","","null","+","Fixation - short","","null","","","","","","","","","","","","","","","","",""
"","html-keyboard-response","45","1204397","0.0-74.0","ydobps06","","","","","","","","","","","","","546","jil","Inducer practice","","j","","Practice","","","","true","","","","","j","1","","true","RIGHT","",""
"","html-keyboard-response","46","1205149","0.0-77.0","ydobps06","1440","900","","","","","","","","","","","null","+","Fixation - short","","null","","","","","","","","","","","","","","","","",""
"","html-keyboard-response","47","1209910","0.0-78.0","ydobps06","","","","","","","","","","","","","4761","If cui press RIGHT | If wab press LEFT","Inducer practice",""," ","","Practice","","","","","","","","","","","","","","",""
"","html-keyboard-response","48","1210661","0.0-79.0","ydobps06","1440","900","","","","","","","","","","","null","+","Fixation - short","","null","","","","","","","","","","","","","","","","",""
"","html-keyboard-response","49","1211198","0.0-80.0","ydobps06","","","","","","","","","","","","","537","wab","Inducer practice","","f","","Practice","","","","true","","","","","f","1","","true","LEFT","",""
"","html-keyboard-response","50","1211950","0.0-83.0","ydobps06","1440","900","","","","","","","","","","","null","+","Fixation - short","","null","","","","","","","","","","","","","","","","",""
"","html-keyboard-response","51","1216167","0.0-84.0","ydobps06","","","","","","","","","","","","","4217","If geb press RIGHT | If pcm press LEFT","Inducer practice",""," ","","Practice","","","","","","","","","","","","","","",""
"","html-keyboard-response","52","1216920","0.0-85.0","ydobps06","1440","900","","","","","","","","","","","null","+","Fixation - short","","null","","","","","","","","","","","","","","","","",""
"","html-keyboard-response","53","1217460","0.0-86.0","ydobps06","","","","","","","","","","","","","540","pcm","Inducer practice","","f","","Practice","","","","true","","","","","f","1","","true","LEFT","",""
"","html-keyboard-response","54","1218212","0.0-89.0","ydobps06","1440","900","","","","","","","","","","","null","+","Fixation - short","","null","","","","","","","","","","","","","","","","",""
"","html-keyboard-response","55","1219580","0.0-90.0","ydobps06","","","","","","","","","","","","","1368","If ofa press RIGHT | If bwe press LEFT","Inducer practice",""," ","","Practice","","","","","","","","","","","","","","",""
"","html-keyboard-response","56","1220332","0.0-91.0","ydobps06","1440","900","","","","","","","","","","","null","+","Fixation - short","","null","","","","","","","","","","","","","","","","",""
"","html-keyboard-response","57","1220838","0.0-92.0","ydobps06","","","","","","","","","","","","","505","ofa","Inducer practice","","j","","Practice","","","","true","","","","","j","1","","true","RIGHT","",""
"","html-keyboard-response","58","1221590","0.0-95.0","ydobps06","1440","900","","","","","","","","","","","null","+","Fixation - short","","null","","","","","","","","","","","","","","","","",""
"","html-keyboard-response","59","1223926","0.0-96.0","ydobps06","","","","","","","","","","","","","2335","If afp press RIGHT | If dnc press LEFT","Inducer practice",""," ","","Practice","","","","","","","","","","","","","","",""
"","html-keyboard-response","60","1224679","0.0-97.0","ydobps06","1440","900","","","","","","","","","","","null","+","Fixation - short","","null","","","","","","","","","","","","","","","","",""
"","html-keyboard-response","61","1225094","0.0-98.0","ydobps06","","","","","","","","","","","","","415","dnc","Inducer practice","","f","","Practice","","","","true","","","","","f","1","","true","LEFT","",""
"","html-keyboard-response","62","1225846","0.0-101.0","ydobps06","1440","900","","","","","","","","","","","null","+","Fixation - short","","null","","","","","","","","","","","","","","","","",""
"","html-keyboard-response","63","1227528","0.0-102.0","ydobps06","","","","","","","","","","","","","1681","If jup press RIGHT | If sdw press LEFT","Inducer practice",""," ","","Practice","","","","","","","","","","","","","","",""
"","html-keyboard-response","64","1228281","0.0-103.0","ydobps06","1440","900","","","","","","","","","","","null","+","Fixation - short","","null","","","","","","","","","","","","","","","","",""
"","html-keyboard-response","65","1228774","0.0-104.0","ydobps06","","","","","","","","","","","","","492","jup","Inducer practice","","j","","Practice","","","","true","","","","","j","1","","true","RIGHT","",""
"","html-keyboard-response","66","1229526","0.0-107.0","ydobps06","1440","900","","","","","","","","","","","null","+","Fixation - short","","null","","","","","","","","","","","","","","","","",""
"","instructions","67","1259740","0.0-108.0","ydobps06","","","","","","","","","","","","[{""page_index"":0,""viewing_time"":30214}]","30215","Instructions","Final experiment explanation","","","","","","","","","","","","","","","","","","",""
"","html-keyboard-response","68","1273598","0.0-109.0","ydobps06","","","","","","","","","","","","","12356","If cmj press RIGHT | If rpw press LEFT","Cue practice",""," ","","Practice","","","","","","","","","","","","","","",""
"","html-keyboard-response","69","1274351","0.0-110.0","ydobps06","1440","900","","","","","","","","","","","null","+","Fixation - short","","null","","","","","","","","","","","","","","","","",""
"","html-keyboard-response","70","1275860","0.0-111.0","ydobps06","","","","","","","","","","","","","1508","cmj","Cue practice","","f","","Practice","0","13","false","false","false","both pre & post","RIGHT","LEFT","f","1","false","","","",""
"","html-keyboard-response","71","1276612","0.0-114.0","ydobps06","1440","900","","","","","","","","","","","null","+","Fixation - short","","null","","","","","","","","","","","","","","","","",""
"","html-keyboard-response","72","1277659","0.0-115.0","ydobps06","","","","","","","","","","","","","1047","rpw","Cue practice","","f","","Practice","1","13","false","false","false","both pre & post","LEFT","LEFT","f","1","true","","","",""
"","html-keyboard-response","73","1278412","0.0-118.0","ydobps06","1440","900","","","","","","","","","","","null","+","Fixation - short","","null","","","","","","","","","","","","","","","","",""
"","html-keyboard-response","74","1278836","0.0-119.0","ydobps06","","","","","","","","","","","","","423","cmj","Cue practice","","f","","Practice","2","13","false","false","false","both pre & post","RIGHT","LEFT","f","1","false","","","",""
"","html-keyboard-response","75","1279587","0.0-122.0","ydobps06","1440","900","","","","","","","","","","","null","+","Fixation - short","","null","","","","","","","","","","","","","","","","",""
"","html-keyboard-response","76","1280148","0.0-123.0","ydobps06","","","","","","","","","","","","","560","rpw","Cue practice","","j","","Practice","3","13","false","false","true","both pre & post","LEFT","RIGHT","j","1","false","","","",""
"","html-keyboard-response","77","1280900","0.0-126.0","ydobps06","1440","900","","","","","","","","","","","null","+","Fixation - short","","null","","","","","","","","","","","","","","","","",""
"","html-keyboard-response","78","1281411","0.0-127.0","ydobps06","","","","","","","","","","","","","511","cmj","Cue practice","","j","","Practice","4","13","false","false","true","both pre & post","RIGHT","RIGHT","j","1","true","","","",""
"","html-keyboard-response","79","1282164","0.0-130.0","ydobps06","1440","900","","","","","","","","","","","null","+","Fixation - short","","null","","","","","","","","","","","","","","","","",""
"","html-keyboard-response","80","1282507","0.0-131.0","ydobps06","","","","","","","","","","","","","343","rpw","Cue practice","","j","","Practice","5","13","false","false","false","both pre & post","LEFT","LEFT","f","0","true","","","",""
"","call-function","81","1282508","0.0-133.0-0.0","ydobps06","","","","","","","","","","","","","","","","","","","","","","","","","","","","","","","","","",""
"","html-keyboard-response","82","1282810","0.0-133.0-1.0","ydobps06","1440","900","","","","","","","","","","","null","Wrong","Feedback","","null","","","","","","","","","","","","","","","","",""
"","call-function","83","1282810","0.0-133.0-2.0","ydobps06","","","","","","","","","","","","","","","","","","","","","","","","","","","","","","","","","",""
"","html-keyboard-response","84","1283561","0.0-134.0","ydobps06","1440","900","","","","","","","","","","","null","+","Fixation - short","","null","","","","","","","","","","","","","","","","",""
"","html-keyboard-response","85","1284150","0.0-135.0","ydobps06","","","","","","","","","","","","","588","cmj","Cue practice","","j","","Practice","6","13","false","false","true","both pre & post","RIGHT","RIGHT","j","1","true","","","",""
"","html-keyboard-response","86","1284902","0.0-138.0","ydobps06","1440","900","","","","","","","","","","","null","+","Fixation - short","","null","","","","","","","","","","","","","","","","",""
"","html-keyboard-response","87","1285403","0.0-139.0","ydobps06","","","","","","","","","","","","","501","cmj","Cue practice","","j","","Practice","7","13","false","false","true","both pre & post","RIGHT","RIGHT","j","1","true","","","",""
"","html-keyboard-response","88","1286155","0.0-142.0","ydobps06","1440","900","","","","","","","","","","","null","+","Fixation - short","","null","","","","","","","","","","","","","","","","",""
"","html-keyboard-response","89","1286579","0.0-143.0","ydobps06","","","","","","","","","","","","","424","cmj","Cue practice","","j","","Practice","8","13","false","false","true","both pre & post","RIGHT","RIGHT","j","1","true","","","",""
"","html-keyboard-response","90","1287332","0.0-146.0","ydobps06","1440","900","","","","","","","","","","","null","+","Fixation - short","","null","","","","","","","","","","","","","","","","",""
"","html-keyboard-response","91","1287963","0.0-147.0","ydobps06","","","","","","","","","","","","","631","rpw","Cue practice","","j","","Practice","9","13","false","false","true","both pre & post","LEFT","RIGHT","j","1","false","","","",""
"","html-keyboard-response","92","1288716","0.0-150.0","ydobps06","1440","900","","","","","","","","","","","null","+","Fixation - short","","null","","","","","","","","","","","","","","","","",""
"","html-keyboard-response","93","1289083","0.0-151.0","ydobps06","","","","","","","","","","","","","367","cmj","Cue practice","","j","","Practice","10","13","false","false","false","both pre & post","RIGHT","LEFT","f","0","false","","","",""
"","call-function","94","1289084","0.0-153.0-0.0","ydobps06","","","","","","","","","","","","","","","","","","","","","","","","","","","","","","","","","",""
"","html-keyboard-response","95","1289386","0.0-153.0-1.0","ydobps06","1440","900","","","","","","","","","","","null","Wrong","Feedback","","null","","","","","","","","","","","","","","","","",""
"","call-function","96","1289386","0.0-153.0-2.0","ydobps06","","","","","","","","","","","","","","","","","","","","","","","","","","","","","","","","","",""
"","html-keyboard-response","97","1290138","0.0-154.0","ydobps06","1440","900","","","","","","","","","","","null","+","Fixation - short","","null","","","","","","","","","","","","","","","","",""
"","html-keyboard-response","98","1291267","0.0-155.0","ydobps06","","","","","","","","","","","","","1128","rpw","Cue practice","","j","","Practice","11","13","false","false","true","both pre & post","LEFT","RIGHT","j","1","false","","","",""
"","html-keyboard-response","99","1292019","0.0-158.0","ydobps06","1440","900","","","","","","","","","","","null","+","Fixation - short","","null","","","","","","","","","","","","","","","","",""
"","html-keyboard-response","100","1292561","0.0-159.0","ydobps06","","","","","","","","","","","","","542","rpw","Cue practice","","f","","Practice","12","13","false","false","false","both pre & post","LEFT","LEFT","f","1","true","","","",""
"","html-keyboard-response","101","1293314","0.0-162.0","ydobps06","1440","900","","","","","","","","","","","null","+","Fixation - short","","null","","","","","","","","","","","","","","","","",""
"","canvas-keyboard-response","102","1294588","0.0-163.0","ydobps06","","","","","","","","","","","","","null","Cue","Cue","","null","","Practice","12","","","false","","","","","","","","","","",""
"","html-keyboard-response","103","1295340","0.0-164.0","ydobps06","1440","900","","","","","","","","","","","null","+","Fixation - short","","null","","","","","","","","","","","","","","","","",""
"","html-keyboard-response","104","1296117","0.0-165.0","ydobps06","","","","","","","","","","","","","776","rpw","Cue practice","","j","","Practice","13","13","true","false","true","both pre & post","LEFT","RIGHT","j","1","false","","","",""
"","html-keyboard-response","105","1296869","0.0-168.0","ydobps06","1440","900","","","","","","","","","","","null","+","Fixation - short","","null","","","","","","","","","","","","","","","","",""
"","html-keyboard-response","106","1297459","0.0-169.0","ydobps06","","","","","","","","","","","","","589","cmj","Cue practice","","j","","Practice","14","13","true","false","true","both pre & post","RIGHT","RIGHT","j","1","true","","","",""
"","html-keyboard-response","107","1298212","0.0-172.0","ydobps06","1440","900","","","","","","","","","","","null","+","Fixation - short","","null","","","","","","","","","","","","","","","","",""
"","html-keyboard-response","108","1298771","0.0-173.0","ydobps06","","","","","","","","","","","","","559","rpw","Cue practice","","f","","Practice","15","13","true","false","false","both pre & post","LEFT","LEFT","f","1","true","","","",""
"","html-keyboard-response","109","1299523","0.0-176.0","ydobps06","1440","900","","","","","","","","","","","null","+","Fixation - short","","null","","","","","","","","","","","","","","","","",""
"","html-keyboard-response","110","1300427","0.0-177.0","ydobps06","","","","","","","","","","","","","903","cmj","Inducer practice","","j","","Practice","","","","true","","","","","j","1","","false","RIGHT","",""
"","html-keyboard-response","111","1301180","0.0-180.0","ydobps06","1440","900","","","","","","","","","","","null","+","Fixation - short","","null","","","","","","","","","","","","","","","","",""
"","instructions","112","1312485","0.0-181.0","ydobps06","","","","","","","","","","","","[{""page_index"":0,""viewing_time"":11305}]","11305","End practice","End of practice","","","","","","","","","","","","","","","","","","",""
"","html-keyboard-response","113","1315490","0.0-182.0","ydobps06","1440","900","","","","","","","","","","","null","+","Fixation - long","","null","","","","","","","","","","","","","","","","",""
"","html-keyboard-response","114","1322445","0.0-183.0","ydobps06","","","","","","","","","","","","","6955","If guf press RIGHT | If zpl press LEFT","Inducer instructions",""," ","","0","","","","","","","","","","","","","","",""
"","html-keyboard-response","115","1323198","0.0-184.0","ydobps06","1440","900","","","","","","","","","","","null","+","Fixation - short","","null","","","","","","","","","","","","","","","","",""
"","html-keyboard-response","116","1323618","0.0-185.0","ydobps06","","","","","","","","","","","","","420","guf","Diagnostic trial","","j","","0","0","8","false","false","true","both pre & post","RIGHT","RIGHT","j","1","true","","","",""
"","html-keyboard-response","117","1324370","0.0-188.0","ydobps06","1440","900","","","","","","","","","","","null","+","Fixation - short","","null","","","","","","","","","","","","","","","","",""
"","html-keyboard-response","118","1324826","0.0-189.0","ydobps06","","","","","","","","","","","","","455","zpl","Diagnostic trial","","j","","0","1","8","false","false","true","both pre & post","LEFT","RIGHT","j","1","false","","","",""
"","html-keyboard-response","119","1325578","0.0-192.0","ydobps06","1440","900","","","","","","","","","","","null","+","Fixation - short","","null","","","","","","","","","","","","","","","","",""
"","html-keyboard-response","120","1326066","0.0-193.0","ydobps06","","","","","","","","","","","","","487","zpl","Diagnostic trial","","f","","0","2","8","false","false","false","both pre & post","LEFT","LEFT","f","1","true","","","",""
"","html-keyboard-response","121","1326818","0.0-196.0","ydobps06","1440","900","","","","","","","","","","","null","+","Fixation - short","","null","","","","","","","","","","","","","","","","",""
"","html-keyboard-response","122","1327330","0.0-197.0","ydobps06","","","","","","","","","","","","","511","guf","Diagnostic trial","","j","","0","3","8","false","false","false","both pre & post","RIGHT","LEFT","f","0","false","","","",""
"","call-function","123","1327330","0.0-199.0-0.0","ydobps06","","","","","","","","","","","","","","","","","","","","","","","","","","","","","","","","","",""
"","html-keyboard-response","124","1327631","0.0-199.0-1.0","ydobps06","1440","900","","","","","","","","","","","null","Wrong","Feedback","","null","","","","","","","","","","","","","","","","",""
"","call-function","125","1327632","0.0-199.0-2.0","ydobps06","","","","","","","","","","","","","","","","","","","","","","","","","","","","","","","","","",""
"","html-keyboard-response","126","1328383","0.0-200.0","ydobps06","1440","900","","","","","","","","","","","null","+","Fixation - short","","null","","","","","","","","","","","","","","","","",""
"","html-keyboard-response","127","1328826","0.0-201.0","ydobps06","","","","","","","","","","","","","442","guf","Diagnostic trial","","j","","0","4","8","false","false","false","both pre & post","RIGHT","LEFT","f","0","false","","","",""
"","call-function","128","1328826","0.0-203.0-0.0","ydobps06","","","","","","","","","","","","","","","","","","","","","","","","","","","","","","","","","",""
"","html-keyboard-response","129","1329128","0.0-203.0-1.0","ydobps06","1440","900","","","","","","","","","","","null","Wrong","Feedback","","null","","","","","","","","","","","","","","","","",""
"","call-function","130","1329129","0.0-203.0-2.0","ydobps06","","","","","","","","","","","","","","","","","","","","","","","","","","","","","","","","","",""
"","html-keyboard-response","131","1329880","0.0-204.0","ydobps06","1440","900","","","","","","","","","","","null","+","Fixation - short","","null","","","","","","","","","","","","","","","","",""
"","html-keyboard-response","132","1330377","0.0-205.0","ydobps06","","","","","","","","","","","","","496","guf","Diagnostic trial","","f","","0","5","8","false","false","true","both pre & post","RIGHT","RIGHT","j","0","true","","","",""
"","call-function","133","1330377","0.0-207.0-0.0","ydobps06","","","","","","","","","","","","","","","","","","","","","","","","","","","","","","","","","",""
"","html-keyboard-response","134","1330679","0.0-207.0-1.0","ydobps06","1440","900","","","","","","","","","","","null","Wrong","Feedback","","null","","","","","","","","","","","","","","","","",""
"","call-function","135","1330680","0.0-207.0-2.0","ydobps06","","","","","","","","","","","","","","","","","","","","","","","","","","","","","","","","","",""
"","html-keyboard-response","136","1331432","0.0-208.0","ydobps06","1440","900","","","","","","","","","","","null","+","Fixation - short","","null","","","","","","","","","","","","","","","","",""
"","html-keyboard-response","137","1332313","0.0-209.0","ydobps06","","","","","","","","","","","","","881","guf","Diagnostic trial","","f","","0","6","8","false","false","false","both pre & post","RIGHT","LEFT","f","1","false","","","",""
"","html-keyboard-response","138","1333066","0.0-212.0","ydobps06","1440","900","","","","","","","","","","","null","+","Fixation - short","","null","","","","","","","","","","","","","","","","",""
"","html-keyboard-response","139","1333492","0.0-213.0","ydobps06","","","","","","","","","","","","","425","guf","Diagnostic trial","","f","","0","7","8","false","false","false","both pre & post","RIGHT","LEFT","f","1","false","","","",""
"","html-keyboard-response","140","1334244","0.0-216.0","ydobps06","1440","900","","","","","","","","","","","null","+","Fixation - short","","null","","","","","","","","","","","","","","","","",""
"","canvas-keyboard-response","141","1335496","0.0-217.0","ydobps06","","","","","","","","","","","","","null","Cue","Cue","","null","","0","7","","","false","","","","","","","","","","",""
"","html-keyboard-response","142","1336249","0.0-218.0","ydobps06","1440","900","","","","","","","","","","","null","+","Fixation - short","","null","","","","","","","","","","","","","","","","",""
"","html-keyboard-response","143","1336977","0.0-219.0","ydobps06","","","","","","","","","","","","","728","zpl","Diagnostic trial","","f","","0","8","8","true","false","false","both pre & post","LEFT","LEFT","f","1","true","","","",""
"","html-keyboard-response","144","1337730","0.0-222.0","ydobps06","1440","900","","","","","","","","","","","null","+","Fixation - short","","null","","","","","","","","","","","","","","","","",""
"","html-keyboard-response","145","1338929","0.0-223.0","ydobps06","","","","","","","","","","","","","1198","guf","Diagnostic trial","","j","","0","9","8","true","false","true","both pre & post","RIGHT","RIGHT","j","1","true","","","",""
"","html-keyboard-response","146","1339681","0.0-226.0","ydobps06","1440","900","","","","","","","","","","","null","+","Fixation - short","","null","","","","","","","","","","","","","","","","",""
"","html-keyboard-response","147","1340217","0.0-227.0","ydobps06","","","","","","","","","","","","","535","zpl","Diagnostic trial","","j","","0","10","8","true","false","true","both pre & post","LEFT","RIGHT","j","1","false","","","",""
"","html-keyboard-response","148","1340969","0.0-230.0","ydobps06","1440","900","","","","","","","","","","","null","+","Fixation - short","","null","","","","","","","","","","","","","","","","",""
"","html-keyboard-response","149","1341497","0.0-231.0","ydobps06","","","","","","","","","","","","","527","guf","Diagnostic trial","","f","","0","11","8","true","false","false","both pre & post","RIGHT","LEFT","f","1","false","","","",""
"","html-keyboard-response","150","1342248","0.0-234.0","ydobps06","1440","900","","","","","","","","","","","null","+","Fixation - short","","null","","","","","","","","","","","","","","","","",""
"","html-keyboard-response","151","1343409","0.0-235.0","ydobps06","","","","","","","","","","","","","1160","guf","Inducer trial","","j","","0","","","","true","","","","","j","1","","false","RIGHT","",""
"","html-keyboard-response","152","1344161","0.0-238.0","ydobps06","1440","900","","","","","","","","","","","null","+","Fixation - short","","null","","","","","","","","","","","","","","","","",""
"","html-keyboard-response","153","1351715","0.0-239.0","ydobps06","","","","","","","","","","","","","7554","If glp press RIGHT | If oez press LEFT","Inducer instructions",""," ","","1","","","","","","","","","","","","","","",""
"","html-keyboard-response","154","1352467","0.0-240.0","ydobps06","1440","900","","","","","","","","","","","null","+","Fixation - short","","null","","","","","","","","","","","","","","","","",""
"","html-keyboard-response","155","1352945","0.0-241.0","ydobps06","","","","","","","","","","","","","477","glp","Diagnostic trial","","j","","1","0","4","false","false","true","both pre & post","RIGHT","RIGHT","j","1","true","","","",""
"","html-keyboard-response","156","1353697","0.0-244.0","ydobps06","1440","900","","","","","","","","","","","null","+","Fixation - short","","null","","","","","","","","","","","","","","","","",""
"","html-keyboard-response","157","1354232","0.0-245.0","ydobps06","","","","","","","","","","","","","534","oez","Diagnostic trial","","f","","1","1","4","false","false","false","both pre & post","LEFT","LEFT","f","1","true","","","",""
"","html-keyboard-response","158","1354984","0.0-248.0","ydobps06","1440","900","","","","","","","","","","","null","+","Fixation - short","","null","","","","","","","","","","","","","","","","",""
"","html-keyboard-response","159","1355489","0.0-249.0","ydobps06","","","","","","","","","","","","","504","oez","Diagnostic trial","","f","","1","2","4","false","false","false","both pre & post","LEFT","LEFT","f","1","true","","","",""
"","html-keyboard-response","160","1356241","0.0-252.0","ydobps06","1440","900","","","","","","","","","","","null","+","Fixation - short","","null","","","","","","","","","","","","","","","","",""
"","html-keyboard-response","161","1356840","0.0-253.0","ydobps06","","","","","","","","","","","","","599","oez","Diagnostic trial","","j","","1","3","4","false","false","true","both pre & post","LEFT","RIGHT","j","1","false","","","",""
"","html-keyboard-response","162","1357593","0.0-256.0","ydobps06","1440","900","","","","","","","","","","","null","+","Fixation - short","","null","","","","","","","","","","","","","","","","",""
"","canvas-keyboard-response","163","1358846","0.0-257.0","ydobps06","","","","","","","","","","","","","null","Cue","Cue","","null","","1","3","","","false","","","","","","","","","","",""
"","html-keyboard-response","164","1359598","0.0-258.0","ydobps06","1440","900","","","","","","","","","","","null","+","Fixation - short","","null","","","","","","","","","","","","","","","","",""
"","html-keyboard-response","165","1360414","0.0-259.0","ydobps06","","","","","","","","","","","","","815","oez","Diagnostic trial","","j","","1","4","4","true","false","true","both pre & post","LEFT","RIGHT","j","1","false","","","",""
"","html-keyboard-response","166","1361167","0.0-262.0","ydobps06","1440","900","","","","","","","","","","","null","+","Fixation - short","","null","","","","","","","","","","","","","","","","",""
"","html-keyboard-response","167","1361747","0.0-263.0","ydobps06","","","","","","","","","","","","","579","glp","Diagnostic trial","","j","","1","5","4","true","false","true","both pre & post","RIGHT","RIGHT","j","1","true","","","",""
"","html-keyboard-response","168","1362498","0.0-266.0","ydobps06","1440","900","","","","","","","","","","","null","+","Fixation - short","","null","","","","","","","","","","","","","","","","",""
"","html-keyboard-response","169","1363200","0.0-267.0","ydobps06","","","","","","","","","","","","","701","oez","Diagnostic trial","","j","","1","6","4","true","false","true","both pre & post","LEFT","RIGHT","j","1","false","","","",""
"","html-keyboard-response","170","1363952","0.0-270.0","ydobps06","1440","900","","","","","","","","","","","null","+","Fixation - short","","null","","","","","","","","","","","","","","","","",""
"","html-keyboard-response","171","1364456","0.0-271.0","ydobps06","","","","","","","","","","","","","504","glp","Diagnostic trial","","j","","1","7","4","true","false","true","both pre & post","RIGHT","RIGHT","j","1","true","","","",""
"","html-keyboard-response","172","1365209","0.0-274.0","ydobps06","1440","900","","","","","","","","","","","null","+","Fixation - short","","null","","","","","","","","","","","","","","","","",""
"","html-keyboard-response","173","1365768","0.0-275.0","ydobps06","","","","","","","","","","","","","559","oez","Inducer trial","","f","","1","","","","true","","","","","f","1","","false","LEFT","",""
"","html-keyboard-response","174","1366521","0.0-278.0","ydobps06","1440","900","","","","","","","","","","","null","+","Fixation - short","","null","","","","","","","","","","","","","","","","",""
"","html-keyboard-response","175","1369958","0.0-279.0","ydobps06","","","","","","","","","","","","","3437","If ecl press RIGHT | If fja press LEFT","Inducer instructions",""," ","","2","","","","","","","","","","","","","","",""
"","html-keyboard-response","176","1370711","0.0-280.0","ydobps06","1440","900","","","","","","","","","","","null","+","Fixation - short","","null","","","","","","","","","","","","","","","","",""
"","html-keyboard-response","177","1371527","0.0-281.0","ydobps06","","","","","","","","","","","","","816","fja","Diagnostic trial","","j","","2","0","4","false","false","true","both pre & post","LEFT","RIGHT","j","1","false","","","",""
"","html-keyboard-response","178","1372280","0.0-284.0","ydobps06","1440","900","","","","","","","","","","","null","+","Fixation - short","","null","","","","","","","","","","","","","","","","",""
"","html-keyboard-response","179","1372802","0.0-285.0","ydobps06","","","","","","","","","","","","","522","fja","Diagnostic trial","","f","","2","1","4","false","false","false","both pre & post","LEFT","LEFT","f","1","true","","","",""
"","html-keyboard-response","180","1373555","0.0-288.0","ydobps06","1440","900","","","","","","","","","","","null","+","Fixation - short","","null","","","","","","","","","","","","","","","","",""
"","html-keyboard-response","181","1374000","0.0-289.0","ydobps06","","","","","","","","","","","","","444","ecl","Diagnostic trial","","j","","2","2","4","false","false","true","both pre & post","RIGHT","RIGHT","j","1","true","","","",""
"","html-keyboard-response","182","1374751","0.0-292.0","ydobps06","1440","900","","","","","","","","","","","null","+","Fixation - short","","null","","","","","","","","","","","","","","","","",""
"","html-keyboard-response","183","1375408","0.0-293.0","ydobps06","","","","","","","","","","","","","656","ecl","Diagnostic trial","","f","","2","3","4","false","false","false","both pre & post","RIGHT","LEFT","f","1","false","","","",""
"","html-keyboard-response","184","1376160","0.0-296.0","ydobps06","1440","900","","","","","","","","","","","null","+","Fixation - short","","null","","","","","","","","","","","","","","","","",""
"","canvas-keyboard-response","185","1377413","0.0-297.0","ydobps06","","","","","","","","","","","","","null","Cue","Cue","","null","","2","3","","","false","","","","","","","","","","",""
"","html-keyboard-response","186","1378165","0.0-298.0","ydobps06","1440","900","","","","","","","","","","","null","+","Fixation - short","","null","","","","","","","","","","","","","","","","",""
"","html-keyboard-response","187","1378887","0.0-299.0","ydobps06","","","","","","","","","","","","","722","fja","Diagnostic trial","","f","","2","4","4","true","false","false","both pre & post","LEFT","LEFT","f","1","true","","","",""
"","html-keyboard-response","188","1379640","0.0-302.0","ydobps06","1440","900","","","","","","","","","","","null","+","Fixation - short","","null","","","","","","","","","","","","","","","","",""
"","html-keyboard-response","189","1380198","0.0-303.0","ydobps06","","","","","","","","","","","","","557","fja","Diagnostic trial","","f","","2","5","4","true","false","false","both pre & post","LEFT","LEFT","f","1","true","","","",""
"","html-keyboard-response","190","1380949","0.0-306.0","ydobps06","1440","900","","","","","","","","","","","null","+","Fixation - short","","null","","","","","","","","","","","","","","","","",""
"","html-keyboard-response","191","1381687","0.0-307.0","ydobps06","","","","","","","","","","","","","738","ecl","Diagnostic trial","","f","","2","6","4","true","false","false","both pre & post","RIGHT","LEFT","f","1","false","","","",""
"","html-keyboard-response","192","1382440","0.0-310.0","ydobps06","1440","900","","","","","","","","","","","null","+","Fixation - short","","null","","","","","","","","","","","","","","","","",""
"","html-keyboard-response","193","1383241","0.0-311.0","ydobps06","","","","","","","","","","","","","801","fja","Diagnostic trial","","j","","2","7","4","true","false","true","both pre & post","LEFT","RIGHT","j","1","false","","","",""
"","html-keyboard-response","194","1383993","0.0-314.0","ydobps06","1440","900","","","","","","","","","","","null","+","Fixation - short","","null","","","","","","","","","","","","","","","","",""
"","html-keyboard-response","195","1384925","0.0-315.0","ydobps06","","","","","","","","","","","","","932","fja","Inducer trial","","f","","2","","","","true","","","","","f","1","","false","LEFT","",""
"","html-keyboard-response","196","1385678","0.0-318.0","ydobps06","1440","900","","","","","","","","","","","null","+","Fixation - short","","null","","","","","","","","","","","","","","","","",""
"","html-keyboard-response","197","1388142","0.0-319.0","ydobps06","","","","","","","","","","","","","2464","If ydi press RIGHT | If quy press LEFT","Inducer instructions",""," ","","3","","","","","","","","","","","","","","",""
"","html-keyboard-response","198","1388893","0.0-320.0","ydobps06","1440","900","","","","","","","","","","","null","+","Fixation - short","","null","","","","","","","","","","","","","","","","",""
"","html-keyboard-response","199","1389645","0.0-321.0","ydobps06","","","","","","","","","","","","","751","ydi","Diagnostic trial","","j","","3","0","8","false","false","true","both pre & post","RIGHT","RIGHT","j","1","true","","","",""
"","html-keyboard-response","200","1390397","0.0-324.0","ydobps06","1440","900","","","","","","","","","","","null","+","Fixation - short","","null","","","","","","","","","","","","","","","","",""
"","html-keyboard-response","201","1391037","0.0-325.0","ydobps06","","","","","","","","","","","","","639","ydi","Diagnostic trial","","f","","3","1","8","false","false","false","both pre & post","RIGHT","LEFT","f","1","false","","","",""
"","html-keyboard-response","202","1391789","0.0-328.0","ydobps06","1440","900","","","","","","","","","","","null","+","Fixation - short","","null","","","","","","","","","","","","","","","","",""
"","html-keyboard-response","203","1392407","0.0-329.0","ydobps06","","","","","","","","","","","","","617","quy","Diagnostic trial","","j","","3","2","8","false","false","true","both pre & post","LEFT","RIGHT","j","1","false","","","",""
"","html-keyboard-response","204","1393159","0.0-332.0","ydobps06","1440","900","","","","","","","","","","","null","+","Fixation - short","","null","","","","","","","","","","","","","","","","",""
"","html-keyboard-response","205","1393606","0.0-333.0","ydobps06","","","","","","","","","","","","","446","quy","Diagnostic trial","","j","","3","3","8","false","false","true","both pre & post","LEFT","RIGHT","j","1","false","","","",""
"","html-keyboard-response","206","1394359","0.0-336.0","ydobps06","1440","900","","","","","","","","","","","null","+","Fixation - short","","null","","","","","","","","","","","","","","","","",""
"","html-keyboard-response","207","1394815","0.0-337.0","ydobps06","","","","","","","","","","","","","456","ydi","Diagnostic trial","","f","","3","4","8","false","false","false","both pre & post","RIGHT","LEFT","f","1","false","","","",""
"","html-keyboard-response","208","1395566","0.0-340.0","ydobps06","1440","900","","","","","","","","","","","null","+","Fixation - short","","null","","","","","","","","","","","","","","","","",""
"","html-keyboard-response","209","1396287","0.0-341.0","ydobps06","","","","","","","","","","","","","720","ydi","Diagnostic trial","","j","","3","5","8","false","false","true","both pre & post","RIGHT","RIGHT","j","1","true","","","",""
"","html-keyboard-response","210","1397039","0.0-344.0","ydobps06","1440","900","","","","","","","","","","","null","+","Fixation - short","","null","","","","","","","","","","","","","","","","",""
"","html-keyboard-response","211","1397511","0.0-345.0","ydobps06","","","","","","","","","","","","","471","quy","Diagnostic trial","","f","","3","6","8","false","false","false","both pre & post","LEFT","LEFT","f","1","true","","","",""
"","html-keyboard-response","212","1398263","0.0-348.0","ydobps06","1440","900","","","","","","","","","","","null","+","Fixation - short","","null","","","","","","","","","","","","","","","","",""
"","html-keyboard-response","213","1398703","0.0-349.0","ydobps06","","","","","","","","","","","","","439","ydi","Diagnostic trial","","j","","3","7","8","false","false","true","both pre & post","RIGHT","RIGHT","j","1","true","","","",""
"","html-keyboard-response","214","1399455","0.0-352.0","ydobps06","1440","900","","","","","","","","","","","null","+","Fixation - short","","null","","","","","","","","","","","","","","","","",""
"","canvas-keyboard-response","215","1400709","0.0-353.0","ydobps06","","","","","","","","","","","","","null","Cue","Cue","","null","","3","7","","","false","","","","","","","","","","",""
"","html-keyboard-response","216","1401461","0.0-354.0","ydobps06","1440","900","","","","","","","","","","","null","+","Fixation - short","","null","","","","","","","","","","","","","","","","",""
"","html-keyboard-response","217","1402165","0.0-355.0","ydobps06","","","","","","","","","","","","","703","ydi","Diagnostic trial","","f","","3","8","8","true","false","false","both pre & post","RIGHT","LEFT","f","1","false","","","",""
"","html-keyboard-response","218","1402916","0.0-358.0","ydobps06","1440","900","","","","","","","","","","","null","+","Fixation - short","","null","","","","","","","","","","","","","","","","",""
"","html-keyboard-response","219","1403478","0.0-359.0","ydobps06","","","","","","","","","","","","","562","ydi","Diagnostic trial","","j","","3","9","8","true","false","true","both pre & post","RIGHT","RIGHT","j","1","true","","","",""
"","html-keyboard-response","220","1404230","0.0-362.0","ydobps06","1440","900","","","","","","","","","","","null","+","Fixation - short","","null","","","","","","","","","","","","","","","","",""
"","html-keyboard-response","221","1404687","0.0-363.0","ydobps06","","","","","","","","","","","","","457","ydi","Diagnostic trial","","f","","3","10","8","true","false","false","both pre & post","RIGHT","LEFT","f","1","false","","","",""
"","html-keyboard-response","222","1405439","0.0-366.0","ydobps06","1440","900","","","","","","","","","","","null","+","Fixation - short","","null","","","","","","","","","","","","","","","","",""
"","html-keyboard-response","223","1406565","0.0-367.0","ydobps06","","","","","","","","","","","","","1125","quy","Diagnostic trial","","j","","3","11","8","true","false","true","both pre & post","LEFT","RIGHT","j","1","false","","","",""
"","html-keyboard-response","224","1407317","0.0-370.0","ydobps06","1440","900","","","","","","","","","","","null","+","Fixation - short","","null","","","","","","","","","","","","","","","","",""
"","html-keyboard-response","225","1408156","0.0-371.0","ydobps06","","","","","","","","","","","","","839","quy","Inducer trial","","f","","3","","","","true","","","","","f","1","","false","LEFT","",""
"","html-keyboard-response","226","1408909","0.0-374.0","ydobps06","1440","900","","","","","","","","","","","null","+","Fixation - short","","null","","","","","","","","","","","","","","","","",""
"","html-keyboard-response","227","1411092","0.0-375.0","ydobps06","","","","","","","","","","","","","2183","If snx press RIGHT | If pte press LEFT","Inducer instructions",""," ","","4","","","","","","","","","","","","","","",""
"","html-keyboard-response","228","1411844","0.0-376.0","ydobps06","1440","900","","","","","","","","","","","null","+","Fixation - short","","null","","","","","","","","","","","","","","","","",""
"","html-keyboard-response","229","1412964","0.0-377.0","ydobps06","","","","","","","","","","","","","1119","pte","Diagnostic trial","","j","","4","0","5","false","false","true","both pre & post","LEFT","RIGHT","j","1","false","","","",""
"","html-keyboard-response","230","1413717","0.0-380.0","ydobps06","1440","900","","","","","","","","","","","null","+","Fixation - short","","null","","","","","","","","","","","","","","","","",""
"","html-keyboard-response","231","1414116","0.0-381.0","ydobps06","","","","","","","","","","","","","399","pte","Diagnostic trial","","j","","4","1","5","false","false","true","both pre & post","LEFT","RIGHT","j","1","false","","","",""
"","html-keyboard-response","232","1414868","0.0-384.0","ydobps06","1440","900","","","","","","","","","","","null","+","Fixation - short","","null","","","","","","","","","","","","","","","","",""
"","html-keyboard-response","233","1415312","0.0-385.0","ydobps06","","","","","","","","","","","","","444","snx","Diagnostic trial","","f","","4","2","5","false","false","false","both pre & post","RIGHT","LEFT","f","1","false","","","",""
"","html-keyboard-response","234","1416064","0.0-388.0","ydobps06","1440","900","","","","","","","","","","","null","+","Fixation - short","","null","","","","","","","","","","","","","","","","",""
"","html-keyboard-response","235","1416654","0.0-389.0","ydobps06","","","","","","","","","","","","","589","pte","Diagnostic trial","","f","","4","3","5","false","false","false","both pre & post","LEFT","LEFT","f","1","true","","","",""
"","html-keyboard-response","236","1417407","0.0-392.0","ydobps06","1440","900","","","","","","","","","","","null","+","Fixation - short","","null","","","","","","","","","","","","","","","","",""
"","html-keyboard-response","237","1417886","0.0-393.0","ydobps06","","","","","","","","","","","","","479","snx","Diagnostic trial","","f","","4","4","5","false","false","false","both pre & post","RIGHT","LEFT","f","1","false","","","",""
"","html-keyboard-response","238","1418638","0.0-396.0","ydobps06","1440","900","","","","","","","","","","","null","+","Fixation - short","","null","","","","","","","","","","","","","","","","",""
"","canvas-keyboard-response","239","1419891","0.0-397.0","ydobps06","","","","","","","","","","","","","null","Cue","Cue","","null","","4","4","","","false","","","","","","","","","","",""
"","html-keyboard-response","240","1420643","0.0-398.0","ydobps06","1440","900","","","","","","","","","","","null","+","Fixation - short","","null","","","","","","","","","","","","","","","","",""
"","html-keyboard-response","241","1421214","0.0-399.0","ydobps06","","","","","","","","","","","","","570","snx","Diagnostic trial","","j","","4","5","5","true","false","true","both pre & post","RIGHT","RIGHT","j","1","true","","","",""
"","html-keyboard-response","242","1421966","0.0-402.0","ydobps06","1440","900","","","","","","","","","","","null","+","Fixation - short","","null","","","","","","","","","","","","","","","","",""
"","html-keyboard-response","243","1422854","0.0-403.0","ydobps06","","","","","","","","","","","","","887","pte","Inducer trial","","f","","4","","","","true","","","","","f","1","","false","LEFT","",""
"","html-keyboard-response","244","1423606","0.0-406.0","ydobps06","1440","900","","","","","","","","","","","null","+","Fixation - short","","null","","","","","","","","","","","","","","","","",""
"","html-keyboard-response","245","1428671","0.0-407.0","ydobps06","","","","","","","","","","","","","5064","If hhd press RIGHT | If vbt press LEFT","Inducer instructions",""," ","","5","","","","","","","","","","","","","","",""
"","html-keyboard-response","246","1429423","0.0-408.0","ydobps06","1440","900","","","","","","","","","","","null","+","Fixation - short","","null","","","","","","","","","","","","","","","","",""
"","html-keyboard-response","247","1430396","0.0-409.0","ydobps06","","","","","","","","","","","","","972","vbt","Diagnostic trial","","f","","5","0","4","false","false","false","both pre & post","LEFT","LEFT","f","1","true","","","",""
"","html-keyboard-response","248","1431149","0.0-412.0","ydobps06","1440","900","","","","","","","","","","","null","+","Fixation - short","","null","","","","","","","","","","","","","","","","",""
"","html-keyboard-response","249","1431765","0.0-413.0","ydobps06","","","","","","","","","","","","","616","hhd","Diagnostic trial","","f","","5","1","4","false","false","false","both pre & post","RIGHT","LEFT","f","1","false","","","",""
"","html-keyboard-response","250","1432516","0.0-416.0","ydobps06","1440","900","","","","","","","","","","","null","+","Fixation - short","","null","","","","","","","","","","","","","","","","",""
"","html-keyboard-response","251","1433005","0.0-417.0","ydobps06","","","","","","","","","","","","","489","vbt","Diagnostic trial","","f","","5","2","4","false","false","false","both pre & post","LEFT","LEFT","f","1","true","","","",""
"","html-keyboard-response","252","1433758","0.0-420.0","ydobps06","1440","900","","","","","","","","","","","null","+","Fixation - short","","null","","","","","","","","","","","","","","","","",""
"","html-keyboard-response","253","1434141","0.0-421.0","ydobps06","","","","","","","","","","","","","383","hhd","Diagnostic trial","","j","","5","3","4","false","false","true","both pre & post","RIGHT","RIGHT","j","1","true","","","",""
"","html-keyboard-response","254","1434894","0.0-424.0","ydobps06","1440","900","","","","","","","","","","","null","+","Fixation - short","","null","","","","","","","","","","","","","","","","",""
"","canvas-keyboard-response","255","1436146","0.0-425.0","ydobps06","","","","","","","","","","","","","null","Cue","Cue","","null","","5","3","","","false","","","","","","","","","","",""
"","html-keyboard-response","256","1436899","0.0-426.0","ydobps06","1440","900","","","","","","","","","","","null","+","Fixation - short","","null","","","","","","","","","","","","","","","","",""
"","html-keyboard-response","257","1437557","0.0-427.0","ydobps06","","","","","","","","","","","","","658","hhd","Diagnostic trial","","j","","5","4","4","true","false","true","both pre & post","RIGHT","RIGHT","j","1","true","","","",""
"","html-keyboard-response","258","1438310","0.0-430.0","ydobps06","1440","900","","","","","","","","","","","null","+","Fixation - short","","null","","","","","","","","","","","","","","","","",""
"","html-keyboard-response","259","1438752","0.0-431.0","ydobps06","","","","","","","","","","","","","441","vbt","Diagnostic trial","","f","","5","5","4","true","false","false","both pre & post","LEFT","LEFT","f","1","true","","","",""
"","html-keyboard-response","260","1439504","0.0-434.0","ydobps06","1440","900","","","","","","","","","","","null","+","Fixation - short","","null","","","","","","","","","","","","","","","","",""
"","html-keyboard-response","261","1440173","0.0-435.0","ydobps06","","","","","","","","","","","","","668","hhd","Inducer trial","","j","","5","","","","true","","","","","j","1","","false","RIGHT","",""
"","html-keyboard-response","262","1440925","0.0-438.0","ydobps06","1440","900","","","","","","","","","","","null","+","Fixation - short","","null","","","","","","","","","","","","","","","","",""
"","html-keyboard-response","263","1443757","0.0-439.0","ydobps06","","","","","","","","","","","","","2831","If ume press RIGHT | If prg press LEFT","Inducer instructions",""," ","","6","","","","","","","","","","","","","","",""
"","html-keyboard-response","264","1444509","0.0-440.0","ydobps06","1440","900","","","","","","","","","","","null","+","Fixation - short","","null","","","","","","","","","","","","","","","","",""
"","html-keyboard-response","265","1445181","0.0-441.0","ydobps06","","","","","","","","","","","","","671","ume","Diagnostic trial","","f","","6","0","12","false","false","false","both pre & post","RIGHT","LEFT","f","1","false","","","",""
"","html-keyboard-response","266","1445933","0.0-444.0","ydobps06","1440","900","","","","","","","","","","","null","+","Fixation - short","","null","","","","","","","","","","","","","","","","",""
"","html-keyboard-response","267","1446445","0.0-445.0","ydobps06","","","","","","","","","","","","","512","prg","Diagnostic trial","","j","","6","1","12","false","false","true","both pre & post","LEFT","RIGHT","j","1","false","","","",""
"","html-keyboard-response","268","1447197","0.0-448.0","ydobps06","1440","900","","","","","","","","","","","null","+","Fixation - short","","null","","","","","","","","","","","","","","","","",""
"","html-keyboard-response","269","1447636","0.0-449.0","ydobps06","","","","","","","","","","","","","439","ume","Diagnostic trial","","j","","6","2","12","false","false","true","both pre & post","RIGHT","RIGHT","j","1","true","","","",""
"","html-keyboard-response","270","1448389","0.0-452.0","ydobps06","1440","900","","","","","","","","","","","null","+","Fixation - short","","null","","","","","","","","","","","","","","","","",""
"","html-keyboard-response","271","1448879","0.0-453.0","ydobps06","","","","","","","","","","","","","490","prg","Diagnostic trial","","f","","6","3","12","false","false","false","both pre & post","LEFT","LEFT","f","1","true","","","",""
"","html-keyboard-response","272","1449631","0.0-456.0","ydobps06","1440","900","","","","","","","","","","","null","+","Fixation - short","","null","","","","","","","","","","","","","","","","",""
"","html-keyboard-response","273","1450061","0.0-457.0","ydobps06","","","","","","","","","","","","","429","ume","Diagnostic trial","","j","","6","4","12","false","false","true","both pre & post","RIGHT","RIGHT","j","1","true","","","",""
"","html-keyboard-response","274","1450813","0.0-460.0","ydobps06","1440","900","","","","","","","","","","","null","+","Fixation - short","","null","","","","","","","","","","","","","","","","",""
"","html-keyboard-response","275","1451475","0.0-461.0","ydobps06","","","","","","","","","","","","","661","ume","Diagnostic trial","","f","","6","5","12","false","false","false","both pre & post","RIGHT","LEFT","f","1","false","","","",""
"","html-keyboard-response","276","1452227","0.0-464.0","ydobps06","1440","900","","","","","","","","","","","null","+","Fixation - short","","null","","","","","","","","","","","","","","","","",""
"","html-keyboard-response","277","1453020","0.0-465.0","ydobps06","","","","","","","","","","","","","793","prg","Diagnostic trial","","j","","6","6","12","false","false","true","both pre & post","LEFT","RIGHT","j","1","false","","","",""
"","html-keyboard-response","278","1453772","0.0-468.0","ydobps06","1440","900","","","","","","","","","","","null","+","Fixation - short","","null","","","","","","","","","","","","","","","","",""
"","html-keyboard-response","279","1454180","0.0-469.0","ydobps06","","","","","","","","","","","","","408","prg","Diagnostic trial","","j","","6","7","12","false","false","true","both pre & post","LEFT","RIGHT","j","1","false","","","",""
"","html-keyboard-response","280","1454933","0.0-472.0","ydobps06","1440","900","","","","","","","","","","","null","+","Fixation - short","","null","","","","","","","","","","","","","","","","",""
"","html-keyboard-response","281","1455507","0.0-473.0","ydobps06","","","","","","","","","","","","","573","ume","Diagnostic trial","","j","","6","8","12","false","false","true","both pre & post","RIGHT","RIGHT","j","1","true","","","",""
"","html-keyboard-response","282","1456259","0.0-476.0","ydobps06","1440","900","","","","","","","","","","","null","+","Fixation - short","","null","","","","","","","","","","","","","","","","",""
"","html-keyboard-response","283","1456716","0.0-477.0","ydobps06","","","","","","","","","","","","","456","ume","Diagnostic trial","","j","","6","9","12","false","false","true","both pre & post","RIGHT","RIGHT","j","1","true","","","",""
"","html-keyboard-response","284","1457468","0.0-480.0","ydobps06","1440","900","","","","","","","","","","","null","+","Fixation - short","","null","","","","","","","","","","","","","","","","",""
"","html-keyboard-response","285","1457908","0.0-481.0","ydobps06","","","","","","","","","","","","","440","prg","Diagnostic trial","","j","","6","10","12","false","false","true","both pre & post","LEFT","RIGHT","j","1","false","","","",""
"","html-keyboard-response","286","1458661","0.0-484.0","ydobps06","1440","900","","","","","","","","","","","null","+","Fixation - short","","null","","","","","","","","","","","","","","","","",""
"","html-keyboard-response","287","1459143","0.0-485.0","ydobps06","","","","","","","","","","","","","481","ume","Diagnostic trial","","f","","6","11","12","false","false","false","both pre & post","RIGHT","LEFT","f","1","false","","","",""
"","html-keyboard-response","288","1459895","0.0-488.0","ydobps06","1440","900","","","","","","","","","","","null","+","Fixation - short","","null","","","","","","","","","","","","","","","","",""
"","canvas-keyboard-response","289","1461148","0.0-489.0","ydobps06","","","","","","","","","","","","","null","Cue","Cue","","null","","6","11","","","false","","","","","","","","","","",""
"","html-keyboard-response","290","1461900","0.0-490.0","ydobps06","1440","900","","","","","","","","","","","null","+","Fixation - short","","null","","","","","","","","","","","","","","","","",""
"","html-keyboard-response","291","1462596","0.0-491.0","ydobps06","","","","","","","","","","","","","696","prg","Diagnostic trial","","f","","6","12","12","true","false","false","both pre & post","LEFT","LEFT","f","1","true","","","",""
"","html-keyboard-response","292","1463348","0.0-494.0","ydobps06","1440","900","","","","","","","","","","","null","+","Fixation - short","","null","","","","","","","","","","","","","","","","",""
"","html-keyboard-response","293","1463836","0.0-495.0","ydobps06","","","","","","","","","","","","","487","prg","Diagnostic trial","","f","","6","13","12","true","false","false","both pre & post","LEFT","LEFT","f","1","true","","","",""
"","html-keyboard-response","294","1464588","0.0-498.0","ydobps06","1440","900","","","","","","","","","","","null","+","Fixation - short","","null","","","","","","","","","","","","","","","","",""
"","html-keyboard-response","295","1465140","0.0-499.0","ydobps06","","","","","","","","","","","","","551","ume","Diagnostic trial","","f","","6","14","12","true","false","false","both pre & post","RIGHT","LEFT","f","1","false","","","",""
"","html-keyboard-response","296","1465892","0.0-502.0","ydobps06","1440","900","","","","","","","","","","","null","+","Fixation - short","","null","","","","","","","","","","","","","","","","",""
"","html-keyboard-response","297","1466516","0.0-503.0","ydobps06","","","","","","","","","","","","","623","prg","Diagnostic trial","","j","","6","15","12","true","false","true","both pre & post","LEFT","RIGHT","j","1","false","","","",""
"","html-keyboard-response","298","1467268","0.0-506.0","ydobps06","1440","900","","","","","","","","","","","null","+","Fixation - short","","null","","","","","","","","","","","","","","","","",""
"","html-keyboard-response","299","1467788","0.0-507.0","ydobps06","","","","","","","","","","","","","519","ume","Inducer trial","","j","","6","","","","true","","","","","j","1","","false","RIGHT","",""
"","html-keyboard-response","300","1468540","0.0-510.0","ydobps06","1440","900","","","","","","","","","","","null","+","Fixation - short","","null","","","","","","","","","","","","","","","","",""
"","html-keyboard-response","301","1472294","0.0-511.0","ydobps06","","","","","","","","","","","","","3754","If otr press RIGHT | If yna press LEFT","Inducer instructions",""," ","","7","","","","","","","","","","","","","","",""
"","html-keyboard-response","302","1473046","0.0-512.0","ydobps06","1440","900","","","","","","","","","","","null","+","Fixation - short","","null","","","","","","","","","","","","","","","","",""
"","html-keyboard-response","303","1473884","0.0-513.0","ydobps06","","","","","","","","","","","","","837","otr","Diagnostic trial","","j","","7","0","11","false","false","true","both pre & post","RIGHT","RIGHT","j","1","true","","","",""
"","html-keyboard-response","304","1474636","0.0-516.0","ydobps06","1440","900","","","","","","","","","","","null","+","Fixation - short","","null","","","","","","","","","","","","","","","","",""
"","html-keyboard-response","305","1475044","0.0-517.0","ydobps06","","","","","","","","","","","","","407","otr","Diagnostic trial","","j","","7","1","11","false","false","true","both pre & post","RIGHT","RIGHT","j","1","true","","","",""
"","html-keyboard-response","306","1475796","0.0-520.0","ydobps06","1440","900","","","","","","","","","","","null","+","Fixation - short","","null","","","","","","","","","","","","","","","","",""
"","html-keyboard-response","307","1476243","0.0-521.0","ydobps06","","","","","","","","","","","","","447","yna","Diagnostic trial","","f","","7","2","11","false","false","false","both pre & post","LEFT","LEFT","f","1","true","","","",""
"","html-keyboard-response","308","1476995","0.0-524.0","ydobps06","1440","900","","","","","","","","","","","null","+","Fixation - short","","null","","","","","","","","","","","","","","","","",""
"","html-keyboard-response","309","1477564","0.0-525.0","ydobps06","","","","","","","","","","","","","568","otr","Diagnostic trial","","j","","7","3","11","false","false","false","both pre & post","RIGHT","LEFT","f","0","false","","","",""
"","call-function","310","1477565","0.0-527.0-0.0","ydobps06","","","","","","","","","","","","","","","","","","","","","","","","","","","","","","","","","",""
"","html-keyboard-response","311","1477867","0.0-527.0-1.0","ydobps06","1440","900","","","","","","","","","","","null","Wrong","Feedback","","null","","","","","","","","","","","","","","","","",""
"","call-function","312","1477868","0.0-527.0-2.0","ydobps06","","","","","","","","","","","","","","","","","","","","","","","","","","","","","","","","","",""
"","html-keyboard-response","313","1478619","0.0-528.0","ydobps06","1440","900","","","","","","","","","","","null","+","Fixation - short","","null","","","","","","","","","","","","","","","","",""
"","html-keyboard-response","314","1479259","0.0-529.0","ydobps06","","","","","","","","","","","","","639","otr","Diagnostic trial","","f","","7","4","11","false","false","false","both pre & post","RIGHT","LEFT","f","1","false","","","",""
"","html-keyboard-response","315","1480012","0.0-532.0","ydobps06","1440","900","","","","","","","","","","","null","+","Fixation - short","","null","","","","","","","","","","","","","","","","",""
"","html-keyboard-response","316","1480555","0.0-533.0","ydobps06","","","","","","","","","","","","","543","yna","Diagnostic trial","","f","","7","5","11","false","false","false","both pre & post","LEFT","LEFT","f","1","true","","","",""
"","html-keyboard-response","317","1481306","0.0-536.0","ydobps06","1440","900","","","","","","","","","","","null","+","Fixation - short","","null","","","","","","","","","","","","","","","","",""
"","html-keyboard-response","318","1481907","0.0-537.0","ydobps06","","","","","","","","","","","","","601","yna","Diagnostic trial","","j","","7","6","11","false","false","true","both pre & post","LEFT","RIGHT","j","1","false","","","",""
"","html-keyboard-response","319","1482660","0.0-540.0","ydobps06","1440","900","","","","","","","","","","","null","+","Fixation - short","","null","","","","","","","","","","","","","","","","",""
"","html-keyboard-response","320","1483166","0.0-541.0","ydobps06","","","","","","","","","","","","","505","yna","Diagnostic trial","","f","","7","7","11","false","false","false","both pre & post","LEFT","LEFT","f","1","true","","","",""
"","html-keyboard-response","321","1483918","0.0-544.0","ydobps06","1440","900","","","","","","","","","","","null","+","Fixation - short","","null","","","","","","","","","","","","","","","","",""
"","html-keyboard-response","322","1484539","0.0-545.0","ydobps06","","","","","","","","","","","","","620","yna","Diagnostic trial","","j","","7","8","11","false","false","true","both pre & post","LEFT","RIGHT","j","1","false","","","",""
"","html-keyboard-response","323","1485291","0.0-548.0","ydobps06","1440","900","","","","","","","","","","","null","+","Fixation - short","","null","","","","","","","","","","","","","","","","",""
"","html-keyboard-response","324","1485747","0.0-549.0","ydobps06","","","","","","","","","","","","","455","otr","Diagnostic trial","","f","","7","9","11","false","false","false","both pre & post","RIGHT","LEFT","f","1","false","","","",""
"","html-keyboard-response","325","1486499","0.0-552.0","ydobps06","1440","900","","","","","","","","","","","null","+","Fixation - short","","null","","","","","","","","","","","","","","","","",""
"","html-keyboard-response","326","1487059","0.0-553.0","ydobps06","","","","","","","","","","","","","560","yna","Diagnostic trial","","f","","7","10","11","false","false","false","both pre & post","LEFT","LEFT","f","1","true","","","",""
"","html-keyboard-response","327","1487810","0.0-556.0","ydobps06","1440","900","","","","","","","","","","","null","+","Fixation - short","","null","","","","","","","","","","","","","","","","",""
"","canvas-keyboard-response","328","1489063","0.0-557.0","ydobps06","","","","","","","","","","","","","null","Cue","Cue","","null","","7","10","","","false","","","","","","","","","","",""
"","html-keyboard-response","329","1489815","0.0-558.0","ydobps06","1440","900","","","","","","","","","","","null","+","Fixation - short","","null","","","","","","","","","","","","","","","","",""
"","html-keyboard-response","330","1490443","0.0-559.0","ydobps06","","","","","","","","","","","","","627","otr","Diagnostic trial","","j","","7","11","11","true","false","true","both pre & post","RIGHT","RIGHT","j","1","true","","","",""
"","html-keyboard-response","331","1491196","0.0-562.0","ydobps06","1440","900","","","","","","","","","","","null","+","Fixation - short","","null","","","","","","","","","","","","","","","","",""
"","html-keyboard-response","332","1491691","0.0-563.0","ydobps06","","","","","","","","","","","","","495","yna","Diagnostic trial","","j","","7","12","11","true","false","true","both pre & post","LEFT","RIGHT","j","1","false","","","",""
"","html-keyboard-response","333","1492443","0.0-566.0","ydobps06","1440","900","","","","","","","","","","","null","+","Fixation - short","","null","","","","","","","","","","","","","","","","",""
"","html-keyboard-response","334","1493163","0.0-567.0","ydobps06","","","","","","","","","","","","","719","yna","Diagnostic trial","","f","","7","13","11","true","false","false","both pre & post","LEFT","LEFT","f","1","true","","","",""
"","html-keyboard-response","335","1493915","0.0-570.0","ydobps06","1440","900","","","","","","","","","","","null","+","Fixation - short","","null","","","","","","","","","","","","","","","","",""
"","html-keyboard-response","336","1494483","0.0-571.0","ydobps06","","","","","","","","","","","","","567","otr","Inducer trial","","j","","7","","","","true","","","","","j","1","","false","RIGHT","",""
"","html-keyboard-response","337","1495235","0.0-574.0","ydobps06","1440","900","","","","","","","","","","","null","+","Fixation - short","","null","","","","","","","","","","","","","","","","",""
"","html-keyboard-response","338","1497587","0.0-575.0","ydobps06","","","","","","","","","","","","","2351","If ndm press RIGHT | If faq press LEFT","Inducer instructions",""," ","","8","","","","","","","","","","","","","","",""
"","html-keyboard-response","339","1498339","0.0-576.0","ydobps06","1440","900","","","","","","","","","","","null","+","Fixation - short","","null","","","","","","","","","","","","","","","","",""
"","html-keyboard-response","340","1499257","0.0-577.0","ydobps06","","","","","","","","","","","","","918","faq","Diagnostic trial","","j","","8","0","4","false","false","true","both pre & post","LEFT","RIGHT","j","1","false","","","",""
"","html-keyboard-response","341","1500009","0.0-580.0","ydobps06","1440","900","","","","","","","","","","","null","+","Fixation - short","","null","","","","","","","","","","","","","","","","",""
"","html-keyboard-response","342","1500369","0.0-581.0","ydobps06","","","","","","","","","","","","","359","faq","Diagnostic trial","","j","","8","1","4","false","false","true","both pre & post","LEFT","RIGHT","j","1","false","","","",""
"","html-keyboard-response","343","1501121","0.0-584.0","ydobps06","1440","900","","","","","","","","","","","null","+","Fixation - short","","null","","","","","","","","","","","","","","","","",""
"","html-keyboard-response","344","1501634","0.0-585.0","ydobps06","","","","","","","","","","","","","513","ndm","Diagnostic trial","","j","","8","2","4","false","false","true","both pre & post","RIGHT","RIGHT","j","1","true","","","",""
"","html-keyboard-response","345","1502386","0.0-588.0","ydobps06","1440","900","","","","","","","","","","","null","+","Fixation - short","","null","","","","","","","","","","","","","","","","",""
"","html-keyboard-response","346","1502801","0.0-589.0","ydobps06","","","","","","","","","","","","","415","faq","Diagnostic trial","","j","","8","3","4","false","false","true","both pre & post","LEFT","RIGHT","j","1","false","","","",""
"","html-keyboard-response","347","1503554","0.0-592.0","ydobps06","1440","900","","","","","","","","","","","null","+","Fixation - short","","null","","","","","","","","","","","","","","","","",""
"","canvas-keyboard-response","348","1504806","0.0-593.0","ydobps06","","","","","","","","","","","","","null","Cue","Cue","","null","","8","3","","","false","","","","","","","","","","",""
"","html-keyboard-response","349","1505557","0.0-594.0","ydobps06","1440","900","","","","","","","","","","","null","+","Fixation - short","","null","","","","","","","","","","","","","","","","",""
"","html-keyboard-response","350","1505988","0.0-595.0","ydobps06","","","","","","","","","","","","","430","ndm","Diagnostic trial","","j","","8","4","4","true","false","true","both pre & post","RIGHT","RIGHT","j","1","true","","","",""
"","html-keyboard-response","351","1506740","0.0-598.0","ydobps06","1440","900","","","","","","","","","","","null","+","Fixation - short","","null","","","","","","","","","","","","","","","","",""
"","html-keyboard-response","352","1507177","0.0-599.0","ydobps06","","","","","","","","","","","","","436","ndm","Diagnostic trial","","f","","8","5","4","true","false","false","both pre & post","RIGHT","LEFT","f","1","false","","","",""
"","html-keyboard-response","353","1507929","0.0-602.0","ydobps06","1440","900","","","","","","","","","","","null","+","Fixation - short","","null","","","","","","","","","","","","","","","","",""
"","html-keyboard-response","354","1508409","0.0-603.0","ydobps06","","","","","","","","","","","","","479","faq","Diagnostic trial","","f","","8","6","4","true","false","false","both pre & post","LEFT","LEFT","f","1","true","","","",""
"","html-keyboard-response","355","1509162","0.0-606.0","ydobps06","1440","900","","","","","","","","","","","null","+","Fixation - short","","null","","","","","","","","","","","","","","","","",""
"","html-keyboard-response","356","1509650","0.0-607.0","ydobps06","","","","","","","","","","","","","487","ndm","Diagnostic trial","","f","","8","7","4","true","false","false","both pre & post","RIGHT","LEFT","f","1","false","","","",""
"","html-keyboard-response","357","1510400","0.0-610.0","ydobps06","1440","900","","","","","","","","","","","null","+","Fixation - short","","null","","","","","","","","","","","","","","","","",""
"","html-keyboard-response","358","1511225","0.0-611.0","ydobps06","","","","","","","","","","","","","824","faq","Inducer trial","","f","","8","","","","true","","","","","f","1","","false","LEFT","",""
"","html-keyboard-response","359","1511977","0.0-614.0","ydobps06","1440","900","","","","","","","","","","","null","+","Fixation - short","","null","","","","","","","","","","","","","","","","",""
"","html-keyboard-response","360","1515592","0.0-615.0","ydobps06","","","","","","","","","","","","","3615","If tkb press RIGHT | If efg press LEFT","Inducer instructions",""," ","","9","","","","","","","","","","","","","","",""
"","html-keyboard-response","361","1516345","0.0-616.0","ydobps06","1440","900","","","","","","","","","","","null","+","Fixation - short","","null","","","","","","","","","","","","","","","","",""
"","html-keyboard-response","362","1516836","0.0-617.0","ydobps06","","","","","","","","","","","","","491","efg","Diagnostic trial","","f","","9","0","8","false","false","false","both pre & post","LEFT","LEFT","f","1","true","","","",""
"","html-keyboard-response","363","1517589","0.0-620.0","ydobps06","1440","900","","","","","","","","","","","null","+","Fixation - short","","null","","","","","","","","","","","","","","","","",""
"","html-keyboard-response","364","1518065","0.0-621.0","ydobps06","","","","","","","","","","","","","475","efg","Diagnostic trial","","j","","9","1","8","false","false","true","both pre & post","LEFT","RIGHT","j","1","false","","","",""
"","html-keyboard-response","365","1518817","0.0-624.0","ydobps06","1440","900","","","","","","","","","","","null","+","Fixation - short","","null","","","","","","","","","","","","","","","","",""
"","html-keyboard-response","366","1519474","0.0-625.0","ydobps06","","","","","","","","","","","","","656","tkb","Diagnostic trial","","f","","9","2","8","false","false","false","both pre & post","RIGHT","LEFT","f","1","false","","","",""
"","html-keyboard-response","367","1520226","0.0-628.0","ydobps06","1440","900","","","","","","","","","","","null","+","Fixation - short","","null","","","","","","","","","","","","","","","","",""
"","html-keyboard-response","368","1520609","0.0-629.0","ydobps06","","","","","","","","","","","","","383","tkb","Diagnostic trial","","f","","9","3","8","false","false","false","both pre & post","RIGHT","LEFT","f","1","false","","","",""
"","html-keyboard-response","369","1521361","0.0-632.0","ydobps06","1440","900","","","","","","","","","","","null","+","Fixation - short","","null","","","","","","","","","","","","","","","","",""
"","html-keyboard-response","370","1521770","0.0-633.0","ydobps06","","","","","","","","","","","","","408","tkb","Diagnostic trial","","f","","9","4","8","false","false","true","both pre & post","RIGHT","RIGHT","j","0","true","","","",""
"","call-function","371","1521770","0.0-635.0-0.0","ydobps06","","","","","","","","","","","","","","","","","","","","","","","","","","","","","","","","","",""
"","html-keyboard-response","372","1522072","0.0-635.0-1.0","ydobps06","1440","900","","","","","","","","","","","null","Wrong","Feedback","","null","","","","","","","","","","","","","","","","",""
"","call-function","373","1522073","0.0-635.0-2.0","ydobps06","","","","","","","","","","","","","","","","","","","","","","","","","","","","","","","","","",""
"","html-keyboard-response","374","1522825","0.0-636.0","ydobps06","1440","900","","","","","","","","","","","null","+","Fixation - short","","null","","","","","","","","","","","","","","","","",""
"","html-keyboard-response","375","1523641","0.0-637.0","ydobps06","","","","","","","","","","","","","816","efg","Diagnostic trial","","f","","9","5","8","false","false","false","both pre & post","LEFT","LEFT","f","1","true","","","",""
"","html-keyboard-response","376","1524394","0.0-640.0","ydobps06","1440","900","","","","","","","","","","","null","+","Fixation - short","","null","","","","","","","","","","","","","","","","",""
"","html-keyboard-response","377","1524832","0.0-641.0","ydobps06","","","","","","","","","","","","","438","efg","Diagnostic trial","","f","","9","6","8","false","false","false","both pre & post","LEFT","LEFT","f","1","true","","","",""
"","html-keyboard-response","378","1525584","0.0-644.0","ydobps06","1440","900","","","","","","","","","","","null","+","Fixation - short","","null","","","","","","","","","","","","","","","","",""
"","html-keyboard-response","379","1525993","0.0-645.0","ydobps06","","","","","","","","","","","","","408","efg","Diagnostic trial","","j","","9","7","8","false","false","true","both pre & post","LEFT","RIGHT","j","1","false","","","",""
"","html-keyboard-response","380","1526746","0.0-648.0","ydobps06","1440","900","","","","","","","","","","","null","+","Fixation - short","","null","","","","","","","","","","","","","","","","",""
"","canvas-keyboard-response","381","1527999","0.0-649.0","ydobps06","","","","","","","","","","","","","null","Cue","Cue","","null","","9","7","","","false","","","","","","","","","","",""
"","html-keyboard-response","382","1528751","0.0-650.0","ydobps06","1440","900","","","","","","","","","","","null","+","Fixation - short","","null","","","","","","","","","","","","","","","","",""
"","html-keyboard-response","383","1529446","0.0-651.0","ydobps06","","","","","","","","","","","","","694","tkb","Diagnostic trial","","f","","9","8","8","true","false","false","both pre & post","RIGHT","LEFT","f","1","false","","","",""
"","html-keyboard-response","384","1530198","0.0-654.0","ydobps06","1440","900","","","","","","","","","","","null","+","Fixation - short","","null","","","","","","","","","","","","","","","","",""
"","html-keyboard-response","385","1530825","0.0-655.0","ydobps06","","","","","","","","","","","","","627","efg","Diagnostic trial","","f","","9","9","8","true","false","false","both pre & post","LEFT","LEFT","f","1","true","","","",""
"","html-keyboard-response","386","1531577","0.0-658.0","ydobps06","1440","900","","","","","","","","","","","null","+","Fixation - short","","null","","","","","","","","","","","","","","","","",""
"","html-keyboard-response","387","1532121","0.0-659.0","ydobps06","","","","","","","","","","","","","543","efg","Diagnostic trial","","j","","9","10","8","true","false","true","both pre & post","LEFT","RIGHT","j","1","false","","","",""
"","html-keyboard-response","388","1532874","0.0-662.0","ydobps06","1440","900","","","","","","","","","","","null","+","Fixation - short","","null","","","","","","","","","","","","","","","","",""
"","html-keyboard-response","389","1533464","0.0-663.0","ydobps06","","","","","","","","","","","","","590","tkb","Diagnostic trial","","j","","9","11","8","true","false","true","both pre & post","RIGHT","RIGHT","j","1","true","","","",""
"","html-keyboard-response","390","1534217","0.0-666.0","ydobps06","1440","900","","","","","","","","","","","null","+","Fixation - short","","null","","","","","","","","","","","","","","","","",""
"","html-keyboard-response","391","1534809","0.0-667.0","ydobps06","","","","","","","","","","","","","592","tkb","Inducer trial","","j","","9","","","","true","","","","","j","1","","false","RIGHT","",""
"","html-keyboard-response","392","1535562","0.0-670.0","ydobps06","1440","900","","","","","","","","","","","null","+","Fixation - short","","null","","","","","","","","","","","","","","","","",""
"","html-keyboard-response","393","1539137","0.0-671.0","ydobps06","","","","","","","","","","","","","3575","If gfm press RIGHT | If hlb press LEFT","Inducer instructions",""," ","","10","","","","","","","","","","","","","","",""
"","html-keyboard-response","394","1539889","0.0-672.0","ydobps06","1440","900","","","","","","","","","","","null","+","Fixation - short","","null","","","","","","","","","","","","","","","","",""
"","html-keyboard-response","395","1540523","0.0-673.0","ydobps06","","","","","","","","","","","","","634","gfm","Diagnostic trial","","j","","10","0","4","false","false","true","both pre & post","RIGHT","RIGHT","j","1","true","","","",""
"","html-keyboard-response","396","1541275","0.0-676.0","ydobps06","1440","900","","","","","","","","","","","null","+","Fixation - short","","null","","","","","","","","","","","","","","","","",""
"","html-keyboard-response","397","1541673","0.0-677.0","ydobps06","","","","","","","","","","","","","397","hlb","Diagnostic trial","","j","","10","1","4","false","false","true","both pre & post","LEFT","RIGHT","j","1","false","","","",""
"","html-keyboard-response","398","1542425","0.0-680.0","ydobps06","1440","900","","","","","","","","","","","null","+","Fixation - short","","null","","","","","","","","","","","","","","","","",""
"","html-keyboard-response","399","1542801","0.0-681.0","ydobps06","","","","","","","","","","","","","375","hlb","Diagnostic trial","","j","","10","2","4","false","false","true","both pre & post","LEFT","RIGHT","j","1","false","","","",""
"","html-keyboard-response","400","1543553","0.0-684.0","ydobps06","1440","900","","","","","","","","","","","null","+","Fixation - short","","null","","","","","","","","","","","","","","","","",""
"","html-keyboard-response","401","1544049","0.0-685.0","ydobps06","","","","","","","","","","","","","495","hlb","Diagnostic trial","","f","","10","3","4","false","false","false","both pre & post","LEFT","LEFT","f","1","true","","","",""
"","html-keyboard-response","402","1544801","0.0-688.0","ydobps06","1440","900","","","","","","","","","","","null","+","Fixation - short","","null","","","","","","","","","","","","","","","","",""
"","canvas-keyboard-response","403","1546053","0.0-689.0","ydobps06","","","","","","","","","","","","","null","Cue","Cue","","null","","10","3","","","false","","","","","","","","","","",""
"","html-keyboard-response","404","1546805","0.0-690.0","ydobps06","1440","900","","","","","","","","","","","null","+","Fixation - short","","null","","","","","","","","","","","","","","","","",""
"","html-keyboard-response","405","1547377","0.0-691.0","ydobps06","","","","","","","","","","","","","571","gfm","Diagnostic trial","","j","","10","4","4","true","false","true","both pre & post","RIGHT","RIGHT","j","1","true","","","",""
"","html-keyboard-response","406","1548129","0.0-694.0","ydobps06","1440","900","","","","","","","","","","","null","+","Fixation - short","","null","","","","","","","","","","","","","","","","",""
"","html-keyboard-response","407","1548537","0.0-695.0","ydobps06","","","","","","","","","","","","","407","gfm","Diagnostic trial","","j","","10","5","4","true","false","false","both pre & post","RIGHT","LEFT","f","0","false","","","",""
"","call-function","408","1548537","0.0-697.0-0.0","ydobps06","","","","","","","","","","","","","","","","","","","","","","","","","","","","","","","","","",""
"","html-keyboard-response","409","1548839","0.0-697.0-1.0","ydobps06","1440","900","","","","","","","","","","","null","Wrong","Feedback","","null","","","","","","","","","","","","","","","","",""
"","call-function","410","1548840","0.0-697.0-2.0","ydobps06","","","","","","","","","","","","","","","","","","","","","","","","","","","","","","","","","",""
"","html-keyboard-response","411","1549593","0.0-698.0","ydobps06","1440","900","","","","","","","","","","","null","+","Fixation - short","","null","","","","","","","","","","","","","","","","",""
"","html-keyboard-response","412","1550176","0.0-699.0","ydobps06","","","","","","","","","","","","","583","gfm","Diagnostic trial","","j","","10","6","4","true","false","true","both pre & post","RIGHT","RIGHT","j","1","true","","","",""
"","html-keyboard-response","413","1550929","0.0-702.0","ydobps06","1440","900","","","","","","","","","","","null","+","Fixation - short","","null","","","","","","","","","","","","","","","","",""
"","html-keyboard-response","414","1551512","0.0-703.0","ydobps06","","","","","","","","","","","","","583","hlb","Diagnostic trial","","f","","10","7","4","true","false","false","both pre & post","LEFT","LEFT","f","1","true","","","",""
"","html-keyboard-response","415","1552264","0.0-706.0","ydobps06","1440","900","","","","","","","","","","","null","+","Fixation - short","","null","","","","","","","","","","","","","","","","",""
"","html-keyboard-response","416","1552928","0.0-707.0","ydobps06","","","","","","","","","","","","","663","gfm","Inducer trial","","j","","10","","","","true","","","","","j","1","","false","RIGHT","",""
"","html-keyboard-response","417","1553681","0.0-710.0","ydobps06","1440","900","","","","","","","","","","","null","+","Fixation - short","","null","","","","","","","","","","","","","","","","",""
"","html-keyboard-response","418","1555576","0.0-711.0","ydobps06","","","","","","","","","","","","","1895","If feg press RIGHT | If mda press LEFT","Inducer instructions",""," ","","11","","","","","","","","","","","","","","",""
"","html-keyboard-response","419","1556329","0.0-712.0","ydobps06","1440","900","","","","","","","","","","","null","+","Fixation - short","","null","","","","","","","","","","","","","","","","",""
"","html-keyboard-response","420","1557032","0.0-713.0","ydobps06","","","","","","","","","","","","","703","feg","Diagnostic trial","","f","","11","0","10","false","false","false","both pre & post","RIGHT","LEFT","f","1","false","","","",""
"","html-keyboard-response","421","1557785","0.0-716.0","ydobps06","1440","900","","","","","","","","","","","null","+","Fixation - short","","null","","","","","","","","","","","","","","","","",""
"","html-keyboard-response","422","1558272","0.0-717.0","ydobps06","","","","","","","","","","","","","487","feg","Diagnostic trial","","j","","11","1","10","false","false","true","both pre & post","RIGHT","RIGHT","j","1","true","","","",""
"","html-keyboard-response","423","1559025","0.0-720.0","ydobps06","1440","900","","","","","","","","","","","null","+","Fixation - short","","null","","","","","","","","","","","","","","","","",""
"","html-keyboard-response","424","1559504","0.0-721.0","ydobps06","","","","","","","","","","","","","479","feg","Diagnostic trial","","f","","11","2","10","false","false","false","both pre & post","RIGHT","LEFT","f","1","false","","","",""
"","html-keyboard-response","425","1560256","0.0-724.0","ydobps06","1440","900","","","","","","","","","","","null","+","Fixation - short","","null","","","","","","","","","","","","","","","","",""
"","html-keyboard-response","426","1560888","0.0-725.0","ydobps06","","","","","","","","","","","","","631","mda","Diagnostic trial","","j","","11","3","10","false","false","true","both pre & post","LEFT","RIGHT","j","1","false","","","",""
"","html-keyboard-response","427","1561641","0.0-728.0","ydobps06","1440","900","","","","","","","","","","","null","+","Fixation - short","","null","","","","","","","","","","","","","","","","",""
"","html-keyboard-response","428","1562099","0.0-729.0","ydobps06","","","","","","","","","","","","","457","mda","Diagnostic trial","","j","","11","4","10","false","false","true","both pre & post","LEFT","RIGHT","j","1","false","","","",""
"","html-keyboard-response","429","1562851","0.0-732.0","ydobps06","1440","900","","","","","","","","","","","null","+","Fixation - short","","null","","","","","","","","","","","","","","","","",""
"","html-keyboard-response","430","1563392","0.0-733.0","ydobps06","","","","","","","","","","","","","540","mda","Diagnostic trial","","f","","11","5","10","false","false","false","both pre & post","LEFT","LEFT","f","1","true","","","",""
"","html-keyboard-response","431","1564144","0.0-736.0","ydobps06","1440","900","","","","","","","","","","","null","+","Fixation - short","","null","","","","","","","","","","","","","","","","",""
"","html-keyboard-response","432","1564832","0.0-737.0","ydobps06","","","","","","","","","","","","","687","feg","Diagnostic trial","","f","","11","6","10","false","false","false","both pre & post","RIGHT","LEFT","f","1","false","","","",""
"","html-keyboard-response","433","1565585","0.0-740.0","ydobps06","1440","900","","","","","","","","","","","null","+","Fixation - short","","null","","","","","","","","","","","","","","","","",""
"","html-keyboard-response","434","1566048","0.0-741.0","ydobps06","","","","","","","","","","","","","463","mda","Diagnostic trial","","j","","11","7","10","false","false","true","both pre & post","LEFT","RIGHT","j","1","false","","","",""
"","html-keyboard-response","435","1566800","0.0-744.0","ydobps06","1440","900","","","","","","","","","","","null","+","Fixation - short","","null","","","","","","","","","","","","","","","","",""
"","html-keyboard-response","436","1567256","0.0-745.0","ydobps06","","","","","","","","","","","","","455","mda","Diagnostic trial","","j","","11","8","10","false","false","true","both pre & post","LEFT","RIGHT","j","1","false","","","",""
"","html-keyboard-response","437","1568008","0.0-748.0","ydobps06","1440","900","","","","","","","","","","","null","+","Fixation - short","","null","","","","","","","","","","","","","","","","",""
"","html-keyboard-response","438","1568512","0.0-749.0","ydobps06","","","","","","","","","","","","","503","feg","Diagnostic trial","","f","","11","9","10","false","false","false","both pre & post","RIGHT","LEFT","f","1","false","","","",""
"","html-keyboard-response","439","1569264","0.0-752.0","ydobps06","1440","900","","","","","","","","","","","null","+","Fixation - short","","null","","","","","","","","","","","","","","","","",""
"","canvas-keyboard-response","440","1570517","0.0-753.0","ydobps06","","","","","","","","","","","","","null","Cue","Cue","","null","","11","9","","","false","","","","","","","","","","",""
"","html-keyboard-response","441","1571269","0.0-754.0","ydobps06","1440","900","","","","","","","","","","","null","+","Fixation - short","","null","","","","","","","","","","","","","","","","",""
"","html-keyboard-response","442","1571855","0.0-755.0","ydobps06","","","","","","","","","","","","","586","feg","Diagnostic trial","","f","","11","10","10","true","false","false","both pre & post","RIGHT","LEFT","f","1","false","","","",""
"","html-keyboard-response","443","1572606","0.0-758.0","ydobps06","1440","900","","","","","","","","","","","null","+","Fixation - short","","null","","","","","","","","","","","","","","","","",""
"","html-keyboard-response","444","1573089","0.0-759.0","ydobps06","","","","","","","","","","","","","483","mda","Diagnostic trial","","f","","11","11","10","true","false","false","both pre & post","LEFT","LEFT","f","1","true","","","",""
"","html-keyboard-response","445","1573841","0.0-762.0","ydobps06","1440","900","","","","","","","","","","","null","+","Fixation - short","","null","","","","","","","","","","","","","","","","",""
"","html-keyboard-response","446","1574279","0.0-763.0","ydobps06","","","","","","","","","","","","","437","feg","Diagnostic trial","","j","","11","12","10","true","false","true","both pre & post","RIGHT","RIGHT","j","1","true","","","",""
"","html-keyboard-response","447","1575032","0.0-766.0","ydobps06","1440","900","","","","","","","","","","","null","+","Fixation - short","","null","","","","","","","","","","","","","","","","",""
"","html-keyboard-response","448","1575615","0.0-767.0","ydobps06","","","","","","","","","","","","","583","mda","Diagnostic trial","","j","","11","13","10","true","false","true","both pre & post","LEFT","RIGHT","j","1","false","","","",""
"","html-keyboard-response","449","1576367","0.0-770.0","ydobps06","1440","900","","","","","","","","","","","null","+","Fixation - short","","null","","","","","","","","","","","","","","","","",""
"","html-keyboard-response","450","1577143","0.0-771.0","ydobps06","","","","","","","","","","","","","775","mda","Inducer trial","","f","","11","","","","true","","","","","f","1","","false","LEFT","",""
"","html-keyboard-response","451","1577896","0.0-774.0","ydobps06","1440","900","","","","","","","","","","","null","+","Fixation - short","","null","","","","","","","","","","","","","","","","",""
"","html-keyboard-response","452","1580455","0.0-775.0","ydobps06","","","","","","","","","","","","","2559","If rif press RIGHT | If ebe press LEFT","Inducer instructions",""," ","","12","","","","","","","","","","","","","","",""
"","html-keyboard-response","453","1581207","0.0-776.0","ydobps06","1440","900","","","","","","","","","","","null","+","Fixation - short","","null","","","","","","","","","","","","","","","","",""
"","html-keyboard-response","454","1582047","0.0-777.0","ydobps06","","","","","","","","","","","","","839","ebe","Diagnostic trial","","j","","12","0","4","false","false","true","both pre & post","LEFT","RIGHT","j","1","false","","","",""
"","html-keyboard-response","455","1582799","0.0-780.0","ydobps06","1440","900","","","","","","","","","","","null","+","Fixation - short","","null","","","","","","","","","","","","","","","","",""
