"value","trial_type","trial_index","time_elapsed","internal_node_id","id","width","height","webaudio","browser","browser_version","mobile","os","fullscreen","vsync_rate","webcam","microphone","view_history","rt","stimulus","trial_info","success","response","exp_parameters","inducer_run","diagnostic_run","cue_num","post_cue","inducer_trial","italic","forced_equal_run","correct_inducer_response_side","correct_diag_response_side","correct_response_key","correct_response","congruent","force_equal","correct_indu_response_side","accuracy","interactive"
"","call-function","0","18","0.0-0.0","wlokhbhp","","","","","","","","","","","","","","","","","","","","","","","","","","","","","","","","","",""
"","browser-check","1","2021","0.0-1.0","wlokhbhp","1280","551","true","chrome","122.0.0","false","Windows 10","true","30.21","true","true","","","","","","","","","","","","","","","","","","","","","","",""
"","instructions","2","411718","0.0-2.0","wlokhbhp","","","","","","","","","","","","[{""page_index"":0,""viewing_time"":384689},{""page_index"":1,""viewing_time"":28178},{""page_index"":2,""viewing_time"":2881}]","415748","The experiment and consent","The experiment and consent","","","","","","","","","","","","","","","","","","",""
"","fullscreen","3","416167","0.0-3.0","wlokhbhp","","","","","","","","","","","","","3440","","Full screen","true","","","","","","","","","","","","","","","","","",""
"","instructions","4","435878","0.0-4.0","wlokhbhp","","","","","","","","","","","","[{""page_index"":0,""viewing_time"":14049},{""page_index"":1,""viewing_time"":5661}]","19710","Instructions","Basic overview explanation","","","","","","","","","","","","","","","","","","",""
"","html-keyboard-response","5","447082","0.0-5.0","wlokhbhp","","","","","","","","","","","","","9687","If italic press LEFT | If upright press RIGHT","Diagnostic instructions",""," ","{""debug"":false,""skip_instructions"":false,""skip_practice"":false,""save_local_data"":false,""studu_name"":""exp2"",""default_background_colour"":""#cccccc"",""wrong_response_colour"":""#d22d2d"",""instruction_delay"":20000,""trial_duration"":2000,""short_fixation"":750,""long_fixation"":1500,""wrong_response_delay"":300,""too_slow_delay"":300,""instruction_font_size"":""24px"",""general_font_size"":""42px"",""fixation_size"":""48px"",""allowed_responses"":[""f"",""j""],""cue_min_length"":0,""cue_max_length"":4,""tot_post_cue_len"":72,""cue_colour"":""yellow"",""cue_shape"":""Square"",""cue_size"":70,""cue_duration"":1250,""avg_number_of_cues"":3,""inducer_colour"":""blue"",""number_of_inducers"":24,""pre_cue_italic_forced_equal"":true,""post_cue_italic_forced_equal"":true,""prac_diagnostic_rounds"":16,""prac_inducer_rounds"":6,""prac_cue_rounds"":16,""prac_post_cue_num"":3}","","","","","","","","","","","","","","","",""
"","html-keyboard-response","6","447844","0.0-6.0","wlokhbhp","1280","720","","","","","","","","","","","null","+","Fixation - short","","null","","","","","","","","","","","","","","","","",""
"","html-keyboard-response","7","448578","0.0-7.0","wlokhbhp","","","","","","","","","","","","","733","cmj","Diagnostic practice","","j","","Diagnostic practice","0","-84","true","false","false","prac equal","LEFT","RIGHT","j","1","false","","","",""
"","html-keyboard-response","8","449332","0.0-10.0","wlokhbhp","1280","720","","","","","","","","","","","null","+","Fixation - short","","null","","","","","","","","","","","","","","","","",""
"","html-keyboard-response","9","449817","0.0-11.0","wlokhbhp","","","","","","","","","","","","","484","adj","Diagnostic practice","","j","","Diagnostic practice","1","-84","true","false","false","prac equal","RIGHT","RIGHT","j","1","true","","","",""
"","html-keyboard-response","10","450576","0.0-14.0","wlokhbhp","1280","720","","","","","","","","","","","null","+","Fixation - short","","null","","","","","","","","","","","","","","","","",""
"","html-keyboard-response","11","451015","0.0-15.0","wlokhbhp","","","","","","","","","","","","","438","cmj","Diagnostic practice","","j","","Diagnostic practice","2","-84","true","false","false","prac equal","LEFT","RIGHT","j","1","false","","","",""
"","html-keyboard-response","12","451770","0.0-18.0","wlokhbhp","1280","720","","","","","","","","","","","null","+","Fixation - short","","null","","","","","","","","","","","","","","","","",""
"","html-keyboard-response","13","452223","0.0-19.0","wlokhbhp","","","","","","","","","","","","","453","adj","Diagnostic practice","","f","","Diagnostic practice","3","-84","true","false","true","prac equal","RIGHT","LEFT","f","1","false","","","",""
"","html-keyboard-response","14","452976","0.0-22.0","wlokhbhp","1280","720","","","","","","","","","","","null","+","Fixation - short","","null","","","","","","","","","","","","","","","","",""
"","html-keyboard-response","15","453413","0.0-23.0","wlokhbhp","","","","","","","","","","","","","436","cmj","Diagnostic practice","","f","","Diagnostic practice","4","-84","true","false","true","prac equal","LEFT","LEFT","f","1","true","","","",""
"","html-keyboard-response","16","454173","0.0-26.0","wlokhbhp","1280","720","","","","","","","","","","","null","+","Fixation - short","","null","","","","","","","","","","","","","","","","",""
"","html-keyboard-response","17","454557","0.0-27.0","wlokhbhp","","","","","","","","","","","","","384","cmj","Diagnostic practice","","f","","Diagnostic practice","5","-84","true","false","true","prac equal","LEFT","LEFT","f","1","true","","","",""
"","html-keyboard-response","18","455322","0.0-30.0","wlokhbhp","1280","720","","","","","","","","","","","null","+","Fixation - short","","null","","","","","","","","","","","","","","","","",""
"","html-keyboard-response","19","455654","0.0-31.0","wlokhbhp","","","","","","","","","","","","","331","adj","Diagnostic practice","","f","","Diagnostic practice","6","-84","true","false","true","prac equal","RIGHT","LEFT","f","1","false","","","",""
"","html-keyboard-response","20","456407","0.0-34.0","wlokhbhp","1280","720","","","","","","","","","","","null","+","Fixation - short","","null","","","","","","","","","","","","","","","","",""
"","html-keyboard-response","21","456803","0.0-35.0","wlokhbhp","","","","","","","","","","","","","395","cmj","Diagnostic practice","","f","","Diagnostic practice","7","-84","true","false","true","prac equal","LEFT","LEFT","f","1","true","","","",""
"","html-keyboard-response","22","457567","0.0-38.0","wlokhbhp","1280","720","","","","","","","","","","","null","+","Fixation - short","","null","","","","","","","","","","","","","","","","",""
"","html-keyboard-response","23","457924","0.0-39.0","wlokhbhp","","","","","","","","","","","","","356","cmj","Diagnostic practice","","f","","Diagnostic practice","8","-84","true","false","false","prac equal","LEFT","RIGHT","j","0","false","","","",""
"","call-function","24","457926","0.0-41.0-0.0","wlokhbhp","","","","","","","","","","","","","","","","","","","","","","","","","","","","","","","","","",""
"","html-keyboard-response","25","458238","0.0-41.0-1.0","wlokhbhp","1280","720","","","","","","","","","","","null","Wrong","Feedback","","null","","","","","","","","","","","","","","","","",""
"","call-function","26","458239","0.0-41.0-2.0","wlokhbhp","","","","","","","","","","","","","","","","","","","","","","","","","","","","","","","","","",""
"","html-keyboard-response","27","459001","0.0-42.0","wlokhbhp","1280","720","","","","","","","","","","","null","+","Fixation - short","","null","","","","","","","","","","","","","","","","",""
"","html-keyboard-response","28","459515","0.0-43.0","wlokhbhp","","","","","","","","","","","","","513","cmj","Diagnostic practice","","f","","Diagnostic practice","9","-84","true","false","true","prac equal","LEFT","LEFT","f","1","true","","","",""
"","html-keyboard-response","29","460273","0.0-46.0","wlokhbhp","1280","720","","","","","","","","","","","null","+","Fixation - short","","null","","","","","","","","","","","","","","","","",""
"","html-keyboard-response","30","460738","0.0-47.0","wlokhbhp","","","","","","","","","","","","","463","adj","Diagnostic practice","","j","","Diagnostic practice","10","-84","true","false","false","prac equal","RIGHT","RIGHT","j","1","true","","","",""
"","html-keyboard-response","31","461499","0.0-50.0","wlokhbhp","1280","720","","","","","","","","","","","null","+","Fixation - short","","null","","","","","","","","","","","","","","","","",""
"","html-keyboard-response","32","461906","0.0-51.0","wlokhbhp","","","","","","","","","","","","","406","adj","Diagnostic practice","","j","","Diagnostic practice","11","-84","true","false","false","prac equal","RIGHT","RIGHT","j","1","true","","","",""
"","html-keyboard-response","33","462666","0.0-54.0","wlokhbhp","1280","720","","","","","","","","","","","null","+","Fixation - short","","null","","","","","","","","","","","","","","","","",""
"","html-keyboard-response","34","463110","0.0-55.0","wlokhbhp","","","","","","","","","","","","","443","adj","Diagnostic practice","","f","","Diagnostic practice","12","-84","true","false","true","prac equal","RIGHT","LEFT","f","1","false","","","",""
"","html-keyboard-response","35","463875","0.0-58.0","wlokhbhp","1280","720","","","","","","","","","","","null","+","Fixation - short","","null","","","","","","","","","","","","","","","","",""
"","html-keyboard-response","36","464488","0.0-59.0","wlokhbhp","","","","","","","","","","","","","612","adj","Diagnostic practice","","j","","Diagnostic practice","13","-84","true","false","false","prac equal","RIGHT","RIGHT","j","1","true","","","",""
"","html-keyboard-response","37","465255","0.0-62.0","wlokhbhp","1280","720","","","","","","","","","","","null","+","Fixation - short","","null","","","","","","","","","","","","","","","","",""
"","html-keyboard-response","38","465750","0.0-63.0","wlokhbhp","","","","","","","","","","","","","493","adj","Diagnostic practice","","j","","Diagnostic practice","14","-84","true","false","false","prac equal","RIGHT","RIGHT","j","1","true","","","",""
"","html-keyboard-response","39","466511","0.0-66.0","wlokhbhp","1280","720","","","","","","","","","","","null","+","Fixation - short","","null","","","","","","","","","","","","","","","","",""
"","html-keyboard-response","40","467110","0.0-67.0","wlokhbhp","","","","","","","","","","","","","598","adj","Diagnostic practice","","f","","Diagnostic practice","15","-84","true","false","true","prac equal","RIGHT","LEFT","f","1","false","","","",""
"","html-keyboard-response","41","467865","0.0-70.0","wlokhbhp","1280","720","","","","","","","","","","","null","+","Fixation - short","","null","","","","","","","","","","","","","","","","",""
"","instructions","42","477651","0.0-71.0","wlokhbhp","","","","","","","","","","","","[{""page_index"":0,""viewing_time"":9784}]","9784","Instructions","Final experiment explanation","","","","","","","","","","","","","","","","","","",""
"","html-keyboard-response","43","485224","0.0-72.0","wlokhbhp","","","","","","","","","","","","","6065","If dnc press LEFT | If csp press RIGHT","Inducer practice",""," ","","Practice","","","","","","","","","","","","","","",""
"","html-keyboard-response","44","485991","0.0-73.0","wlokhbhp","1280","720","","","","","","","","","","","null","+","Fixation - short","","null","","","","","","","","","","","","","","","","",""
"","html-keyboard-response","45","486619","0.0-74.0","wlokhbhp","","","","","","","","","","","","","627","dnc","Inducer practice","","f","","Practice","","","","true","","","","","f","1","","true","LEFT","",""
"","html-keyboard-response","46","487373","0.0-77.0","wlokhbhp","1280","720","","","","","","","","","","","null","+","Fixation - short","","null","","","","","","","","","","","","","","","","",""
"","html-keyboard-response","47","490174","0.0-78.0","wlokhbhp","","","","","","","","","","","","","2800","If eht press LEFT | If jlm press RIGHT","Inducer practice",""," ","","Practice","","","","","","","","","","","","","","",""
"","html-keyboard-response","48","490928","0.0-79.0","wlokhbhp","1280","720","","","","","","","","","","","null","+","Fixation - short","","null","","","","","","","","","","","","","","","","",""
"","html-keyboard-response","49","491657","0.0-80.0","wlokhbhp","","","","","","","","","","","","","728","jlm","Inducer practice","","j","","Practice","","","","true","","","","","j","1","","true","RIGHT","",""
"","html-keyboard-response","50","492420","0.0-83.0","wlokhbhp","1280","720","","","","","","","","","","","null","+","Fixation - short","","null","","","","","","","","","","","","","","","","",""
"","html-keyboard-response","51","498165","0.0-84.0","wlokhbhp","","","","","","","","","","","","","5744","If amb press LEFT | If yrp press RIGHT","Inducer practice",""," ","","Practice","","","","","","","","","","","","","","",""
"","html-keyboard-response","52","498930","0.0-85.0","wlokhbhp","1280","720","","","","","","","","","","","null","+","Fixation - short","","null","","","","","","","","","","","","","","","","",""
"","html-keyboard-response","53","499445","0.0-86.0","wlokhbhp","","","","","","","","","","","","","514","amb","Inducer practice","","f","","Practice","","","","true","","","","","f","1","","true","LEFT","",""
"","html-keyboard-response","54","500198","0.0-89.0","wlokhbhp","1280","720","","","","","","","","","","","null","+","Fixation - short","","null","","","","","","","","","","","","","","","","",""
"","html-keyboard-response","55","501920","0.0-90.0","wlokhbhp","","","","","","","","","","","","","1721","If ebe press LEFT | If vle press RIGHT","Inducer practice",""," ","","Practice","","","","","","","","","","","","","","",""
"","html-keyboard-response","56","502674","0.0-91.0","wlokhbhp","1280","720","","","","","","","","","","","null","+","Fixation - short","","null","","","","","","","","","","","","","","","","",""
"","html-keyboard-response","57","503116","0.0-92.0","wlokhbhp","","","","","","","","","","","","","441","ebe","Inducer practice","","f","","Practice","","","","true","","","","","f","1","","true","LEFT","",""
"","html-keyboard-response","58","503883","0.0-95.0","wlokhbhp","1280","720","","","","","","","","","","","null","+","Fixation - short","","null","","","","","","","","","","","","","","","","",""
"","html-keyboard-response","59","506137","0.0-96.0","wlokhbhp","","","","","","","","","","","","","2252","If rpw press LEFT | If mmo press RIGHT","Inducer practice",""," ","","Practice","","","","","","","","","","","","","","",""
"","html-keyboard-response","60","506898","0.0-97.0","wlokhbhp","1280","720","","","","","","","","","","","null","+","Fixation - short","","null","","","","","","","","","","","","","","","","",""
"","html-keyboard-response","61","507583","0.0-98.0","wlokhbhp","","","","","","","","","","","","","684","mmo","Inducer practice","","j","","Practice","","","","true","","","","","j","1","","true","RIGHT","",""
"","html-keyboard-response","62","508340","0.0-101.0","wlokhbhp","1280","720","","","","","","","","","","","null","+","Fixation - short","","null","","","","","","","","","","","","","","","","",""
"","html-keyboard-response","63","509541","0.0-102.0","wlokhbhp","","","","","","","","","","","","","1200","If wab press LEFT | If pmf press RIGHT","Inducer practice",""," ","","Practice","","","","","","","","","","","","","","",""
"","html-keyboard-response","64","510293","0.0-103.0","wlokhbhp","1280","720","","","","","","","","","","","null","+","Fixation - short","","null","","","","","","","","","","","","","","","","",""
"","html-keyboard-response","65","511318","0.0-104.0","wlokhbhp","","","","","","","","","","","","","1023","pmf","Inducer practice","","j","","Practice","","","","true","","","","","j","1","","true","RIGHT","",""
"","html-keyboard-response","66","512081","0.0-107.0","wlokhbhp","1280","720","","","","","","","","","","","null","+","Fixation - short","","null","","","","","","","","","","","","","","","","",""
"","instructions","67","532210","0.0-108.0","wlokhbhp","","","","","","","","","","","","[{""page_index"":0,""viewing_time"":20125}]","20125","Instructions","Final experiment explanation","","","","","","","","","","","","","","","","","","",""
"","html-keyboard-response","68","536061","0.0-109.0","wlokhbhp","","","","","","","","","","","","","2339","If byy press LEFT | If kmh press RIGHT","Cue practice",""," ","","Practice","","","","","","","","","","","","","","",""
"","html-keyboard-response","69","536816","0.0-110.0","wlokhbhp","1280","720","","","","","","","","","","","null","+","Fixation - short","","null","","","","","","","","","","","","","","","","",""
"","html-keyboard-response","70","537622","0.0-111.0","wlokhbhp","","","","","","","","","","","","","805","kmh","Cue practice","","j","","Practice","0","13","false","false","true","both pre & post","RIGHT","LEFT","f","0","false","","","",""
"","call-function","71","537623","0.0-113.0-0.0","wlokhbhp","","","","","","","","","","","","","","","","","","","","","","","","","","","","","","","","","",""
"","html-keyboard-response","72","537928","0.0-113.0-1.0","wlokhbhp","1280","720","","","","","","","","","","","null","Wrong","Feedback","","null","","","","","","","","","","","","","","","","",""
"","call-function","73","537929","0.0-113.0-2.0","wlokhbhp","","","","","","","","","","","","","","","","","","","","","","","","","","","","","","","","","",""
"","html-keyboard-response","74","538686","0.0-114.0","wlokhbhp","1280","720","","","","","","","","","","","null","+","Fixation - short","","null","","","","","","","","","","","","","","","","",""
"","html-keyboard-response","75","538929","0.0-115.0","wlokhbhp","","","","","","","","","","","","","241","kmh","Cue practice","","f","","Practice","1","13","false","false","false","both pre & post","RIGHT","RIGHT","j","0","true","","","",""
"","call-function","76","538929","0.0-117.0-0.0","wlokhbhp","","","","","","","","","","","","","","","","","","","","","","","","","","","","","","","","","",""
"","html-keyboard-response","77","539236","0.0-117.0-1.0","wlokhbhp","1280","720","","","","","","","","","","","null","Wrong","Feedback","","null","","","","","","","","","","","","","","","","",""
"","call-function","78","539236","0.0-117.0-2.0","wlokhbhp","","","","","","","","","","","","","","","","","","","","","","","","","","","","","","","","","",""
"","html-keyboard-response","79","539990","0.0-118.0","wlokhbhp","1280","720","","","","","","","","","","","null","+","Fixation - short","","null","","","","","","","","","","","","","","","","",""
"","html-keyboard-response","80","540287","0.0-119.0","wlokhbhp","","","","","","","","","","","","","296","byy","Cue practice","","j","","Practice","2","13","false","false","true","both pre & post","LEFT","LEFT","f","0","true","","","",""
"","call-function","81","540288","0.0-121.0-0.0","wlokhbhp","","","","","","","","","","","","","","","","","","","","","","","","","","","","","","","","","",""
"","html-keyboard-response","82","540603","0.0-121.0-1.0","wlokhbhp","1280","720","","","","","","","","","","","null","Wrong","Feedback","","null","","","","","","","","","","","","","","","","",""
"","call-function","83","540604","0.0-121.0-2.0","wlokhbhp","","","","","","","","","","","","","","","","","","","","","","","","","","","","","","","","","",""
"","html-keyboard-response","84","541370","0.0-122.0","wlokhbhp","1280","720","","","","","","","","","","","null","+","Fixation - short","","null","","","","","","","","","","","","","","","","",""
"","html-keyboard-response","85","542590","0.0-123.0","wlokhbhp","","","","","","","","","","","","","1218","byy","Cue practice","","f","","Practice","3","13","false","false","true","both pre & post","LEFT","LEFT","f","1","true","","","",""
"","html-keyboard-response","86","543342","0.0-126.0","wlokhbhp","1280","720","","","","","","","","","","","null","+","Fixation - short","","null","","","","","","","","","","","","","","","","",""
"","html-keyboard-response","87","544196","0.0-127.0","wlokhbhp","","","","","","","","","","","","","852","kmh","Cue practice","","f","","Practice","4","13","false","false","true","both pre & post","RIGHT","LEFT","f","1","false","","","",""
"","html-keyboard-response","88","544953","0.0-130.0","wlokhbhp","1280","720","","","","","","","","","","","null","+","Fixation - short","","null","","","","","","","","","","","","","","","","",""
"","html-keyboard-response","89","546692","0.0-131.0","wlokhbhp","","","","","","","","","","","","","1737","byy","Cue practice","","f","","Practice","5","13","false","false","false","both pre & post","LEFT","RIGHT","j","0","false","","","",""
"","call-function","90","546693","0.0-133.0-0.0","wlokhbhp","","","","","","","","","","","","","","","","","","","","","","","","","","","","","","","","","",""
"","html-keyboard-response","91","547009","0.0-133.0-1.0","wlokhbhp","1280","720","","","","","","","","","","","null","Wrong","Feedback","","null","","","","","","","","","","","","","","","","",""
"","call-function","92","547010","0.0-133.0-2.0","wlokhbhp","","","","","","","","","","","","","","","","","","","","","","","","","","","","","","","","","",""
"","html-keyboard-response","93","547762","0.0-134.0","wlokhbhp","1280","720","","","","","","","","","","","null","+","Fixation - short","","null","","","","","","","","","","","","","","","","",""
"","html-keyboard-response","94","548535","0.0-135.0","wlokhbhp","","","","","","","","","","","","","771","byy","Cue practice","","f","","Practice","6","13","false","false","true","both pre & post","LEFT","LEFT","f","1","true","","","",""
"","html-keyboard-response","95","549296","0.0-138.0","wlokhbhp","1280","720","","","","","","","","","","","null","+","Fixation - short","","null","","","","","","","","","","","","","","","","",""
"","html-keyboard-response","96","550041","0.0-139.0","wlokhbhp","","","","","","","","","","","","","745","byy","Cue practice","","j","","Practice","7","13","false","false","false","both pre & post","LEFT","RIGHT","j","1","false","","","",""
"","html-keyboard-response","97","550795","0.0-142.0","wlokhbhp","1280","720","","","","","","","","","","","null","+","Fixation - short","","null","","","","","","","","","","","","","","","","",""
"","html-keyboard-response","98","551431","0.0-143.0","wlokhbhp","","","","","","","","","","","","","635","byy","Cue practice","","j","","Practice","8","13","false","false","false","both pre & post","LEFT","RIGHT","j","1","false","","","",""
"","html-keyboard-response","99","552182","0.0-146.0","wlokhbhp","1280","720","","","","","","","","","","","null","+","Fixation - short","","null","","","","","","","","","","","","","","","","",""
"","html-keyboard-response","100","552897","0.0-147.0","wlokhbhp","","","","","","","","","","","","","714","byy","Cue practice","","j","","Practice","9","13","false","false","false","both pre & post","LEFT","RIGHT","j","1","false","","","",""
"","html-keyboard-response","101","553657","0.0-150.0","wlokhbhp","1280","720","","","","","","","","","","","null","+","Fixation - short","","null","","","","","","","","","","","","","","","","",""
"","html-keyboard-response","102","554230","0.0-151.0","wlokhbhp","","","","","","","","","","","","","572","byy","Cue practice","","f","","Practice","10","13","false","false","true","both pre & post","LEFT","LEFT","f","1","true","","","",""
"","html-keyboard-response","103","554985","0.0-154.0","wlokhbhp","1280","720","","","","","","","","","","","null","+","Fixation - short","","null","","","","","","","","","","","","","","","","",""
"","html-keyboard-response","104","555810","0.0-155.0","wlokhbhp","","","","","","","","","","","","","824","byy","Cue practice","","j","","Practice","11","13","false","false","false","both pre & post","LEFT","RIGHT","j","1","false","","","",""
"","html-keyboard-response","105","556573","0.0-158.0","wlokhbhp","1280","720","","","","","","","","","","","null","+","Fixation - short","","null","","","","","","","","","","","","","","","","",""
"","html-keyboard-response","106","557332","0.0-159.0","wlokhbhp","","","","","","","","","","","","","758","kmh","Cue practice","","f","","Practice","12","13","false","false","true","both pre & post","RIGHT","LEFT","f","1","false","","","",""
"","html-keyboard-response","107","558096","0.0-162.0","wlokhbhp","1280","720","","","","","","","","","","","null","+","Fixation - short","","null","","","","","","","","","","","","","","","","",""
"","canvas-keyboard-response","108","559359","0.0-163.0","wlokhbhp","","","","","","","","","","","","","null","Cue","Cue","","null","","Practice","12","","","false","","","","","","","","","","",""
"","html-keyboard-response","109","560120","0.0-164.0","wlokhbhp","1280","720","","","","","","","","","","","null","+","Fixation - short","","null","","","","","","","","","","","","","","","","",""
"","html-keyboard-response","110","560810","0.0-165.0","wlokhbhp","","","","","","","","","","","","","689","kmh","Cue practice","","f","","Practice","13","13","true","false","true","both pre & post","RIGHT","LEFT","f","1","false","","","",""
"","html-keyboard-response","111","561564","0.0-168.0","wlokhbhp","1280","720","","","","","","","","","","","null","+","Fixation - short","","null","","","","","","","","","","","","","","","","",""
"","html-keyboard-response","112","562241","0.0-169.0","wlokhbhp","","","","","","","","","","","","","676","byy","Cue practice","","f","","Practice","14","13","true","false","true","both pre & post","LEFT","LEFT","f","1","true","","","",""
"","html-keyboard-response","113","562994","0.0-172.0","wlokhbhp","1280","720","","","","","","","","","","","null","+","Fixation - short","","null","","","","","","","","","","","","","","","","",""
"","html-keyboard-response","114","563782","0.0-173.0","wlokhbhp","","","","","","","","","","","","","787","byy","Cue practice","","j","","Practice","15","13","true","false","false","both pre & post","LEFT","RIGHT","j","1","false","","","",""
"","html-keyboard-response","115","564536","0.0-176.0","wlokhbhp","1280","720","","","","","","","","","","","null","+","Fixation - short","","null","","","","","","","","","","","","","","","","",""
"","html-keyboard-response","116","566611","0.0-177.0","wlokhbhp","","","","","","","","","","","","","2075","byy","Inducer practice","","j","","Practice","","","","true","","","","","f","0","","false","LEFT","",""
"","call-function","117","566612","0.0-179.0-0.0","wlokhbhp","","","","","","","","","","","","","","","","","","","","","","","","","","","","","","","","","",""
"","html-keyboard-response","118","566917","0.0-179.0-1.0","wlokhbhp","1280","720","","","","","","","","","","","null","Wrong","Feedback","","null","","","","","","","","","","","","","","","","",""
"","call-function","119","566918","0.0-179.0-2.0","wlokhbhp","","","","","","","","","","","","","","","","","","","","","","","","","","","","","","","","","",""
"","html-keyboard-response","120","567684","0.0-180.0","wlokhbhp","1280","720","","","","","","","","","","","null","+","Fixation - short","","null","","","","","","","","","","","","","","","","",""
"","instructions","121","574680","0.0-181.0","wlokhbhp","","","","","","","","","","","","[{""page_index"":0,""viewing_time"":6995}]","6995","End practice","End of practice","","","","","","","","","","","","","","","","","","",""
"","html-keyboard-response","122","577700","0.0-182.0","wlokhbhp","1280","720","","","","","","","","","","","null","+","Fixation - long","","null","","","","","","","","","","","","","","","","",""
"","html-keyboard-response","123","582424","0.0-183.0","wlokhbhp","","","","","","","","","","","","","4723","If sdw press LEFT | If feg press RIGHT","Inducer instructions",""," ","","0","","","","","","","","","","","","","","",""
"","html-keyboard-response","124","583183","0.0-184.0","wlokhbhp","1280","720","","","","","","","","","","","null","+","Fixation - short","","null","","","","","","","","","","","","","","","","",""
"","html-keyboard-response","125","584155","0.0-185.0","wlokhbhp","","","","","","","","","","","","","971","feg","Diagnostic trial","","f","","0","0","10","false","false","true","both pre & post","RIGHT","LEFT","f","1","false","","","",""
"","html-keyboard-response","126","584908","0.0-188.0","wlokhbhp","1280","720","","","","","","","","","","","null","+","Fixation - short","","null","","","","","","","","","","","","","","","","",""
"","html-keyboard-response","127","586603","0.0-189.0","wlokhbhp","","","","","","","","","","","","","1694","sdw","Diagnostic trial","","j","","0","1","10","false","false","true","both pre & post","LEFT","LEFT","f","0","true","","","",""
"","call-function","128","586604","0.0-191.0-0.0","wlokhbhp","","","","","","","","","","","","","","","","","","","","","","","","","","","","","","","","","",""
"","html-keyboard-response","129","586919","0.0-191.0-1.0","wlokhbhp","1280","720","","","","","","","","","","","null","Wrong","Feedback","","null","","","","","","","","","","","","","","","","",""
"","call-function","130","586920","0.0-191.0-2.0","wlokhbhp","","","","","","","","","","","","","","","","","","","","","","","","","","","","","","","","","",""
"","html-keyboard-response","131","587672","0.0-192.0","wlokhbhp","1280","720","","","","","","","","","","","null","+","Fixation - short","","null","","","","","","","","","","","","","","","","",""
"","html-keyboard-response","132","588812","0.0-193.0","wlokhbhp","","","","","","","","","","","","","1139","sdw","Diagnostic trial","","f","","0","2","10","false","false","true","both pre & post","LEFT","LEFT","f","1","true","","","",""
"","html-keyboard-response","133","589565","0.0-196.0","wlokhbhp","1280","720","","","","","","","","","","","null","+","Fixation - short","","null","","","","","","","","","","","","","","","","",""
"","html-keyboard-response","134","590303","0.0-197.0","wlokhbhp","","","","","","","","","","","","","737","feg","Diagnostic trial","","f","","0","3","10","false","false","true","both pre & post","RIGHT","LEFT","f","1","false","","","",""
"","html-keyboard-response","135","591064","0.0-200.0","wlokhbhp","1280","720","","","","","","","","","","","null","+","Fixation - short","","null","","","","","","","","","","","","","","","","",""
"","html-keyboard-response","136","591610","0.0-201.0","wlokhbhp","","","","","","","","","","","","","545","sdw","Diagnostic trial","","j","","0","4","10","false","false","false","both pre & post","LEFT","RIGHT","j","1","false","","","",""
"","html-keyboard-response","137","592368","0.0-204.0","wlokhbhp","1280","720","","","","","","","","","","","null","+","Fixation - short","","null","","","","","","","","","","","","","","","","",""
"","html-keyboard-response","138","592978","0.0-205.0","wlokhbhp","","","","","","","","","","","","","609","feg","Diagnostic trial","","j","","0","5","10","false","false","false","both pre & post","RIGHT","RIGHT","j","1","true","","","",""
"","html-keyboard-response","139","593740","0.0-208.0","wlokhbhp","1280","720","","","","","","","","","","","null","+","Fixation - short","","null","","","","","","","","","","","","","","","","",""
"","html-keyboard-response","140","594458","0.0-209.0","wlokhbhp","","","","","","","","","","","","","716","sdw","Diagnostic trial","","j","","0","6","10","false","false","false","both pre & post","LEFT","RIGHT","j","1","false","","","",""
"","html-keyboard-response","141","595225","0.0-212.0","wlokhbhp","1280","720","","","","","","","","","","","null","+","Fixation - short","","null","","","","","","","","","","","","","","","","",""
"","html-keyboard-response","142","595737","0.0-213.0","wlokhbhp","","","","","","","","","","","","","511","feg","Diagnostic trial","","f","","0","7","10","false","false","true","both pre & post","RIGHT","LEFT","f","1","false","","","",""
"","html-keyboard-response","143","596496","0.0-216.0","wlokhbhp","1280","720","","","","","","","","","","","null","+","Fixation - short","","null","","","","","","","","","","","","","","","","",""
"","html-keyboard-response","144","597686","0.0-217.0","wlokhbhp","","","","","","","","","","","","","1189","sdw","Diagnostic trial","","j","","0","8","10","false","false","false","both pre & post","LEFT","RIGHT","j","1","false","","","",""
"","html-keyboard-response","145","598451","0.0-220.0","wlokhbhp","1280","720","","","","","","","","","","","null","+","Fixation - short","","null","","","","","","","","","","","","","","","","",""
"","html-keyboard-response","146","599251","0.0-221.0","wlokhbhp","","","","","","","","","","","","","799","feg","Diagnostic trial","","f","","0","9","10","false","false","true","both pre & post","RIGHT","LEFT","f","1","false","","","",""
"","html-keyboard-response","147","600013","0.0-224.0","wlokhbhp","1280","720","","","","","","","","","","","null","+","Fixation - short","","null","","","","","","","","","","","","","","","","",""
"","canvas-keyboard-response","148","601265","0.0-225.0","wlokhbhp","","","","","","","","","","","","","null","Cue","Cue","","null","","0","9","","","false","","","","","","","","","","",""
"","html-keyboard-response","149","602021","0.0-226.0","wlokhbhp","1280","720","","","","","","","","","","","null","+","Fixation - short","","null","","","","","","","","","","","","","","","","",""
"","html-keyboard-response","150","602661","0.0-227.0","wlokhbhp","","","","","","","","","","","","","639","feg","Diagnostic trial","","j","","0","10","10","true","false","false","both pre & post","RIGHT","RIGHT","j","1","true","","","",""
"","html-keyboard-response","151","603412","0.0-230.0","wlokhbhp","1280","720","","","","","","","","","","","null","+","Fixation - short","","null","","","","","","","","","","","","","","","","",""
"","html-keyboard-response","152","604139","0.0-231.0","wlokhbhp","","","","","","","","","","","","","726","sdw","Diagnostic trial","","f","","0","11","10","true","false","true","both pre & post","LEFT","LEFT","f","1","true","","","",""
"","html-keyboard-response","153","604903","0.0-234.0","wlokhbhp","1280","720","","","","","","","","","","","null","+","Fixation - short","","null","","","","","","","","","","","","","","","","",""
"","html-keyboard-response","154","605897","0.0-235.0","wlokhbhp","","","","","","","","","","","","","993","sdw","Inducer trial","","j","","0","","","","true","","","","","f","0","","false","LEFT","",""
"","call-function","155","605898","0.0-237.0-0.0","wlokhbhp","","","","","","","","","","","","","","","","","","","","","","","","","","","","","","","","","",""
"","html-keyboard-response","156","606199","0.0-237.0-1.0","wlokhbhp","1280","720","","","","","","","","","","","null","Wrong","Feedback","","null","","","","","","","","","","","","","","","","",""
"","call-function","157","606200","0.0-237.0-2.0","wlokhbhp","","","","","","","","","","","","","","","","","","","","","","","","","","","","","","","","","",""
"","html-keyboard-response","158","606963","0.0-238.0","wlokhbhp","1280","720","","","","","","","","","","","null","+","Fixation - short","","null","","","","","","","","","","","","","","","","",""
"","html-keyboard-response","159","608709","0.0-239.0","wlokhbhp","","","","","","","","","","","","","1745","If ibg press LEFT | If vsc press RIGHT","Inducer instructions",""," ","","1","","","","","","","","","","","","","","",""
"","html-keyboard-response","160","609468","0.0-240.0","wlokhbhp","1280","720","","","","","","","","","","","null","+","Fixation - short","","null","","","","","","","","","","","","","","","","",""
"","html-keyboard-response","161","610722","0.0-241.0","wlokhbhp","","","","","","","","","","","","","1252","ibg","Diagnostic trial","","j","","1","0","11","false","false","false","both pre & post","LEFT","RIGHT","j","1","false","","","",""
"","html-keyboard-response","162","611476","0.0-244.0","wlokhbhp","1280","720","","","","","","","","","","","null","+","Fixation - short","","null","","","","","","","","","","","","","","","","",""
"","html-keyboard-response","163","612389","0.0-245.0","wlokhbhp","","","","","","","","","","","","","912","vsc","Diagnostic trial","","j","","1","1","11","false","false","false","both pre & post","RIGHT","RIGHT","j","1","true","","","",""
"","html-keyboard-response","164","613153","0.0-248.0","wlokhbhp","1280","720","","","","","","","","","","","null","+","Fixation - short","","null","","","","","","","","","","","","","","","","",""
"","html-keyboard-response","165","613604","0.0-249.0","wlokhbhp","","","","","","","","","","","","","450","vsc","Diagnostic trial","","j","","1","2","11","false","false","false","both pre & post","RIGHT","RIGHT","j","1","true","","","",""
"","html-keyboard-response","166","614371","0.0-252.0","wlokhbhp","1280","720","","","","","","","","","","","null","+","Fixation - short","","null","","","","","","","","","","","","","","","","",""
"","html-keyboard-response","167","614832","0.0-253.0","wlokhbhp","","","","","","","","","","","","","460","vsc","Diagnostic trial","","f","","1","3","11","false","false","true","both pre & post","RIGHT","LEFT","f","1","false","","","",""
"","html-keyboard-response","168","615589","0.0-256.0","wlokhbhp","1280","720","","","","","","","","","","","null","+","Fixation - short","","null","","","","","","","","","","","","","","","","",""
"","html-keyboard-response","169","616704","0.0-257.0","wlokhbhp","","","","","","","","","","","","","1113","ibg","Diagnostic trial","","j","","1","4","11","false","false","false","both pre & post","LEFT","RIGHT","j","1","false","","","",""
"","html-keyboard-response","170","617457","0.0-260.0","wlokhbhp","1280","720","","","","","","","","","","","null","+","Fixation - short","","null","","","","","","","","","","","","","","","","",""
"","html-keyboard-response","171","617969","0.0-261.0","wlokhbhp","","","","","","","","","","","","","511","vsc","Diagnostic trial","","j","","1","5","11","false","false","false","both pre & post","RIGHT","RIGHT","j","1","true","","","",""
"","html-keyboard-response","172","618735","0.0-264.0","wlokhbhp","1280","720","","","","","","","","","","","null","+","Fixation - short","","null","","","","","","","","","","","","","","","","",""
"","html-keyboard-response","173","619144","0.0-265.0","wlokhbhp","","","","","","","","","","","","","409","vsc","Diagnostic trial","","j","","1","6","11","false","false","true","both pre & post","RIGHT","LEFT","f","0","false","","","",""
"","call-function","174","619145","0.0-267.0-0.0","wlokhbhp","","","","","","","","","","","","","","","","","","","","","","","","","","","","","","","","","",""
"","html-keyboard-response","175","619453","0.0-267.0-1.0","wlokhbhp","1280","720","","","","","","","","","","","null","Wrong","Feedback","","null","","","","","","","","","","","","","","","","",""
"","call-function","176","619454","0.0-267.0-2.0","wlokhbhp","","","","","","","","","","","","","","","","","","","","","","","","","","","","","","","","","",""
"","html-keyboard-response","177","620205","0.0-268.0","wlokhbhp","1280","720","","","","","","","","","","","null","+","Fixation - short","","null","","","","","","","","","","","","","","","","",""
"","html-keyboard-response","178","620886","0.0-269.0","wlokhbhp","","","","","","","","","","","","","679","vsc","Diagnostic trial","","f","","1","7","11","false","false","true","both pre & post","RIGHT","LEFT","f","1","false","","","",""
"","html-keyboard-response","179","621653","0.0-272.0","wlokhbhp","1280","720","","","","","","","","","","","null","+","Fixation - short","","null","","","","","","","","","","","","","","","","",""
"","html-keyboard-response","180","622316","0.0-273.0","wlokhbhp","","","","","","","","","","","","","662","ibg","Diagnostic trial","","j","","1","8","11","false","false","false","both pre & post","LEFT","RIGHT","j","1","false","","","",""
"","html-keyboard-response","181","623081","0.0-276.0","wlokhbhp","1280","720","","","","","","","","","","","null","+","Fixation - short","","null","","","","","","","","","","","","","","","","",""
"","html-keyboard-response","182","623911","0.0-277.0","wlokhbhp","","","","","","","","","","","","","828","ibg","Diagnostic trial","","f","","1","9","11","false","false","true","both pre & post","LEFT","LEFT","f","1","true","","","",""
"","html-keyboard-response","183","624667","0.0-280.0","wlokhbhp","1280","720","","","","","","","","","","","null","+","Fixation - short","","null","","","","","","","","","","","","","","","","",""
"","html-keyboard-response","184","625277","0.0-281.0","wlokhbhp","","","","","","","","","","","","","609","vsc","Diagnostic trial","","j","","1","10","11","false","false","false","both pre & post","RIGHT","RIGHT","j","1","true","","","",""
"","html-keyboard-response","185","626039","0.0-284.0","wlokhbhp","1280","720","","","","","","","","","","","null","+","Fixation - short","","null","","","","","","","","","","","","","","","","",""
"","canvas-keyboard-response","186","627303","0.0-285.0","wlokhbhp","","","","","","","","","","","","","null","Cue","Cue","","null","","1","10","","","false","","","","","","","","","","",""
"","html-keyboard-response","187","628069","0.0-286.0","wlokhbhp","1280","720","","","","","","","","","","","null","+","Fixation - short","","null","","","","","","","","","","","","","","","","",""
"","html-keyboard-response","188","629104","0.0-287.0","wlokhbhp","","","","","","","","","","","","","1034","ibg","Diagnostic trial","","j","","1","11","11","true","false","false","both pre & post","LEFT","RIGHT","j","1","false","","","",""
"","html-keyboard-response","189","629857","0.0-290.0","wlokhbhp","1280","720","","","","","","","","","","","null","+","Fixation - short","","null","","","","","","","","","","","","","","","","",""
"","html-keyboard-response","190","631137","0.0-291.0","wlokhbhp","","","","","","","","","","","","","1278","vsc","Inducer trial","","j","","1","","","","true","","","","","j","1","","false","RIGHT","",""
"","html-keyboard-response","191","631901","0.0-294.0","wlokhbhp","1280","720","","","","","","","","","","","null","+","Fixation - short","","null","","","","","","","","","","","","","","","","",""
"","html-keyboard-response","192","634640","0.0-295.0","wlokhbhp","","","","","","","","","","","","","2738","If jup press LEFT | If jey press RIGHT","Inducer instructions",""," ","","2","","","","","","","","","","","","","","",""
"","html-keyboard-response","193","635405","0.0-296.0","wlokhbhp","1280","720","","","","","","","","","","","null","+","Fixation - short","","null","","","","","","","","","","","","","","","","",""
"","html-keyboard-response","194","636568","0.0-297.0","wlokhbhp","","","","","","","","","","","","","1161","jup","Diagnostic trial","","f","","2","0","4","false","false","true","both pre & post","LEFT","LEFT","f","1","true","","","",""
"","html-keyboard-response","195","637332","0.0-300.0","wlokhbhp","1280","720","","","","","","","","","","","null","+","Fixation - short","","null","","","","","","","","","","","","","","","","",""
"","html-keyboard-response","196","637913","0.0-301.0","wlokhbhp","","","","","","","","","","","","","580","jey","Diagnostic trial","","j","","2","1","4","false","false","false","both pre & post","RIGHT","RIGHT","j","1","true","","","",""
"","html-keyboard-response","197","638672","0.0-304.0","wlokhbhp","1280","720","","","","","","","","","","","null","+","Fixation - short","","null","","","","","","","","","","","","","","","","",""
"","html-keyboard-response","198","639367","0.0-305.0","wlokhbhp","","","","","","","","","","","","","694","jey","Diagnostic trial","","f","","2","2","4","false","false","true","both pre & post","RIGHT","LEFT","f","1","false","","","",""
"","html-keyboard-response","199","640122","0.0-308.0","wlokhbhp","1280","720","","","","","","","","","","","null","+","Fixation - short","","null","","","","","","","","","","","","","","","","",""
"","html-keyboard-response","200","640683","0.0-309.0","wlokhbhp","","","","","","","","","","","","","560","jup","Diagnostic trial","","f","","2","3","4","false","false","true","both pre & post","LEFT","LEFT","f","1","true","","","",""
"","html-keyboard-response","201","641449","0.0-312.0","wlokhbhp","1280","720","","","","","","","","","","","null","+","Fixation - short","","null","","","","","","","","","","","","","","","","",""
"","canvas-keyboard-response","202","642709","0.0-313.0","wlokhbhp","","","","","","","","","","","","","null","Cue","Cue","","null","","2","3","","","false","","","","","","","","","","",""
"","html-keyboard-response","203","643461","0.0-314.0","wlokhbhp","1280","720","","","","","","","","","","","null","+","Fixation - short","","null","","","","","","","","","","","","","","","","",""
"","html-keyboard-response","204","644441","0.0-315.0","wlokhbhp","","","","","","","","","","","","","979","jup","Diagnostic trial","","f","","2","4","4","true","false","true","both pre & post","LEFT","LEFT","f","1","true","","","",""
"","html-keyboard-response","205","645202","0.0-318.0","wlokhbhp","1280","720","","","","","","","","","","","null","+","Fixation - short","","null","","","","","","","","","","","","","","","","",""
"","html-keyboard-response","206","646141","0.0-319.0","wlokhbhp","","","","","","","","","","","","","938","jup","Diagnostic trial","","f","","2","5","4","true","false","true","both pre & post","LEFT","LEFT","f","1","true","","","",""
"","html-keyboard-response","207","646899","0.0-322.0","wlokhbhp","1280","720","","","","","","","","","","","null","+","Fixation - short","","null","","","","","","","","","","","","","","","","",""
"","html-keyboard-response","208","647515","0.0-323.0","wlokhbhp","","","","","","","","","","","","","614","jup","Diagnostic trial","","j","","2","6","4","true","false","false","both pre & post","LEFT","RIGHT","j","1","false","","","",""
"","html-keyboard-response","209","648281","0.0-326.0","wlokhbhp","1280","720","","","","","","","","","","","null","+","Fixation - short","","null","","","","","","","","","","","","","","","","",""
"","html-keyboard-response","210","648992","0.0-327.0","wlokhbhp","","","","","","","","","","","","","709","jup","Inducer trial","","f","","2","","","","true","","","","","f","1","","false","LEFT","",""
"","html-keyboard-response","211","649749","0.0-330.0","wlokhbhp","1280","720","","","","","","","","","","","null","+","Fixation - short","","null","","","","","","","","","","","","","","","","",""
"","html-keyboard-response","212","652605","0.0-331.0","wlokhbhp","","","","","","","","","","","","","2856","If ume press LEFT | If faq press RIGHT","Inducer instructions",""," ","","3","","","","","","","","","","","","","","",""
"","html-keyboard-response","213","653370","0.0-332.0","wlokhbhp","1280","720","","","","","","","","","","","null","+","Fixation - short","","null","","","","","","","","","","","","","","","","",""
"","html-keyboard-response","214","654662","0.0-333.0","wlokhbhp","","","","","","","","","","","","","1291","faq","Diagnostic trial","","j","","3","0","10","false","false","false","both pre & post","RIGHT","RIGHT","j","1","true","","","",""
"","html-keyboard-response","215","655423","0.0-336.0","wlokhbhp","1280","720","","","","","","","","","","","null","+","Fixation - short","","null","","","","","","","","","","","","","","","","",""
"","html-keyboard-response","216","656084","0.0-337.0","wlokhbhp","","","","","","","","","","","","","659","faq","Diagnostic trial","","j","","3","1","10","false","false","false","both pre & post","RIGHT","RIGHT","j","1","true","","","",""
"","html-keyboard-response","217","656841","0.0-340.0","wlokhbhp","1280","720","","","","","","","","","","","null","+","Fixation - short","","null","","","","","","","","","","","","","","","","",""
"","html-keyboard-response","218","657733","0.0-341.0","wlokhbhp","","","","","","","","","","","","","892","ume","Diagnostic trial","","f","","3","2","10","false","false","true","both pre & post","LEFT","LEFT","f","1","true","","","",""
"","html-keyboard-response","219","658494","0.0-344.0","wlokhbhp","1280","720","","","","","","","","","","","null","+","Fixation - short","","null","","","","","","","","","","","","","","","","",""
"","html-keyboard-response","220","659196","0.0-345.0","wlokhbhp","","","","","","","","","","","","","701","ume","Diagnostic trial","","j","","3","3","10","false","false","false","both pre & post","LEFT","RIGHT","j","1","false","","","",""
"","html-keyboard-response","221","659953","0.0-348.0","wlokhbhp","1280","720","","","","","","","","","","","null","+","Fixation - short","","null","","","","","","","","","","","","","","","","",""
"","html-keyboard-response","222","660885","0.0-349.0","wlokhbhp","","","","","","","","","","","","","931","faq","Diagnostic trial","","j","","3","4","10","false","false","false","both pre & post","RIGHT","RIGHT","j","1","true","","","",""
"","html-keyboard-response","223","661644","0.0-352.0","wlokhbhp","1280","720","","","","","","","","","","","null","+","Fixation - short","","null","","","","","","","","","","","","","","","","",""
"","html-keyboard-response","224","662349","0.0-353.0","wlokhbhp","","","","","","","","","","","","","704","ume","Diagnostic trial","","j","","3","5","10","false","false","false","both pre & post","LEFT","RIGHT","j","1","false","","","",""
"","html-keyboard-response","225","663107","0.0-356.0","wlokhbhp","1280","720","","","","","","","","","","","null","+","Fixation - short","","null","","","","","","","","","","","","","","","","",""
"","html-keyboard-response","226","663575","0.0-357.0","wlokhbhp","","","","","","","","","","","","","467","faq","Diagnostic trial","","j","","3","6","10","false","false","false","both pre & post","RIGHT","RIGHT","j","1","true","","","",""
"","html-keyboard-response","227","664327","0.0-360.0","wlokhbhp","1280","720","","","","","","","","","","","null","+","Fixation - short","","null","","","","","","","","","","","","","","","","",""
"","html-keyboard-response","228","664739","0.0-361.0","wlokhbhp","","","","","","","","","","","","","410","faq","Diagnostic trial","","j","","3","7","10","false","false","false","both pre & post","RIGHT","RIGHT","j","1","true","","","",""
"","html-keyboard-response","229","665495","0.0-364.0","wlokhbhp","1280","720","","","","","","","","","","","null","+","Fixation - short","","null","","","","","","","","","","","","","","","","",""
"","html-keyboard-response","230","666286","0.0-365.0","wlokhbhp","","","","","","","","","","","","","790","faq","Diagnostic trial","","f","","3","8","10","false","false","true","both pre & post","RIGHT","LEFT","f","1","false","","","",""
"","html-keyboard-response","231","667048","0.0-368.0","wlokhbhp","1280","720","","","","","","","","","","","null","+","Fixation - short","","null","","","","","","","","","","","","","","","","",""
"","html-keyboard-response","232","667729","0.0-369.0","wlokhbhp","","","","","","","","","","","","","680","faq","Diagnostic trial","","j","","3","9","10","false","false","false","both pre & post","RIGHT","RIGHT","j","1","true","","","",""
"","html-keyboard-response","233","668487","0.0-372.0","wlokhbhp","1280","720","","","","","","","","","","","null","+","Fixation - short","","null","","","","","","","","","","","","","","","","",""
"","canvas-keyboard-response","234","669748","0.0-373.0","wlokhbhp","","","","","","","","","","","","","null","Cue","Cue","","null","","3","9","","","false","","","","","","","","","","",""
"","html-keyboard-response","235","670505","0.0-374.0","wlokhbhp","1280","720","","","","","","","","","","","null","+","Fixation - short","","null","","","","","","","","","","","","","","","","",""
"","html-keyboard-response","236","671310","0.0-375.0","wlokhbhp","","","","","","","","","","","","","804","ume","Diagnostic trial","","j","","3","10","10","true","false","false","both pre & post","LEFT","RIGHT","j","1","false","","","",""
"","html-keyboard-response","237","672074","0.0-378.0","wlokhbhp","1280","720","","","","","","","","","","","null","+","Fixation - short","","null","","","","","","","","","","","","","","","","",""
"","html-keyboard-response","238","672560","0.0-379.0","wlokhbhp","","","","","","","","","","","","","485","ume","Diagnostic trial","","j","","3","11","10","true","false","false","both pre & post","LEFT","RIGHT","j","1","false","","","",""
"","html-keyboard-response","239","673313","0.0-382.0","wlokhbhp","1280","720","","","","","","","","","","","null","+","Fixation - short","","null","","","","","","","","","","","","","","","","",""
"","html-keyboard-response","240","673686","0.0-383.0","wlokhbhp","","","","","","","","","","","","","372","ume","Diagnostic trial","","j","","3","12","10","true","false","true","both pre & post","LEFT","LEFT","f","0","true","","","",""
"","call-function","241","673687","0.0-385.0-0.0","wlokhbhp","","","","","","","","","","","","","","","","","","","","","","","","","","","","","","","","","",""
"","html-keyboard-response","242","673993","0.0-385.0-1.0","wlokhbhp","1280","720","","","","","","","","","","","null","Wrong","Feedback","","null","","","","","","","","","","","","","","","","",""
"","call-function","243","673994","0.0-385.0-2.0","wlokhbhp","","","","","","","","","","","","","","","","","","","","","","","","","","","","","","","","","",""
"","html-keyboard-response","244","674748","0.0-386.0","wlokhbhp","1280","720","","","","","","","","","","","null","+","Fixation - short","","null","","","","","","","","","","","","","","","","",""
"","html-keyboard-response","245","675434","0.0-387.0","wlokhbhp","","","","","","","","","","","","","686","ume","Diagnostic trial","","f","","3","13","10","true","false","true","both pre & post","LEFT","LEFT","f","1","true","","","",""
"","html-keyboard-response","246","676195","0.0-390.0","wlokhbhp","1280","720","","","","","","","","","","","null","+","Fixation - short","","null","","","","","","","","","","","","","","","","",""
"","html-keyboard-response","247","678047","0.0-391.0","wlokhbhp","","","","","","","","","","","","","1850","faq","Inducer trial","","j","","3","","","","true","","","","","j","1","","false","RIGHT","",""
"","html-keyboard-response","248","678799","0.0-394.0","wlokhbhp","1280","720","","","","","","","","","","","null","+","Fixation - short","","null","","","","","","","","","","","","","","","","",""
"","html-keyboard-response","249","680095","0.0-395.0","wlokhbhp","","","","","","","","","","","","","1295","If dlg press LEFT | If snx press RIGHT","Inducer instructions",""," ","","4","","","","","","","","","","","","","","",""
"","html-keyboard-response","250","680854","0.0-396.0","wlokhbhp","1280","720","","","","","","","","","","","null","+","Fixation - short","","null","","","","","","","","","","","","","","","","",""
"","html-keyboard-response","251","681993","0.0-397.0","wlokhbhp","","","","","","","","","","","","","1138","dlg","Diagnostic trial","","f","","4","0","6","false","false","true","both pre & post","LEFT","LEFT","f","1","true","","","",""
"","html-keyboard-response","252","682753","0.0-400.0","wlokhbhp","1280","720","","","","","","","","","","","null","+","Fixation - short","","null","","","","","","","","","","","","","","","","",""
"","html-keyboard-response","253","683297","0.0-401.0","wlokhbhp","","","","","","","","","","","","","543","snx","Diagnostic trial","","j","","4","1","6","false","false","false","both pre & post","RIGHT","RIGHT","j","1","true","","","",""
"","html-keyboard-response","254","684049","0.0-404.0","wlokhbhp","1280","720","","","","","","","","","","","null","+","Fixation - short","","null","","","","","","","","","","","","","","","","",""
"","html-keyboard-response","255","684608","0.0-405.0","wlokhbhp","","","","","","","","","","","","","557","snx","Diagnostic trial","","f","","4","2","6","false","false","true","both pre & post","RIGHT","LEFT","f","1","false","","","",""
"","html-keyboard-response","256","685360","0.0-408.0","wlokhbhp","1280","720","","","","","","","","","","","null","+","Fixation - short","","null","","","","","","","","","","","","","","","","",""
"","html-keyboard-response","257","686116","0.0-409.0","wlokhbhp","","","","","","","","","","","","","755","dlg","Diagnostic trial","","f","","4","3","6","false","false","true","both pre & post","LEFT","LEFT","f","1","true","","","",""
"","html-keyboard-response","258","686879","0.0-412.0","wlokhbhp","1280","720","","","","","","","","","","","null","+","Fixation - short","","null","","","","","","","","","","","","","","","","",""
"","html-keyboard-response","259","687739","0.0-413.0","wlokhbhp","","","","","","","","","","","","","859","snx","Diagnostic trial","","f","","4","4","6","false","false","true","both pre & post","RIGHT","LEFT","f","1","false","","","",""
"","html-keyboard-response","260","688502","0.0-416.0","wlokhbhp","1280","720","","","","","","","","","","","null","+","Fixation - short","","null","","","","","","","","","","","","","","","","",""
"","html-keyboard-response","261","689135","0.0-417.0","wlokhbhp","","","","","","","","","","","","","631","snx","Diagnostic trial","","j","","4","5","6","false","false","false","both pre & post","RIGHT","RIGHT","j","1","true","","","",""
"","html-keyboard-response","262","689895","0.0-420.0","wlokhbhp","1280","720","","","","","","","","","","","null","+","Fixation - short","","null","","","","","","","","","","","","","","","","",""
"","canvas-keyboard-response","263","691152","0.0-421.0","wlokhbhp","","","","","","","","","","","","","null","Cue","Cue","","null","","4","5","","","false","","","","","","","","","","",""
"","html-keyboard-response","264","691915","0.0-422.0","wlokhbhp","1280","720","","","","","","","","","","","null","+","Fixation - short","","null","","","","","","","","","","","","","","","","",""
"","html-keyboard-response","265","692639","0.0-423.0","wlokhbhp","","","","","","","","","","","","","723","snx","Diagnostic trial","","j","","4","6","6","true","false","false","both pre & post","RIGHT","RIGHT","j","1","true","","","",""
"","html-keyboard-response","266","693405","0.0-426.0","wlokhbhp","1280","720","","","","","","","","","","","null","+","Fixation - short","","null","","","","","","","","","","","","","","","","",""
"","html-keyboard-response","267","693953","0.0-427.0","wlokhbhp","","","","","","","","","","","","","546","snx","Diagnostic trial","","j","","4","7","6","true","false","false","both pre & post","RIGHT","RIGHT","j","1","true","","","",""
"","html-keyboard-response","268","694719","0.0-430.0","wlokhbhp","1280","720","","","","","","","","","","","null","+","Fixation - short","","null","","","","","","","","","","","","","","","","",""
"","html-keyboard-response","269","695147","0.0-431.0","wlokhbhp","","","","","","","","","","","","","427","snx","Diagnostic trial","","j","","4","8","6","true","false","false","both pre & post","RIGHT","RIGHT","j","1","true","","","",""
"","html-keyboard-response","270","695907","0.0-434.0","wlokhbhp","1280","720","","","","","","","","","","","null","+","Fixation - short","","null","","","","","","","","","","","","","","","","",""
"","html-keyboard-response","271","696460","0.0-435.0","wlokhbhp","","","","","","","","","","","","","552","dlg","Diagnostic trial","","f","","4","9","6","true","false","true","both pre & post","LEFT","LEFT","f","1","true","","","",""
"","html-keyboard-response","272","697225","0.0-438.0","wlokhbhp","1280","720","","","","","","","","","","","null","+","Fixation - short","","null","","","","","","","","","","","","","","","","",""
"","html-keyboard-response","273","698048","0.0-439.0","wlokhbhp","","","","","","","","","","","","","822","snx","Inducer trial","","j","","4","","","","true","","","","","j","1","","false","RIGHT","",""
"","html-keyboard-response","274","698803","0.0-442.0","wlokhbhp","1280","720","","","","","","","","","","","null","+","Fixation - short","","null","","","","","","","","","","","","","","","","",""
"","html-keyboard-response","275","699540","0.0-443.0","wlokhbhp","","","","","","","","","","","","","736","If yna press LEFT | If uus press RIGHT","Inducer instructions",""," ","","5","","","","","","","","","","","","","","",""
"","html-keyboard-response","276","700304","0.0-444.0","wlokhbhp","1280","720","","","","","","","","","","","null","+","Fixation - short","","null","","","","","","","","","","","","","","","","",""
"","html-keyboard-response","277","701139","0.0-445.0","wlokhbhp","","","","","","","","","","","","","835","yna","Diagnostic trial","","f","","5","0","6","false","false","true","both pre & post","LEFT","LEFT","f","1","true","","","",""
"","html-keyboard-response","278","701896","0.0-448.0","wlokhbhp","1280","720","","","","","","","","","","","null","+","Fixation - short","","null","","","","","","","","","","","","","","","","",""
"","html-keyboard-response","279","702670","0.0-449.0","wlokhbhp","","","","","","","","","","","","","773","uus","Diagnostic trial","","f","","5","1","6","false","false","true","both pre & post","RIGHT","LEFT","f","1","false","","","",""
"","html-keyboard-response","280","703423","0.0-452.0","wlokhbhp","1280","720","","","","","","","","","","","null","+","Fixation - short","","null","","","","","","","","","","","","","","","","",""
"","html-keyboard-response","281","703909","0.0-453.0","wlokhbhp","","","","","","","","","","","","","485","uus","Diagnostic trial","","f","","5","2","6","false","false","true","both pre & post","RIGHT","LEFT","f","1","false","","","",""
"","html-keyboard-response","282","704668","0.0-456.0","wlokhbhp","1280","720","","","","","","","","","","","null","+","Fixation - short","","null","","","","","","","","","","","","","","","","",""
"","html-keyboard-response","283","705804","0.0-457.0","wlokhbhp","","","","","","","","","","","","","1135","yna","Diagnostic trial","","j","","5","3","6","false","false","false","both pre & post","LEFT","RIGHT","j","1","false","","","",""
"","html-keyboard-response","284","706557","0.0-460.0","wlokhbhp","1280","720","","","","","","","","","","","null","+","Fixation - short","","null","","","","","","","","","","","","","","","","",""
"","html-keyboard-response","285","707303","0.0-461.0","wlokhbhp","","","","","","","","","","","","","745","yna","Diagnostic trial","","j","","5","4","6","false","false","false","both pre & post","LEFT","RIGHT","j","1","false","","","",""
"","html-keyboard-response","286","708070","0.0-464.0","wlokhbhp","1280","720","","","","","","","","","","","null","+","Fixation - short","","null","","","","","","","","","","","","","","","","",""
"","html-keyboard-response","287","708673","0.0-465.0","wlokhbhp","","","","","","","","","","","","","601","uus","Diagnostic trial","","j","","5","5","6","false","false","false","both pre & post","RIGHT","RIGHT","j","1","true","","","",""
"","html-keyboard-response","288","709437","0.0-468.0","wlokhbhp","1280","720","","","","","","","","","","","null","+","Fixation - short","","null","","","","","","","","","","","","","","","","",""
"","canvas-keyboard-response","289","710703","0.0-469.0","wlokhbhp","","","","","","","","","","","","","null","Cue","Cue","","null","","5","5","","","false","","","","","","","","","","",""
"","html-keyboard-response","290","711455","0.0-470.0","wlokhbhp","1280","720","","","","","","","","","","","null","+","Fixation - short","","null","","","","","","","","","","","","","","","","",""
"","html-keyboard-response","291","712006","0.0-471.0","wlokhbhp","","","","","","","","","","","","","550","uus","Diagnostic trial","","j","","5","6","6","true","false","false","both pre & post","RIGHT","RIGHT","j","1","true","","","",""
"","html-keyboard-response","292","712769","0.0-474.0","wlokhbhp","1280","720","","","","","","","","","","","null","+","Fixation - short","","null","","","","","","","","","","","","","","","","",""
"","html-keyboard-response","293","713266","0.0-475.0","wlokhbhp","","","","","","","","","","","","","496","uus","Diagnostic trial","","j","","5","7","6","true","false","false","both pre & post","RIGHT","RIGHT","j","1","true","","","",""
"","html-keyboard-response","294","714029","0.0-478.0","wlokhbhp","1280","720","","","","","","","","","","","null","+","Fixation - short","","null","","","","","","","","","","","","","","","","",""
"","html-keyboard-response","295","714763","0.0-479.0","wlokhbhp","","","","","","","","","","","","","733","uus","Diagnostic trial","","j","","5","8","6","true","false","false","both pre & post","RIGHT","RIGHT","j","1","true","","","",""
"","html-keyboard-response","296","715515","0.0-482.0","wlokhbhp","1280","720","","","","","","","","","","","null","+","Fixation - short","","null","","","","","","","","","","","","","","","","",""
"","html-keyboard-response","297","716536","0.0-483.0","wlokhbhp","","","","","","","","","","","","","1020","yna","Diagnostic trial","","j","","5","9","6","true","false","false","both pre & post","LEFT","RIGHT","j","1","false","","","",""
"","html-keyboard-response","298","717294","0.0-486.0","wlokhbhp","1280","720","","","","","","","","","","","null","+","Fixation - short","","null","","","","","","","","","","","","","","","","",""
"","html-keyboard-response","299","718033","0.0-487.0","wlokhbhp","","","","","","","","","","","","","737","yna","Inducer trial","","f","","5","","","","true","","","","","f","1","","false","LEFT","",""
"","html-keyboard-response","300","718784","0.0-490.0","wlokhbhp","1280","720","","","","","","","","","","","null","+","Fixation - short","","null","","","","","","","","","","","","","","","","",""
"","html-keyboard-response","301","720604","0.0-491.0","wlokhbhp","","","","","","","","","","","","","1819","If mvv press LEFT | If mts press RIGHT","Inducer instructions",""," ","","6","","","","","","","","","","","","","","",""
"","html-keyboard-response","302","721356","0.0-492.0","wlokhbhp","1280","720","","","","","","","","","","","null","+","Fixation - short","","null","","","","","","","","","","","","","","","","",""
"","html-keyboard-response","303","722639","0.0-493.0","wlokhbhp","","","","","","","","","","","","","1282","mvv","Diagnostic trial","","f","","6","0","6","false","false","true","both pre & post","LEFT","LEFT","f","1","true","","","",""
"","html-keyboard-response","304","723400","0.0-496.0","wlokhbhp","1280","720","","","","","","","","","","","null","+","Fixation - short","","null","","","","","","","","","","","","","","","","",""
"","html-keyboard-response","305","723995","0.0-497.0","wlokhbhp","","","","","","","","","","","","","594","mvv","Diagnostic trial","","f","","6","1","6","false","false","true","both pre & post","LEFT","LEFT","f","1","true","","","",""
"","html-keyboard-response","306","724748","0.0-500.0","wlokhbhp","1280","720","","","","","","","","","","","null","+","Fixation - short","","null","","","","","","","","","","","","","","","","",""
"","html-keyboard-response","307","726349","0.0-501.0","wlokhbhp","","","","","","","","","","","","","1600","mvv","Diagnostic trial","","j","","6","2","6","false","false","false","both pre & post","LEFT","RIGHT","j","1","false","","","",""
"","html-keyboard-response","308","727113","0.0-504.0","wlokhbhp","1280","720","","","","","","","","","","","null","+","Fixation - short","","null","","","","","","","","","","","","","","","","",""
"","html-keyboard-response","309","728282","0.0-505.0","wlokhbhp","","","","","","","","","","","","","1168","mts","Diagnostic trial","","f","","6","3","6","false","false","true","both pre & post","RIGHT","LEFT","f","1","false","","","",""
"","html-keyboard-response","310","729034","0.0-508.0","wlokhbhp","1280","720","","","","","","","","","","","null","+","Fixation - short","","null","","","","","","","","","","","","","","","","",""
"","html-keyboard-response","311","729989","0.0-509.0","wlokhbhp","","","","","","","","","","","","","953","mvv","Diagnostic trial","","j","","6","4","6","false","false","false","both pre & post","LEFT","RIGHT","j","1","false","","","",""
"","html-keyboard-response","312","730749","0.0-512.0","wlokhbhp","1280","720","","","","","","","","","","","null","+","Fixation - short","","null","","","","","","","","","","","","","","","","",""
"","html-keyboard-response","313","731513","0.0-513.0","wlokhbhp","","","","","","","","","","","","","764","mvv","Diagnostic trial","","j","","6","5","6","false","false","false","both pre & post","LEFT","RIGHT","j","1","false","","","",""
"","html-keyboard-response","314","732268","0.0-516.0","wlokhbhp","1280","720","","","","","","","","","","","null","+","Fixation - short","","null","","","","","","","","","","","","","","","","",""
"","canvas-keyboard-response","315","733523","0.0-517.0","wlokhbhp","","","","","","","","","","","","","null","Cue","Cue","","null","","6","5","","","false","","","","","","","","","","",""
"","html-keyboard-response","316","734278","0.0-518.0","wlokhbhp","1280","720","","","","","","","","","","","null","+","Fixation - short","","null","","","","","","","","","","","","","","","","",""
"","html-keyboard-response","317","735186","0.0-519.0","wlokhbhp","","","","","","","","","","","","","906","mvv","Diagnostic trial","","j","","6","6","6","true","false","false","both pre & post","LEFT","RIGHT","j","1","false","","","",""
"","html-keyboard-response","318","735944","0.0-522.0","wlokhbhp","1280","720","","","","","","","","","","","null","+","Fixation - short","","null","","","","","","","","","","","","","","","","",""
"","html-keyboard-response","319","736772","0.0-523.0","wlokhbhp","","","","","","","","","","","","","827","mvv","Inducer trial","","f","","6","","","","true","","","","","f","1","","false","LEFT","",""
"","html-keyboard-response","320","737525","0.0-526.0","wlokhbhp","1280","720","","","","","","","","","","","null","+","Fixation - short","","null","","","","","","","","","","","","","","","","",""
"","html-keyboard-response","321","741043","0.0-527.0","wlokhbhp","","","","","","","","","","","","","3517","If dij press LEFT | If ofa press RIGHT","Inducer instructions",""," ","","7","","","","","","","","","","","","","","",""
"","html-keyboard-response","322","741797","0.0-528.0","wlokhbhp","1280","720","","","","","","","","","","","null","+","Fixation - short","","null","","","","","","","","","","","","","","","","",""
"","html-keyboard-response","323","742591","0.0-529.0","wlokhbhp","","","","","","","","","","","","","793","ofa","Diagnostic trial","","j","","7","0","6","false","false","false","both pre & post","RIGHT","RIGHT","j","1","true","","","",""
"","html-keyboard-response","324","743350","0.0-532.0","wlokhbhp","1280","720","","","","","","","","","","","null","+","Fixation - short","","null","","","","","","","","","","","","","","","","",""
"","html-keyboard-response","325","744538","0.0-533.0","wlokhbhp","","","","","","","","","","","","","1187","dij","Diagnostic trial","","f","","7","1","6","false","false","true","both pre & post","LEFT","LEFT","f","1","true","","","",""
"","html-keyboard-response","326","745304","0.0-536.0","wlokhbhp","1280","720","","","","","","","","","","","null","+","Fixation - short","","null","","","","","","","","","","","","","","","","",""
"","html-keyboard-response","327","746117","0.0-537.0","wlokhbhp","","","","","","","","","","","","","812","dij","Diagnostic trial","","f","","7","2","6","false","false","true","both pre & post","LEFT","LEFT","f","1","true","","","",""
"","html-keyboard-response","328","746878","0.0-540.0","wlokhbhp","1280","720","","","","","","","","","","","null","+","Fixation - short","","null","","","","","","","","","","","","","","","","",""
"","html-keyboard-response","329","748893","0.0-541.0","wlokhbhp","","","","","","","","","","","","","null","dij","Diagnostic trial","","null","","7","3","6","false","false","false","both pre & post","LEFT","RIGHT","j","NaN","false","","","",""
"","call-function","330","748894","0.0-542.0-0.0","wlokhbhp","","","","","","","","","","","","","","","","","","","","","","","","","","","","","","","","","",""
"","html-keyboard-response","331","749202","0.0-542.0-1.0","wlokhbhp","1280","720","","","","","","","","","","","null","Slow","Feedback","","null","","","","","","","","","","","","","","","","",""
"","call-function","332","749203","0.0-542.0-2.0","wlokhbhp","","","","","","","","","","","","","","","","","","","","","","","","","","","","","","","","","",""
"","html-keyboard-response","333","749957","0.0-544.0","wlokhbhp","1280","720","","","","","","","","","","","null","+","Fixation - short","","null","","","","","","","","","","","","","","","","",""
"","html-keyboard-response","334","751974","0.0-545.0","wlokhbhp","","","","","","","","","","","","","null","dij","Diagnostic trial","","null","","7","4","6","false","false","false","both pre & post","LEFT","RIGHT","j","NaN","false","","","",""
"","call-function","335","751974","0.0-546.0-0.0","wlokhbhp","","","","","","","","","","","","","","","","","","","","","","","","","","","","","","","","","",""
"","html-keyboard-response","336","752281","0.0-546.0-1.0","wlokhbhp","1280","720","","","","","","","","","","","null","Slow","Feedback","","null","","","","","","","","","","","","","","","","",""
"","call-function","337","752282","0.0-546.0-2.0","wlokhbhp","","","","","","","","","","","","","","","","","","","","","","","","","","","","","","","","","",""
"","html-keyboard-response","338","753034","0.0-548.0","wlokhbhp","1280","720","","","","","","","","","","","null","+","Fixation - short","","null","","","","","","","","","","","","","","","","",""
"","html-keyboard-response","339","754140","0.0-549.0","wlokhbhp","","","","","","","","","","","","","1105","ofa","Diagnostic trial","","f","","7","5","6","false","false","true","both pre & post","RIGHT","LEFT","f","1","false","","","",""
"","html-keyboard-response","340","754897","0.0-552.0","wlokhbhp","1280","720","","","","","","","","","","","null","+","Fixation - short","","null","","","","","","","","","","","","","","","","",""
"","canvas-keyboard-response","341","756164","0.0-553.0","wlokhbhp","","","","","","","","","","","","","null","Cue","Cue","","null","","7","5","","","false","","","","","","","","","","",""
"","html-keyboard-response","342","756930","0.0-554.0","wlokhbhp","1280","720","","","","","","","","","","","null","+","Fixation - short","","null","","","","","","","","","","","","","","","","",""
"","html-keyboard-response","343","757662","0.0-555.0","wlokhbhp","","","","","","","","","","","","","730","ofa","Diagnostic trial","","j","","7","6","6","true","false","false","both pre & post","RIGHT","RIGHT","j","1","true","","","",""
"","html-keyboard-response","344","758420","0.0-558.0","wlokhbhp","1280","720","","","","","","","","","","","null","+","Fixation - short","","null","","","","","","","","","","","","","","","","",""
"","html-keyboard-response","345","760427","0.0-559.0","wlokhbhp","","","","","","","","","","","","","null","ofa","Diagnostic trial","","null","","7","7","6","true","false","true","both pre & post","RIGHT","LEFT","f","NaN","false","","","",""
"","call-function","346","760428","0.0-560.0-0.0","wlokhbhp","","","","","","","","","","","","","","","","","","","","","","","","","","","","","","","","","",""
"","html-keyboard-response","347","760735","0.0-560.0-1.0","wlokhbhp","1280","720","","","","","","","","","","","null","Slow","Feedback","","null","","","","","","","","","","","","","","","","",""
"","call-function","348","760736","0.0-560.0-2.0","wlokhbhp","","","","","","","","","","","","","","","","","","","","","","","","","","","","","","","","","",""
"","html-keyboard-response","349","761494","0.0-562.0","wlokhbhp","1280","720","","","","","","","","","","","null","+","Fixation - short","","null","","","","","","","","","","","","","","","","",""
"","html-keyboard-response","350","762311","0.0-563.0","wlokhbhp","","","","","","","","","","","","","816","dij","Diagnostic trial","","f","","7","8","6","true","false","true","both pre & post","LEFT","LEFT","f","1","true","","","",""
"","html-keyboard-response","351","763062","0.0-566.0","wlokhbhp","1280","720","","","","","","","","","","","null","+","Fixation - short","","null","","","","","","","","","","","","","","","","",""
"","html-keyboard-response","352","765070","0.0-567.0","wlokhbhp","","","","","","","","","","","","","null","dij","Inducer trial","","null","","7","","","","true","","","","","f","NaN","","false","LEFT","",""
"","call-function","353","765071","0.0-568.0-0.0","wlokhbhp","","","","","","","","","","","","","","","","","","","","","","","","","","","","","","","","","",""
"","html-keyboard-response","354","765386","0.0-568.0-1.0","wlokhbhp","1280","720","","","","","","","","","","","null","Slow","Feedback","","null","","","","","","","","","","","","","","","","",""
"","call-function","355","765387","0.0-568.0-2.0","wlokhbhp","","","","","","","","","","","","","","","","","","","","","","","","","","","","","","","","","",""
"","html-keyboard-response","356","766144","0.0-570.0","wlokhbhp","1280","720","","","","","","","","","","","null","+","Fixation - short","","null","","","","","","","","","","","","","","","","",""
"","html-keyboard-response","357","768761","0.0-571.0","wlokhbhp","","","","","","","","","","","","","2616","If wrz press LEFT | If swr press RIGHT","Inducer instructions",""," ","","8","","","","","","","","","","","","","","",""
"","html-keyboard-response","358","769520","0.0-572.0","wlokhbhp","1280","720","","","","","","","","","","","null","+","Fixation - short","","null","","","","","","","","","","","","","","","","",""
"","html-keyboard-response","359","771066","0.0-573.0","wlokhbhp","","","","","","","","","","","","","1544","wrz","Diagnostic trial","","f","","8","0","10","false","false","true","both pre & post","LEFT","LEFT","f","1","true","","","",""
"","html-keyboard-response","360","771817","0.0-576.0","wlokhbhp","1280","720","","","","","","","","","","","null","+","Fixation - short","","null","","","","","","","","","","","","","","","","",""
"","html-keyboard-response","361","772354","0.0-577.0","wlokhbhp","","","","","","","","","","","","","535","swr","Diagnostic trial","","f","","8","1","10","false","false","true","both pre & post","RIGHT","LEFT","f","1","false","","","",""
"","html-keyboard-response","362","773118","0.0-580.0","wlokhbhp","1280","720","","","","","","","","","","","null","+","Fixation - short","","null","","","","","","","","","","","","","","","","",""
"","html-keyboard-response","363","773691","0.0-581.0","wlokhbhp","","","","","","","","","","","","","572","swr","Diagnostic trial","","j","","8","2","10","false","false","false","both pre & post","RIGHT","RIGHT","j","1","true","","","",""
"","html-keyboard-response","364","774448","0.0-584.0","wlokhbhp","1280","720","","","","","","","","","","","null","+","Fixation - short","","null","","","","","","","","","","","","","","","","",""
"","html-keyboard-response","365","775194","0.0-585.0","wlokhbhp","","","","","","","","","","","","","745","wrz","Diagnostic trial","","j","","8","3","10","false","false","false","both pre & post","LEFT","RIGHT","j","1","false","","","",""
"","html-keyboard-response","366","775960","0.0-588.0","wlokhbhp","1280","720","","","","","","","","","","","null","+","Fixation - short","","null","","","","","","","","","","","","","","","","",""
"","html-keyboard-response","367","776648","0.0-589.0","wlokhbhp","","","","","","","","","","","","","687","swr","Diagnostic trial","","f","","8","4","10","false","false","true","both pre & post","RIGHT","LEFT","f","1","false","","","",""
"","html-keyboard-response","368","777401","0.0-592.0","wlokhbhp","1280","720","","","","","","","","","","","null","+","Fixation - short","","null","","","","","","","","","","","","","","","","",""
"","html-keyboard-response","369","778182","0.0-593.0","wlokhbhp","","","","","","","","","","","","","780","wrz","Diagnostic trial","","f","","8","5","10","false","false","true","both pre & post","LEFT","LEFT","f","1","true","","","",""
"","html-keyboard-response","370","778945","0.0-596.0","wlokhbhp","1280","720","","","","","","","","","","","null","+","Fixation - short","","null","","","","","","","","","","","","","","","","",""
"","html-keyboard-response","371","779643","0.0-597.0","wlokhbhp","","","","","","","","","","","","","697","swr","Diagnostic trial","","f","","8","6","10","false","false","true","both pre & post","RIGHT","LEFT","f","1","false","","","",""
"","html-keyboard-response","372","780410","0.0-600.0","wlokhbhp","1280","720","","","","","","","","","","","null","+","Fixation - short","","null","","","","","","","","","","","","","","","","",""
"","html-keyboard-response","373","781056","0.0-601.0","wlokhbhp","","","","","","","","","","","","","645","swr","Diagnostic trial","","j","","8","7","10","false","false","false","both pre & post","RIGHT","RIGHT","j","1","true","","","",""
"","html-keyboard-response","374","781808","0.0-604.0","wlokhbhp","1280","720","","","","","","","","","","","null","+","Fixation - short","","null","","","","","","","","","","","","","","","","",""
"","html-keyboard-response","375","783820","0.0-605.0","wlokhbhp","","","","","","","","","","","","","null","wrz","Diagnostic trial","","null","","8","8","10","false","false","false","both pre & post","LEFT","RIGHT","j","NaN","false","","","",""
"","call-function","376","783821","0.0-606.0-0.0","wlokhbhp","","","","","","","","","","","","","","","","","","","","","","","","","","","","","","","","","",""
"","html-keyboard-response","377","784130","0.0-606.0-1.0","wlokhbhp","1280","720","","","","","","","","","","","null","Slow","Feedback","","null","","","","","","","","","","","","","","","","",""
"","call-function","378","784130","0.0-606.0-2.0","wlokhbhp","","","","","","","","","","","","","","","","","","","","","","","","","","","","","","","","","",""
"","html-keyboard-response","379","784884","0.0-608.0","wlokhbhp","1280","720","","","","","","","","","","","null","+","Fixation - short","","null","","","","","","","","","","","","","","","","",""
"","html-keyboard-response","380","785715","0.0-609.0","wlokhbhp","","","","","","","","","","","","","830","swr","Diagnostic trial","","f","","8","9","10","false","false","true","both pre & post","RIGHT","LEFT","f","1","false","","","",""
"","html-keyboard-response","381","786472","0.0-612.0","wlokhbhp","1280","720","","","","","","","","","","","null","+","Fixation - short","","null","","","","","","","","","","","","","","","","",""
"","canvas-keyboard-response","382","787726","0.0-613.0","wlokhbhp","","","","","","","","","","","","","null","Cue","Cue","","null","","8","9","","","false","","","","","","","","","","",""
"","html-keyboard-response","383","788480","0.0-614.0","wlokhbhp","1280","720","","","","","","","","","","","null","+","Fixation - short","","null","","","","","","","","","","","","","","","","",""
"","html-keyboard-response","384","789049","0.0-615.0","wlokhbhp","","","","","","","","","","","","","568","swr","Diagnostic trial","","j","","8","10","10","true","false","false","both pre & post","RIGHT","RIGHT","j","1","true","","","",""
"","html-keyboard-response","385","789808","0.0-618.0","wlokhbhp","1280","720","","","","","","","","","","","null","+","Fixation - short","","null","","","","","","","","","","","","","","","","",""
"","html-keyboard-response","386","790575","0.0-619.0","wlokhbhp","","","","","","","","","","","","","766","wrz","Diagnostic trial","","j","","8","11","10","true","false","false","both pre & post","LEFT","RIGHT","j","1","false","","","",""
"","html-keyboard-response","387","791327","0.0-622.0","wlokhbhp","1280","720","","","","","","","","","","","null","+","Fixation - short","","null","","","","","","","","","","","","","","","","",""
"","html-keyboard-response","388","792574","0.0-623.0","wlokhbhp","","","","","","","","","","","","","1245","wrz","Inducer trial","","f","","8","","","","true","","","","","f","1","","false","LEFT","",""
"","html-keyboard-response","389","793339","0.0-626.0","wlokhbhp","1280","720","","","","","","","","","","","null","+","Fixation - short","","null","","","","","","","","","","","","","","","","",""
"","html-keyboard-response","390","795358","0.0-627.0","wlokhbhp","","","","","","","","","","","","","2017","If crf press LEFT | If psl press RIGHT","Inducer instructions",""," ","","9","","","","","","","","","","","","","","",""
"","html-keyboard-response","391","796119","0.0-628.0","wlokhbhp","1280","720","","","","","","","","","","","null","+","Fixation - short","","null","","","","","","","","","","","","","","","","",""
"","html-keyboard-response","392","797504","0.0-629.0","wlokhbhp","","","","","","","","","","","","","1384","crf","Diagnostic trial","","f","","9","0","5","false","false","false","both pre & post","LEFT","RIGHT","j","0","false","","","",""
"","call-function","393","797505","0.0-631.0-0.0","wlokhbhp","","","","","","","","","","","","","","","","","","","","","","","","","","","","","","","","","",""
"","html-keyboard-response","394","797820","0.0-631.0-1.0","wlokhbhp","1280","720","","","","","","","","","","","null","Wrong","Feedback","","null","","","","","","","","","","","","","","","","",""
"","call-function","395","797821","0.0-631.0-2.0","wlokhbhp","","","","","","","","","","","","","","","","","","","","","","","","","","","","","","","","","",""
"","html-keyboard-response","396","798585","0.0-632.0","wlokhbhp","1280","720","","","","","","","","","","","null","+","Fixation - short","","null","","","","","","","","","","","","","","","","",""
"","html-keyboard-response","397","799156","0.0-633.0","wlokhbhp","","","","","","","","","","","","","569","crf","Diagnostic trial","","j","","9","1","5","false","false","false","both pre & post","LEFT","RIGHT","j","1","false","","","",""
"","html-keyboard-response","398","799921","0.0-636.0","wlokhbhp","1280","720","","","","","","","","","","","null","+","Fixation - short","","null","","","","","","","","","","","","","","","","",""
"","html-keyboard-response","399","800530","0.0-637.0","wlokhbhp","","","","","","","","","","","","","608","psl","Diagnostic trial","","j","","9","2","5","false","false","false","both pre & post","RIGHT","RIGHT","j","1","true","","","",""
"","html-keyboard-response","400","801296","0.0-640.0","wlokhbhp","1280","720","","","","","","","","","","","null","+","Fixation - short","","null","","","","","","","","","","","","","","","","",""
"","html-keyboard-response","401","801805","0.0-641.0","wlokhbhp","","","","","","","","","","","","","508","crf","Diagnostic trial","","f","","9","3","5","false","false","true","both pre & post","LEFT","LEFT","f","1","true","","","",""
"","html-keyboard-response","402","802568","0.0-644.0","wlokhbhp","1280","720","","","","","","","","","","","null","+","Fixation - short","","null","","","","","","","","","","","","","","","","",""
"","html-keyboard-response","403","803209","0.0-645.0","wlokhbhp","","","","","","","","","","","","","641","psl","Diagnostic trial","","f","","9","4","5","false","false","true","both pre & post","RIGHT","LEFT","f","1","false","","","",""
"","html-keyboard-response","404","803973","0.0-648.0","wlokhbhp","1280","720","","","","","","","","","","","null","+","Fixation - short","","null","","","","","","","","","","","","","","","","",""
"","canvas-keyboard-response","405","805239","0.0-649.0","wlokhbhp","","","","","","","","","","","","","null","Cue","Cue","","null","","9","4","","","false","","","","","","","","","","",""
"","html-keyboard-response","406","805992","0.0-650.0","wlokhbhp","1280","720","","","","","","","","","","","null","+","Fixation - short","","null","","","","","","","","","","","","","","","","",""
"","html-keyboard-response","407","806622","0.0-651.0","wlokhbhp","","","","","","","","","","","","","629","crf","Diagnostic trial","","j","","9","5","5","true","false","false","both pre & post","LEFT","RIGHT","j","1","false","","","",""
"","html-keyboard-response","408","807379","0.0-654.0","wlokhbhp","1280","720","","","","","","","","","","","null","+","Fixation - short","","null","","","","","","","","","","","","","","","","",""
"","html-keyboard-response","409","809388","0.0-655.0","wlokhbhp","","","","","","","","","","","","","null","crf","Diagnostic trial","","null","","9","6","5","true","false","false","both pre & post","LEFT","RIGHT","j","NaN","false","","","",""
"","call-function","410","809389","0.0-656.0-0.0","wlokhbhp","","","","","","","","","","","","","","","","","","","","","","","","","","","","","","","","","",""
"","html-keyboard-response","411","809699","0.0-656.0-1.0","wlokhbhp","1280","720","","","","","","","","","","","null","Slow","Feedback","","null","","","","","","","","","","","","","","","","",""
"","call-function","412","809700","0.0-656.0-2.0","wlokhbhp","","","","","","","","","","","","","","","","","","","","","","","","","","","","","","","","","",""
"","html-keyboard-response","413","810463","0.0-658.0","wlokhbhp","1280","720","","","","","","","","","","","null","+","Fixation - short","","null","","","","","","","","","","","","","","","","",""
"","html-keyboard-response","414","811049","0.0-659.0","wlokhbhp","","","","","","","","","","","","","585","crf","Diagnostic trial","","f","","9","7","5","true","false","true","both pre & post","LEFT","LEFT","f","1","true","","","",""
"","html-keyboard-response","415","811811","0.0-662.0","wlokhbhp","1280","720","","","","","","","","","","","null","+","Fixation - short","","null","","","","","","","","","","","","","","","","",""
"","html-keyboard-response","416","812675","0.0-663.0","wlokhbhp","","","","","","","","","","","","","863","psl","Diagnostic trial","","f","","9","8","5","true","false","true","both pre & post","RIGHT","LEFT","f","1","false","","","",""
"","html-keyboard-response","417","813430","0.0-666.0","wlokhbhp","1280","720","","","","","","","","","","","null","+","Fixation - short","","null","","","","","","","","","","","","","","","","",""
"","html-keyboard-response","418","814277","0.0-667.0","wlokhbhp","","","","","","","","","","","","","847","psl","Inducer trial","","f","","9","","","","true","","","","","j","0","","false","RIGHT","",""
"","call-function","419","814278","0.0-669.0-0.0","wlokhbhp","","","","","","","","","","","","","","","","","","","","","","","","","","","","","","","","","",""
"","html-keyboard-response","420","814594","0.0-669.0-1.0","wlokhbhp","1280","720","","","","","","","","","","","null","Wrong","Feedback","","null","","","","","","","","","","","","","","","","",""
"","call-function","421","814594","0.0-669.0-2.0","wlokhbhp","","","","","","","","","","","","","","","","","","","","","","","","","","","","","","","","","",""
"","html-keyboard-response","422","815346","0.0-670.0","wlokhbhp","1280","720","","","","","","","","","","","null","+","Fixation - short","","null","","","","","","","","","","","","","","","","",""
"","html-keyboard-response","423","817529","0.0-671.0","wlokhbhp","","","","","","","","","","","","","2182","If lff press LEFT | If gfm press RIGHT","Inducer instructions",""," ","","10","","","","","","","","","","","","","","",""
"","html-keyboard-response","424","818288","0.0-672.0","wlokhbhp","1280","720","","","","","","","","","","","null","+","Fixation - short","","null","","","","","","","","","","","","","","","","",""
"","html-keyboard-response","425","819442","0.0-673.0","wlokhbhp","","","","","","","","","","","","","1153","gfm","Diagnostic trial","","f","","10","0","6","false","false","true","both pre & post","RIGHT","LEFT","f","1","false","","","",""
"","html-keyboard-response","426","820198","0.0-676.0","wlokhbhp","1280","720","","","","","","","","","","","null","+","Fixation - short","","null","","","","","","","","","","","","","","","","",""
"","html-keyboard-response","427","820680","0.0-677.0","wlokhbhp","","","","","","","","","","","","","481","gfm","Diagnostic trial","","f","","10","1","6","false","false","true","both pre & post","RIGHT","LEFT","f","1","false","","","",""
"","html-keyboard-response","428","821434","0.0-680.0","wlokhbhp","1280","720","","","","","","","","","","","null","+","Fixation - short","","null","","","","","","","","","","","","","","","","",""
"","html-keyboard-response","429","822004","0.0-681.0","wlokhbhp","","","","","","","","","","","","","569","gfm","Diagnostic trial","","j","","10","2","6","false","false","false","both pre & post","RIGHT","RIGHT","j","1","true","","","",""
"","html-keyboard-response","430","822761","0.0-684.0","wlokhbhp","1280","720","","","","","","","","","","","null","+","Fixation - short","","null","","","","","","","","","","","","","","","","",""
"","html-keyboard-response","431","823311","0.0-685.0","wlokhbhp","","","","","","","","","","","","","549","gfm","Diagnostic trial","","j","","10","3","6","false","false","false","both pre & post","RIGHT","RIGHT","j","1","true","","","",""
"","html-keyboard-response","432","824066","0.0-688.0","wlokhbhp","1280","720","","","","","","","","","","","null","+","Fixation - short","","null","","","","","","","","","","","","","","","","",""
"","html-keyboard-response","433","824672","0.0-689.0","wlokhbhp","","","","","","","","","","","","","605","lff","Diagnostic trial","","j","","10","4","6","false","false","false","both pre & post","LEFT","RIGHT","j","1","false","","","",""
"","html-keyboard-response","434","825437","0.0-692.0","wlokhbhp","1280","720","","","","","","","","","","","null","+","Fixation - short","","null","","","","","","","","","","","","","","","","",""
"","html-keyboard-response","435","826263","0.0-693.0","wlokhbhp","","","","","","","","","","","","","825","lff","Diagnostic trial","","f","","10","5","6","false","false","true","both pre & post","LEFT","LEFT","f","1","true","","","",""
"","html-keyboard-response","436","827022","0.0-696.0","wlokhbhp","1280","720","","","","","","","","","","","null","+","Fixation - short","","null","","","","","","","","","","","","","","","","",""
"","canvas-keyboard-response","437","828281","0.0-697.0","wlokhbhp","","","","","","","","","","","","","null","Cue","Cue","","null","","10","5","","","false","","","","","","","","","","",""
"","html-keyboard-response","438","829048","0.0-698.0","wlokhbhp","1280","720","","","","","","","","","","","null","+","Fixation - short","","null","","","","","","","","","","","","","","","","",""
"","html-keyboard-response","439","829709","0.0-699.0","wlokhbhp","","","","","","","","","","","","","660","lff","Diagnostic trial","","j","","10","6","6","true","false","false","both pre & post","LEFT","RIGHT","j","1","false","","","",""
"","html-keyboard-response","440","830474","0.0-702.0","wlokhbhp","1280","720","","","","","","","","","","","null","+","Fixation - short","","null","","","","","","","","","","","","","","","","",""
"","html-keyboard-response","441","831096","0.0-703.0","wlokhbhp","","","","","","","","","","","","","621","lff","Diagnostic trial","","f","","10","7","6","true","false","true","both pre & post","LEFT","LEFT","f","1","true","","","",""
"","html-keyboard-response","442","831849","0.0-706.0","wlokhbhp","1280","720","","","","","","","","","","","null","+","Fixation - short","","null","","","","","","","","","","","","","","","","",""
"","html-keyboard-response","443","832830","0.0-707.0","wlokhbhp","","","","","","","","","","","","","979","lff","Inducer trial","","f","","10","","","","true","","","","","f","1","","false","LEFT","",""
"","html-keyboard-response","444","833588","0.0-710.0","wlokhbhp","1280","720","","","","","","","","","","","null","+","Fixation - short","","null","","","","","","","","","","","","","","","","",""
"","html-keyboard-response","445","834379","0.0-711.0","wlokhbhp","","","","","","","","","","","","","791","If vbt press LEFT | If mik press RIGHT","Inducer instructions",""," ","","11","","","","","","","","","","","","","","",""
"","html-keyboard-response","446","835137","0.0-712.0","wlokhbhp","1280","720","","","","","","","","","","","null","+","Fixation - short","","null","","","","","","","","","","","","","","","","",""
"","html-keyboard-response","447","836377","0.0-713.0","wlokhbhp","","","","","","","","","","","","","1239","vbt","Diagnostic trial","","f","","11","0","5","false","false","true","both pre & post","LEFT","LEFT","f","1","true","","","",""
"","html-keyboard-response","448","837140","0.0-716.0","wlokhbhp","1280","720","","","","","","","","","","","null","+","Fixation - short","","null","","","","","","","","","","","","","","","","",""
"","html-keyboard-response","449","837938","0.0-717.0","wlokhbhp","","","","","","","","","","","","","797","mik","Diagnostic trial","","j","","11","1","5","false","false","false","both pre & post","RIGHT","RIGHT","j","1","true","","","",""
"","html-keyboard-response","450","838699","0.0-720.0","wlokhbhp","1280","720","","","","","","","","","","","null","+","Fixation - short","","null","","","","","","","","","","","","","","","","",""
"","html-keyboard-response","451","840229","0.0-721.0","wlokhbhp","","","","","","","","","","","","","1529","mik","Diagnostic trial","","f","","11","2","5","false","false","true","both pre & post","RIGHT","LEFT","f","1","false","","","",""
"","html-keyboard-response","452","840985","0.0-724.0","wlokhbhp","1280","720","","","","","","","","","","","null","+","Fixation - short","","null","","","","","","","","","","","","","","","","",""
"","html-keyboard-response","453","842709","0.0-725.0","wlokhbhp","","","","","","","","","","","","","1723","vbt","Diagnostic trial","","f","","11","3","5","false","false","true","both pre & post","LEFT","LEFT","f","1","true","","","",""
"","html-keyboard-response","454","843476","0.0-728.0","wlokhbhp","1280","720","","","","","","","","","","","null","+","Fixation - short","","null","","","","","","","","","","","","","","","","",""
"","html-keyboard-response","455","844334","0.0-729.0","wlokhbhp","","","","","","","","","","","","","857","vbt","Diagnostic trial","","f","","11","4","5","false","false","true","both pre & post","LEFT","LEFT","f","1","true","","","",""
"","html-keyboard-response","456","845089","0.0-732.0","wlokhbhp","1280","720","","","","","","","","","","","null","+","Fixation - short","","null","","","","","","","","","","","","","","","","",""
"","canvas-keyboard-response","457","846354","0.0-733.0","wlokhbhp","","","","","","","","","","","","","null","Cue","Cue","","null","","11","4","","","false","","","","","","","","","","",""
"","html-keyboard-response","458","847117","0.0-734.0","wlokhbhp","1280","720","","","","","","","","","","","null","+","Fixation - short","","null","","","","","","","","","","","","","","","","",""
"","html-keyboard-response","459","847833","0.0-735.0","wlokhbhp","","","","","","","","","","","","","715","mik","Diagnostic trial","","f","","11","5","5","true","false","true","both pre & post","RIGHT","LEFT","f","1","false","","","",""
"","html-keyboard-response","460","848594","0.0-738.0","wlokhbhp","1280","720","","","","","","","","","","","null","+","Fixation - short","","null","","","","","","","","","","","","","","","","",""
"","html-keyboard-response","461","849926","0.0-739.0","wlokhbhp","","","","","","","","","","","","","1331","mik","Diagnostic trial","","j","","11","6","5","true","false","false","both pre & post","RIGHT","RIGHT","j","1","true","","","",""
"","html-keyboard-response","462","850679","0.0-742.0","wlokhbhp","1280","720","","","","","","","","","","","null","+","Fixation - short","","null","","","","","","","","","","","","","","","","",""
"","html-keyboard-response","463","851763","0.0-743.0","wlokhbhp","","","","","","","","","","","","","1083","mik","Inducer trial","","j","","11","","","","true","","","","","j","1","","false","RIGHT","",""
