"value","trial_type","trial_index","time_elapsed","internal_node_id","id","width","height","webaudio","browser","browser_version","mobile","os","fullscreen","vsync_rate","webcam","microphone","view_history","rt","stimulus","trial_info","success","response","exp_parameters","inducer_run","diagnostic_run","cue_num","post_cue","inducer_trial","italic","forced_equal_run","correct_inducer_response_side","correct_diag_response_side","correct_response_key","correct_response","congruent","force_equal","correct_indu_response_side","accuracy","interactive"
"","call-function","0","5","0.0-0.0","vs8uj2e4","","","","","","","","","","","","","","","","","","","","","","","","","","","","","","","","","",""
"","browser-check","1","1000","0.0-1.0","vs8uj2e4","1366","607","true","chrome","120.0.0","false","Windows 10","true","60.84","true","true","","","","","","","","","","","","","","","","","","","","","","",""
"","instructions","2","52548","0.0-2.0","vs8uj2e4","","","","","","","","","","","","[{""page_index"":0,""viewing_time"":23587},{""page_index"":1,""viewing_time"":18644},{""page_index"":2,""viewing_time"":9317}]","51548","The experiment and consent","The experiment and consent","","","","","","","","","","","","","","","","","","",""
"","fullscreen","3","72133","0.0-3.0","vs8uj2e4","","","","","","","","","","","","","18579","","Full screen","true","","","","","","","","","","","","","","","","","",""
"","instructions","4","109599","0.0-4.0","vs8uj2e4","","","","","","","","","","","","[{""page_index"":0,""viewing_time"":24388},{""page_index"":1,""viewing_time"":13076}]","37464","Instructions","Basic overview explanation","","","","","","","","","","","","","","","","","","",""
"","html-keyboard-response","5","120786","0.0-5.0","vs8uj2e4","","","","","","","","","","","","","9676","If italic press RIGHT | If upright press LEFT","Diagnostic instructions",""," ","{""debug"":false,""skip_instructions"":false,""skip_practice"":false,""save_local_data"":false,""studu_name"":""exp2"",""default_background_colour"":""#cccccc"",""wrong_response_colour"":""#d22d2d"",""instruction_delay"":20000,""trial_duration"":2000,""short_fixation"":750,""long_fixation"":1500,""wrong_response_delay"":300,""too_slow_delay"":300,""instruction_font_size"":""24px"",""general_font_size"":""42px"",""fixation_size"":""48px"",""allowed_responses"":[""f"",""j""],""cue_min_length"":0,""cue_max_length"":4,""tot_post_cue_len"":72,""cue_colour"":""red"",""cue_shape"":""Square"",""cue_size"":70,""cue_duration"":1250,""avg_number_of_cues"":3,""inducer_colour"":""yellow"",""number_of_inducers"":24,""pre_cue_italic_forced_equal"":true,""post_cue_italic_forced_equal"":true,""prac_diagnostic_rounds"":16,""prac_inducer_rounds"":6,""prac_cue_rounds"":16,""prac_post_cue_num"":3}","","","","","","","","","","","","","","","",""
"","html-keyboard-response","6","121542","0.0-6.0","vs8uj2e4","1366","768","","","","","","","","","","","null","+","Fixation - short","","null","","","","","","","","","","","","","","","","",""
"","html-keyboard-response","7","123001","0.0-7.0","vs8uj2e4","","","","","","","","","","","","","1458","ila","Diagnostic practice","","f","","Diagnostic practice","0","-84","true","false","false","prac equal","RIGHT","LEFT","f","1","false","","","",""
"","html-keyboard-response","8","123763","0.0-10.0","vs8uj2e4","1366","768","","","","","","","","","","","null","+","Fixation - short","","null","","","","","","","","","","","","","","","","",""
"","html-keyboard-response","9","124334","0.0-11.0","vs8uj2e4","","","","","","","","","","","","","570","ila","Diagnostic practice","","j","","Diagnostic practice","1","-84","true","false","true","prac equal","RIGHT","RIGHT","j","1","true","","","",""
"","html-keyboard-response","10","125087","0.0-14.0","vs8uj2e4","1366","768","","","","","","","","","","","null","+","Fixation - short","","null","","","","","","","","","","","","","","","","",""
"","html-keyboard-response","11","125687","0.0-15.0","vs8uj2e4","","","","","","","","","","","","","599","ila","Diagnostic practice","","f","","Diagnostic practice","2","-84","true","false","false","prac equal","RIGHT","LEFT","f","1","false","","","",""
"","html-keyboard-response","12","126439","0.0-18.0","vs8uj2e4","1366","768","","","","","","","","","","","null","+","Fixation - short","","null","","","","","","","","","","","","","","","","",""
"","html-keyboard-response","13","126959","0.0-19.0","vs8uj2e4","","","","","","","","","","","","","519","mvv","Diagnostic practice","","j","","Diagnostic practice","3","-84","true","false","true","prac equal","LEFT","RIGHT","j","1","false","","","",""
"","html-keyboard-response","14","127715","0.0-22.0","vs8uj2e4","1366","768","","","","","","","","","","","null","+","Fixation - short","","null","","","","","","","","","","","","","","","","",""
"","html-keyboard-response","15","128267","0.0-23.0","vs8uj2e4","","","","","","","","","","","","","551","ila","Diagnostic practice","","f","","Diagnostic practice","4","-84","true","false","false","prac equal","RIGHT","LEFT","f","1","false","","","",""
"","html-keyboard-response","16","129020","0.0-26.0","vs8uj2e4","1366","768","","","","","","","","","","","null","+","Fixation - short","","null","","","","","","","","","","","","","","","","",""
"","html-keyboard-response","17","129544","0.0-27.0","vs8uj2e4","","","","","","","","","","","","","523","ila","Diagnostic practice","","f","","Diagnostic practice","5","-84","true","false","false","prac equal","RIGHT","LEFT","f","1","false","","","",""
"","html-keyboard-response","18","130297","0.0-30.0","vs8uj2e4","1366","768","","","","","","","","","","","null","+","Fixation - short","","null","","","","","","","","","","","","","","","","",""
"","html-keyboard-response","19","131027","0.0-31.0","vs8uj2e4","","","","","","","","","","","","","729","mvv","Diagnostic practice","","f","","Diagnostic practice","6","-84","true","false","false","prac equal","LEFT","LEFT","f","1","true","","","",""
"","html-keyboard-response","20","131778","0.0-34.0","vs8uj2e4","1366","768","","","","","","","","","","","null","+","Fixation - short","","null","","","","","","","","","","","","","","","","",""
"","html-keyboard-response","21","132524","0.0-35.0","vs8uj2e4","","","","","","","","","","","","","745","mvv","Diagnostic practice","","j","","Diagnostic practice","7","-84","true","false","true","prac equal","LEFT","RIGHT","j","1","false","","","",""
"","html-keyboard-response","22","133287","0.0-38.0","vs8uj2e4","1366","768","","","","","","","","","","","null","+","Fixation - short","","null","","","","","","","","","","","","","","","","",""
"","html-keyboard-response","23","133817","0.0-39.0","vs8uj2e4","","","","","","","","","","","","","529","mvv","Diagnostic practice","","j","","Diagnostic practice","8","-84","true","false","true","prac equal","LEFT","RIGHT","j","1","false","","","",""
"","html-keyboard-response","24","134580","0.0-42.0","vs8uj2e4","1366","768","","","","","","","","","","","null","+","Fixation - short","","null","","","","","","","","","","","","","","","","",""
"","html-keyboard-response","25","135134","0.0-43.0","vs8uj2e4","","","","","","","","","","","","","554","mvv","Diagnostic practice","","j","","Diagnostic practice","9","-84","true","false","true","prac equal","LEFT","RIGHT","j","1","false","","","",""
"","html-keyboard-response","26","135887","0.0-46.0","vs8uj2e4","1366","768","","","","","","","","","","","null","+","Fixation - short","","null","","","","","","","","","","","","","","","","",""
"","html-keyboard-response","27","136327","0.0-47.0","vs8uj2e4","","","","","","","","","","","","","439","mvv","Diagnostic practice","","j","","Diagnostic practice","10","-84","true","false","true","prac equal","LEFT","RIGHT","j","1","false","","","",""
"","html-keyboard-response","28","137081","0.0-50.0","vs8uj2e4","1366","768","","","","","","","","","","","null","+","Fixation - short","","null","","","","","","","","","","","","","","","","",""
"","html-keyboard-response","29","137710","0.0-51.0","vs8uj2e4","","","","","","","","","","","","","628","ila","Diagnostic practice","","f","","Diagnostic practice","11","-84","true","false","false","prac equal","RIGHT","LEFT","f","1","false","","","",""
"","html-keyboard-response","30","138466","0.0-54.0","vs8uj2e4","1366","768","","","","","","","","","","","null","+","Fixation - short","","null","","","","","","","","","","","","","","","","",""
"","html-keyboard-response","31","138953","0.0-55.0","vs8uj2e4","","","","","","","","","","","","","486","mvv","Diagnostic practice","","j","","Diagnostic practice","12","-84","true","false","true","prac equal","LEFT","RIGHT","j","1","false","","","",""
"","html-keyboard-response","32","139710","0.0-58.0","vs8uj2e4","1366","768","","","","","","","","","","","null","+","Fixation - short","","null","","","","","","","","","","","","","","","","",""
"","html-keyboard-response","33","140330","0.0-59.0","vs8uj2e4","","","","","","","","","","","","","619","mvv","Diagnostic practice","","f","","Diagnostic practice","13","-84","true","false","false","prac equal","LEFT","LEFT","f","1","true","","","",""
"","html-keyboard-response","34","141096","0.0-62.0","vs8uj2e4","1366","768","","","","","","","","","","","null","+","Fixation - short","","null","","","","","","","","","","","","","","","","",""
"","html-keyboard-response","35","141553","0.0-63.0","vs8uj2e4","","","","","","","","","","","","","457","mvv","Diagnostic practice","","j","","Diagnostic practice","14","-84","true","false","true","prac equal","LEFT","RIGHT","j","1","false","","","",""
"","html-keyboard-response","36","142308","0.0-66.0","vs8uj2e4","1366","768","","","","","","","","","","","null","+","Fixation - short","","null","","","","","","","","","","","","","","","","",""
"","html-keyboard-response","37","142856","0.0-67.0","vs8uj2e4","","","","","","","","","","","","","547","ila","Diagnostic practice","","f","","Diagnostic practice","15","-84","true","false","false","prac equal","RIGHT","LEFT","f","1","false","","","",""
"","html-keyboard-response","38","143614","0.0-70.0","vs8uj2e4","1366","768","","","","","","","","","","","null","+","Fixation - short","","null","","","","","","","","","","","","","","","","",""
"","instructions","39","164383","0.0-71.0","vs8uj2e4","","","","","","","","","","","","[{""page_index"":0,""viewing_time"":20768}]","20768","Instructions","Final experiment explanation","","","","","","","","","","","","","","","","","","",""
"","html-keyboard-response","40","181288","0.0-72.0","vs8uj2e4","","","","","","","","","","","","","15401","If goj press RIGHT | If sdw press LEFT","Inducer practice",""," ","","Practice","","","","","","","","","","","","","","",""
"","html-keyboard-response","41","182039","0.0-73.0","vs8uj2e4","1366","768","","","","","","","","","","","null","+","Fixation - short","","null","","","","","","","","","","","","","","","","",""
"","html-keyboard-response","42","183757","0.0-74.0","vs8uj2e4","","","","","","","","","","","","","1717","goj","Inducer practice","","f","","Practice","","","","true","","","","","j","0","","true","RIGHT","",""
"","call-function","43","183757","0.0-76.0-0.0","vs8uj2e4","","","","","","","","","","","","","","","","","","","","","","","","","","","","","","","","","",""
"","html-keyboard-response","44","184059","0.0-76.0-1.0","vs8uj2e4","1366","768","","","","","","","","","","","null","Wrong","Feedback","","null","","","","","","","","","","","","","","","","",""
"","call-function","45","184059","0.0-76.0-2.0","vs8uj2e4","","","","","","","","","","","","","","","","","","","","","","","","","","","","","","","","","",""
"","html-keyboard-response","46","184821","0.0-77.0","vs8uj2e4","1366","768","","","","","","","","","","","null","+","Fixation - short","","null","","","","","","","","","","","","","","","","",""
"","html-keyboard-response","47","190793","0.0-78.0","vs8uj2e4","","","","","","","","","","","","","5972","If otr press RIGHT | If ccx press LEFT","Inducer practice",""," ","","Practice","","","","","","","","","","","","","","",""
"","html-keyboard-response","48","191547","0.0-79.0","vs8uj2e4","1366","768","","","","","","","","","","","null","+","Fixation - short","","null","","","","","","","","","","","","","","","","",""
"","html-keyboard-response","49","192346","0.0-80.0","vs8uj2e4","","","","","","","","","","","","","798","otr","Inducer practice","","j","","Practice","","","","true","","","","","j","1","","true","RIGHT","",""
"","html-keyboard-response","50","193105","0.0-83.0","vs8uj2e4","1366","768","","","","","","","","","","","null","+","Fixation - short","","null","","","","","","","","","","","","","","","","",""
"","html-keyboard-response","51","197749","0.0-84.0","vs8uj2e4","","","","","","","","","","","","","4643","If cer press RIGHT | If pph press LEFT","Inducer practice",""," ","","Practice","","","","","","","","","","","","","","",""
"","html-keyboard-response","52","198507","0.0-85.0","vs8uj2e4","1366","768","","","","","","","","","","","null","+","Fixation - short","","null","","","","","","","","","","","","","","","","",""
"","html-keyboard-response","53","199202","0.0-86.0","vs8uj2e4","","","","","","","","","","","","","695","pph","Inducer practice","","f","","Practice","","","","true","","","","","f","1","","true","LEFT","",""
"","html-keyboard-response","54","199954","0.0-89.0","vs8uj2e4","1366","768","","","","","","","","","","","null","+","Fixation - short","","null","","","","","","","","","","","","","","","","",""
"","html-keyboard-response","55","205622","0.0-90.0","vs8uj2e4","","","","","","","","","","","","","5667","If csp press RIGHT | If rrd press LEFT","Inducer practice",""," ","","Practice","","","","","","","","","","","","","","",""
"","html-keyboard-response","56","206385","0.0-91.0","vs8uj2e4","1366","768","","","","","","","","","","","null","+","Fixation - short","","null","","","","","","","","","","","","","","","","",""
"","html-keyboard-response","57","207857","0.0-92.0","vs8uj2e4","","","","","","","","","","","","","1472","csp","Inducer practice","","j","","Practice","","","","true","","","","","j","1","","true","RIGHT","",""
"","html-keyboard-response","58","208611","0.0-95.0","vs8uj2e4","1366","768","","","","","","","","","","","null","+","Fixation - short","","null","","","","","","","","","","","","","","","","",""
"","html-keyboard-response","59","211993","0.0-96.0","vs8uj2e4","","","","","","","","","","","","","3382","If vnn press RIGHT | If pcm press LEFT","Inducer practice",""," ","","Practice","","","","","","","","","","","","","","",""
"","html-keyboard-response","60","212753","0.0-97.0","vs8uj2e4","1366","768","","","","","","","","","","","null","+","Fixation - short","","null","","","","","","","","","","","","","","","","",""
"","html-keyboard-response","61","213455","0.0-98.0","vs8uj2e4","","","","","","","","","","","","","702","pcm","Inducer practice","","f","","Practice","","","","true","","","","","f","1","","true","LEFT","",""
"","html-keyboard-response","62","214214","0.0-101.0","vs8uj2e4","1366","768","","","","","","","","","","","null","+","Fixation - short","","null","","","","","","","","","","","","","","","","",""
"","html-keyboard-response","63","216894","0.0-102.0","vs8uj2e4","","","","","","","","","","","","","2679","If xet press RIGHT | If cpt press LEFT","Inducer practice",""," ","","Practice","","","","","","","","","","","","","","",""
"","html-keyboard-response","64","217654","0.0-103.0","vs8uj2e4","1366","768","","","","","","","","","","","null","+","Fixation - short","","null","","","","","","","","","","","","","","","","",""
"","html-keyboard-response","65","218293","0.0-104.0","vs8uj2e4","","","","","","","","","","","","","639","cpt","Inducer practice","","f","","Practice","","","","true","","","","","f","1","","true","LEFT","",""
"","html-keyboard-response","66","219053","0.0-107.0","vs8uj2e4","1366","768","","","","","","","","","","","null","+","Fixation - short","","null","","","","","","","","","","","","","","","","",""
"","instructions","67","256807","0.0-108.0","vs8uj2e4","","","","","","","","","","","","[{""page_index"":0,""viewing_time"":37753}]","37753","Instructions","Final experiment explanation","","","","","","","","","","","","","","","","","","",""
"","html-keyboard-response","68","261829","0.0-109.0","vs8uj2e4","","","","","","","","","","","","","3515","If ibg press RIGHT | If epy press LEFT","Cue practice",""," ","","Practice","","","","","","","","","","","","","","",""
"","html-keyboard-response","69","262583","0.0-110.0","vs8uj2e4","1366","768","","","","","","","","","","","null","+","Fixation - short","","null","","","","","","","","","","","","","","","","",""
"","html-keyboard-response","70","263286","0.0-111.0","vs8uj2e4","","","","","","","","","","","","","702","ibg","Cue practice","","j","","Practice","0","13","false","false","false","both pre & post","RIGHT","LEFT","f","0","false","","","",""
"","call-function","71","263286","0.0-113.0-0.0","vs8uj2e4","","","","","","","","","","","","","","","","","","","","","","","","","","","","","","","","","",""
"","html-keyboard-response","72","263591","0.0-113.0-1.0","vs8uj2e4","1366","768","","","","","","","","","","","null","Wrong","Feedback","","null","","","","","","","","","","","","","","","","",""
"","call-function","73","263592","0.0-113.0-2.0","vs8uj2e4","","","","","","","","","","","","","","","","","","","","","","","","","","","","","","","","","",""
"","html-keyboard-response","74","264355","0.0-114.0","vs8uj2e4","1366","768","","","","","","","","","","","null","+","Fixation - short","","null","","","","","","","","","","","","","","","","",""
"","html-keyboard-response","75","265985","0.0-115.0","vs8uj2e4","","","","","","","","","","","","","1629","ibg","Cue practice","","f","","Practice","1","13","false","false","true","both pre & post","RIGHT","RIGHT","j","0","true","","","",""
"","call-function","76","265985","0.0-117.0-0.0","vs8uj2e4","","","","","","","","","","","","","","","","","","","","","","","","","","","","","","","","","",""
"","html-keyboard-response","77","266299","0.0-117.0-1.0","vs8uj2e4","1366","768","","","","","","","","","","","null","Wrong","Feedback","","null","","","","","","","","","","","","","","","","",""
"","call-function","78","266300","0.0-117.0-2.0","vs8uj2e4","","","","","","","","","","","","","","","","","","","","","","","","","","","","","","","","","",""
"","html-keyboard-response","79","267064","0.0-118.0","vs8uj2e4","1366","768","","","","","","","","","","","null","+","Fixation - short","","null","","","","","","","","","","","","","","","","",""
"","html-keyboard-response","80","267836","0.0-119.0","vs8uj2e4","","","","","","","","","","","","","771","ibg","Cue practice","","j","","Practice","2","13","false","false","false","both pre & post","RIGHT","LEFT","f","0","false","","","",""
"","call-function","81","267836","0.0-121.0-0.0","vs8uj2e4","","","","","","","","","","","","","","","","","","","","","","","","","","","","","","","","","",""
"","html-keyboard-response","82","268150","0.0-121.0-1.0","vs8uj2e4","1366","768","","","","","","","","","","","null","Wrong","Feedback","","null","","","","","","","","","","","","","","","","",""
"","call-function","83","268151","0.0-121.0-2.0","vs8uj2e4","","","","","","","","","","","","","","","","","","","","","","","","","","","","","","","","","",""
"","html-keyboard-response","84","268915","0.0-122.0","vs8uj2e4","1366","768","","","","","","","","","","","null","+","Fixation - short","","null","","","","","","","","","","","","","","","","",""
"","html-keyboard-response","85","270310","0.0-123.0","vs8uj2e4","","","","","","","","","","","","","1395","epy","Cue practice","","f","","Practice","3","13","false","false","false","both pre & post","LEFT","LEFT","f","1","true","","","",""
"","html-keyboard-response","86","271075","0.0-126.0","vs8uj2e4","1366","768","","","","","","","","","","","null","+","Fixation - short","","null","","","","","","","","","","","","","","","","",""
"","html-keyboard-response","87","272697","0.0-127.0","vs8uj2e4","","","","","","","","","","","","","1622","ibg","Cue practice","","j","","Practice","4","13","false","false","false","both pre & post","RIGHT","LEFT","f","0","false","","","",""
"","call-function","88","272698","0.0-129.0-0.0","vs8uj2e4","","","","","","","","","","","","","","","","","","","","","","","","","","","","","","","","","",""
"","html-keyboard-response","89","273008","0.0-129.0-1.0","vs8uj2e4","1366","768","","","","","","","","","","","null","Wrong","Feedback","","null","","","","","","","","","","","","","","","","",""
"","call-function","90","273008","0.0-129.0-2.0","vs8uj2e4","","","","","","","","","","","","","","","","","","","","","","","","","","","","","","","","","",""
"","html-keyboard-response","91","273769","0.0-130.0","vs8uj2e4","1366","768","","","","","","","","","","","null","+","Fixation - short","","null","","","","","","","","","","","","","","","","",""
"","html-keyboard-response","92","274529","0.0-131.0","vs8uj2e4","","","","","","","","","","","","","758","ibg","Cue practice","","f","","Practice","5","13","false","false","false","both pre & post","RIGHT","LEFT","f","1","false","","","",""
"","html-keyboard-response","93","275293","0.0-134.0","vs8uj2e4","1366","768","","","","","","","","","","","null","+","Fixation - short","","null","","","","","","","","","","","","","","","","",""
"","html-keyboard-response","94","275907","0.0-135.0","vs8uj2e4","","","","","","","","","","","","","613","ibg","Cue practice","","j","","Practice","6","13","false","false","true","both pre & post","RIGHT","RIGHT","j","1","true","","","",""
"","html-keyboard-response","95","276661","0.0-138.0","vs8uj2e4","1366","768","","","","","","","","","","","null","+","Fixation - short","","null","","","","","","","","","","","","","","","","",""
"","html-keyboard-response","96","277410","0.0-139.0","vs8uj2e4","","","","","","","","","","","","","748","epy","Cue practice","","j","","Practice","7","13","false","false","true","both pre & post","LEFT","RIGHT","j","1","false","","","",""
"","html-keyboard-response","97","278172","0.0-142.0","vs8uj2e4","1366","768","","","","","","","","","","","null","+","Fixation - short","","null","","","","","","","","","","","","","","","","",""
"","html-keyboard-response","98","278988","0.0-143.0","vs8uj2e4","","","","","","","","","","","","","815","ibg","Cue practice","","j","","Practice","8","13","false","false","true","both pre & post","RIGHT","RIGHT","j","1","true","","","",""
"","html-keyboard-response","99","279743","0.0-146.0","vs8uj2e4","1366","768","","","","","","","","","","","null","+","Fixation - short","","null","","","","","","","","","","","","","","","","",""
"","html-keyboard-response","100","280473","0.0-147.0","vs8uj2e4","","","","","","","","","","","","","730","ibg","Cue practice","","f","","Practice","9","13","false","false","false","both pre & post","RIGHT","LEFT","f","1","false","","","",""
"","html-keyboard-response","101","281235","0.0-150.0","vs8uj2e4","1366","768","","","","","","","","","","","null","+","Fixation - short","","null","","","","","","","","","","","","","","","","",""
"","html-keyboard-response","102","282375","0.0-151.0","vs8uj2e4","","","","","","","","","","","","","1139","ibg","Cue practice","","j","","Practice","10","13","false","false","true","both pre & post","RIGHT","RIGHT","j","1","true","","","",""
"","html-keyboard-response","103","283132","0.0-154.0","vs8uj2e4","1366","768","","","","","","","","","","","null","+","Fixation - short","","null","","","","","","","","","","","","","","","","",""
"","html-keyboard-response","104","284092","0.0-155.0","vs8uj2e4","","","","","","","","","","","","","960","epy","Cue practice","","j","","Practice","11","13","false","false","true","both pre & post","LEFT","RIGHT","j","1","false","","","",""
"","html-keyboard-response","105","284849","0.0-158.0","vs8uj2e4","1366","768","","","","","","","","","","","null","+","Fixation - short","","null","","","","","","","","","","","","","","","","",""
"","html-keyboard-response","106","285670","0.0-159.0","vs8uj2e4","","","","","","","","","","","","","820","ibg","Cue practice","","j","","Practice","12","13","false","false","true","both pre & post","RIGHT","RIGHT","j","1","true","","","",""
"","html-keyboard-response","107","286421","0.0-162.0","vs8uj2e4","1366","768","","","","","","","","","","","null","+","Fixation - short","","null","","","","","","","","","","","","","","","","",""
"","canvas-keyboard-response","108","287683","0.0-163.0","vs8uj2e4","","","","","","","","","","","","","null","Cue","Cue","","null","","Practice","12","","","false","","","","","","","","","","",""
"","html-keyboard-response","109","288449","0.0-164.0","vs8uj2e4","1366","768","","","","","","","","","","","null","+","Fixation - short","","null","","","","","","","","","","","","","","","","",""
"","html-keyboard-response","110","289373","0.0-165.0","vs8uj2e4","","","","","","","","","","","","","923","ibg","Cue practice","","f","","Practice","13","13","true","false","false","both pre & post","RIGHT","LEFT","f","1","false","","","",""
"","html-keyboard-response","111","290136","0.0-168.0","vs8uj2e4","1366","768","","","","","","","","","","","null","+","Fixation - short","","null","","","","","","","","","","","","","","","","",""
"","html-keyboard-response","112","290783","0.0-169.0","vs8uj2e4","","","","","","","","","","","","","647","ibg","Cue practice","","j","","Practice","14","13","true","false","true","both pre & post","RIGHT","RIGHT","j","1","true","","","",""
"","html-keyboard-response","113","291537","0.0-172.0","vs8uj2e4","1366","768","","","","","","","","","","","null","+","Fixation - short","","null","","","","","","","","","","","","","","","","",""
"","html-keyboard-response","114","292412","0.0-173.0","vs8uj2e4","","","","","","","","","","","","","874","epy","Cue practice","","j","","Practice","15","13","true","false","true","both pre & post","LEFT","RIGHT","j","1","false","","","",""
"","html-keyboard-response","115","293176","0.0-176.0","vs8uj2e4","1366","768","","","","","","","","","","","null","+","Fixation - short","","null","","","","","","","","","","","","","","","","",""
"","html-keyboard-response","116","294685","0.0-177.0","vs8uj2e4","","","","","","","","","","","","","1508","epy","Inducer practice","","f","","Practice","","","","true","","","","","f","1","","false","LEFT","",""
"","html-keyboard-response","117","295441","0.0-180.0","vs8uj2e4","1366","768","","","","","","","","","","","null","+","Fixation - short","","null","","","","","","","","","","","","","","","","",""
"","instructions","118","306041","0.0-181.0","vs8uj2e4","","","","","","","","","","","","[{""page_index"":0,""viewing_time"":10599}]","10600","End practice","End of practice","","","","","","","","","","","","","","","","","","",""
"","html-keyboard-response","119","309060","0.0-182.0","vs8uj2e4","1366","768","","","","","","","","","","","null","+","Fixation - long","","null","","","","","","","","","","","","","","","","",""
"","html-keyboard-response","120","312229","0.0-183.0","vs8uj2e4","","","","","","","","","","","","","3168","If rbc press RIGHT | If mik press LEFT","Inducer instructions",""," ","","0","","","","","","","","","","","","","","",""
"","html-keyboard-response","121","312989","0.0-184.0","vs8uj2e4","1366","768","","","","","","","","","","","null","+","Fixation - short","","null","","","","","","","","","","","","","","","","",""
"","html-keyboard-response","122","314447","0.0-185.0","vs8uj2e4","","","","","","","","","","","","","1457","rbc","Diagnostic trial","","j","","0","0","4","false","false","true","both pre & post","RIGHT","RIGHT","j","1","true","","","",""
"","html-keyboard-response","123","315199","0.0-188.0","vs8uj2e4","1366","768","","","","","","","","","","","null","+","Fixation - short","","null","","","","","","","","","","","","","","","","",""
"","html-keyboard-response","124","316204","0.0-189.0","vs8uj2e4","","","","","","","","","","","","","1005","mik","Diagnostic trial","","j","","0","1","4","false","false","true","both pre & post","LEFT","RIGHT","j","1","false","","","",""
"","html-keyboard-response","125","316956","0.0-192.0","vs8uj2e4","1366","768","","","","","","","","","","","null","+","Fixation - short","","null","","","","","","","","","","","","","","","","",""
"","html-keyboard-response","126","317582","0.0-193.0","vs8uj2e4","","","","","","","","","","","","","626","rbc","Diagnostic trial","","j","","0","2","4","false","false","true","both pre & post","RIGHT","RIGHT","j","1","true","","","",""
"","html-keyboard-response","127","318341","0.0-196.0","vs8uj2e4","1366","768","","","","","","","","","","","null","+","Fixation - short","","null","","","","","","","","","","","","","","","","",""
"","html-keyboard-response","128","319461","0.0-197.0","vs8uj2e4","","","","","","","","","","","","","1120","mik","Diagnostic trial","","j","","0","3","4","false","false","true","both pre & post","LEFT","RIGHT","j","1","false","","","",""
"","html-keyboard-response","129","320224","0.0-200.0","vs8uj2e4","1366","768","","","","","","","","","","","null","+","Fixation - short","","null","","","","","","","","","","","","","","","","",""
"","canvas-keyboard-response","130","321488","0.0-201.0","vs8uj2e4","","","","","","","","","","","","","null","Cue","Cue","","null","","0","3","","","false","","","","","","","","","","",""
"","html-keyboard-response","131","322248","0.0-202.0","vs8uj2e4","1366","768","","","","","","","","","","","null","+","Fixation - short","","null","","","","","","","","","","","","","","","","",""
"","html-keyboard-response","132","323321","0.0-203.0","vs8uj2e4","","","","","","","","","","","","","1072","rbc","Diagnostic trial","","f","","0","4","4","true","false","false","both pre & post","RIGHT","LEFT","f","1","false","","","",""
"","html-keyboard-response","133","324085","0.0-206.0","vs8uj2e4","1366","768","","","","","","","","","","","null","+","Fixation - short","","null","","","","","","","","","","","","","","","","",""
"","html-keyboard-response","134","324843","0.0-207.0","vs8uj2e4","","","","","","","","","","","","","757","rbc","Diagnostic trial","","f","","0","5","4","true","false","false","both pre & post","RIGHT","LEFT","f","1","false","","","",""
"","html-keyboard-response","135","325609","0.0-210.0","vs8uj2e4","1366","768","","","","","","","","","","","null","+","Fixation - short","","null","","","","","","","","","","","","","","","","",""
"","html-keyboard-response","136","326156","0.0-211.0","vs8uj2e4","","","","","","","","","","","","","546","rbc","Diagnostic trial","","f","","0","6","4","true","false","false","both pre & post","RIGHT","LEFT","f","1","false","","","",""
"","html-keyboard-response","137","326919","0.0-214.0","vs8uj2e4","1366","768","","","","","","","","","","","null","+","Fixation - short","","null","","","","","","","","","","","","","","","","",""
"","html-keyboard-response","138","327609","0.0-215.0","vs8uj2e4","","","","","","","","","","","","","689","mik","Inducer trial","","f","","0","","","","true","","","","","f","1","","false","LEFT","",""
"","html-keyboard-response","139","328369","0.0-218.0","vs8uj2e4","1366","768","","","","","","","","","","","null","+","Fixation - short","","null","","","","","","","","","","","","","","","","",""
"","html-keyboard-response","140","331632","0.0-219.0","vs8uj2e4","","","","","","","","","","","","","3263","If tkb press RIGHT | If bsh press LEFT","Inducer instructions",""," ","","1","","","","","","","","","","","","","","",""
"","html-keyboard-response","141","332395","0.0-220.0","vs8uj2e4","1366","768","","","","","","","","","","","null","+","Fixation - short","","null","","","","","","","","","","","","","","","","",""
"","html-keyboard-response","142","332966","0.0-221.0","vs8uj2e4","","","","","","","","","","","","","570","tkb","Diagnostic trial","","j","","1","0","7","false","false","true","both pre & post","RIGHT","RIGHT","j","1","true","","","",""
"","html-keyboard-response","143","333720","0.0-224.0","vs8uj2e4","1366","768","","","","","","","","","","","null","+","Fixation - short","","null","","","","","","","","","","","","","","","","",""
"","html-keyboard-response","144","334165","0.0-225.0","vs8uj2e4","","","","","","","","","","","","","444","tkb","Diagnostic trial","","j","","1","1","7","false","false","true","both pre & post","RIGHT","RIGHT","j","1","true","","","",""
"","html-keyboard-response","145","334919","0.0-228.0","vs8uj2e4","1366","768","","","","","","","","","","","null","+","Fixation - short","","null","","","","","","","","","","","","","","","","",""
"","html-keyboard-response","146","336212","0.0-229.0","vs8uj2e4","","","","","","","","","","","","","1292","bsh","Diagnostic trial","","f","","1","2","7","false","false","false","both pre & post","LEFT","LEFT","f","1","true","","","",""
"","html-keyboard-response","147","336972","0.0-232.0","vs8uj2e4","1366","768","","","","","","","","","","","null","+","Fixation - short","","null","","","","","","","","","","","","","","","","",""
"","html-keyboard-response","148","338978","0.0-233.0","vs8uj2e4","","","","","","","","","","","","","null","bsh","Diagnostic trial","","null","","1","3","7","false","false","true","both pre & post","LEFT","RIGHT","j","NaN","false","","","",""
"","call-function","149","338978","0.0-234.0-0.0","vs8uj2e4","","","","","","","","","","","","","","","","","","","","","","","","","","","","","","","","","",""
"","html-keyboard-response","150","339288","0.0-234.0-1.0","vs8uj2e4","1366","768","","","","","","","","","","","null","Slow","Feedback","","null","","","","","","","","","","","","","","","","",""
"","call-function","151","339289","0.0-234.0-2.0","vs8uj2e4","","","","","","","","","","","","","","","","","","","","","","","","","","","","","","","","","",""
"","html-keyboard-response","152","340048","0.0-236.0","vs8uj2e4","1366","768","","","","","","","","","","","null","+","Fixation - short","","null","","","","","","","","","","","","","","","","",""
"","html-keyboard-response","153","340706","0.0-237.0","vs8uj2e4","","","","","","","","","","","","","657","tkb","Diagnostic trial","","j","","1","4","7","false","false","true","both pre & post","RIGHT","RIGHT","j","1","true","","","",""
"","html-keyboard-response","154","341462","0.0-240.0","vs8uj2e4","1366","768","","","","","","","","","","","null","+","Fixation - short","","null","","","","","","","","","","","","","","","","",""
"","html-keyboard-response","155","341933","0.0-241.0","vs8uj2e4","","","","","","","","","","","","","470","tkb","Diagnostic trial","","j","","1","5","7","false","false","true","both pre & post","RIGHT","RIGHT","j","1","true","","","",""
"","html-keyboard-response","156","342691","0.0-244.0","vs8uj2e4","1366","768","","","","","","","","","","","null","+","Fixation - short","","null","","","","","","","","","","","","","","","","",""
"","html-keyboard-response","157","343301","0.0-245.0","vs8uj2e4","","","","","","","","","","","","","609","tkb","Diagnostic trial","","f","","1","6","7","false","false","false","both pre & post","RIGHT","LEFT","f","1","false","","","",""
"","html-keyboard-response","158","344060","0.0-248.0","vs8uj2e4","1366","768","","","","","","","","","","","null","+","Fixation - short","","null","","","","","","","","","","","","","","","","",""
"","canvas-keyboard-response","159","345320","0.0-249.0","vs8uj2e4","","","","","","","","","","","","","null","Cue","Cue","","null","","1","6","","","false","","","","","","","","","","",""
"","html-keyboard-response","160","346083","0.0-250.0","vs8uj2e4","1366","768","","","","","","","","","","","null","+","Fixation - short","","null","","","","","","","","","","","","","","","","",""
"","html-keyboard-response","161","346865","0.0-251.0","vs8uj2e4","","","","","","","","","","","","","782","bsh","Diagnostic trial","","f","","1","7","7","true","false","true","both pre & post","LEFT","RIGHT","j","0","false","","","",""
"","call-function","162","346866","0.0-253.0-0.0","vs8uj2e4","","","","","","","","","","","","","","","","","","","","","","","","","","","","","","","","","",""
"","html-keyboard-response","163","347173","0.0-253.0-1.0","vs8uj2e4","1366","768","","","","","","","","","","","null","Wrong","Feedback","","null","","","","","","","","","","","","","","","","",""
"","call-function","164","347173","0.0-253.0-2.0","vs8uj2e4","","","","","","","","","","","","","","","","","","","","","","","","","","","","","","","","","",""
"","html-keyboard-response","165","347935","0.0-254.0","vs8uj2e4","1366","768","","","","","","","","","","","null","+","Fixation - short","","null","","","","","","","","","","","","","","","","",""
"","html-keyboard-response","166","348623","0.0-255.0","vs8uj2e4","","","","","","","","","","","","","687","tkb","Diagnostic trial","","j","","1","8","7","true","false","false","both pre & post","RIGHT","LEFT","f","0","false","","","",""
"","call-function","167","348623","0.0-257.0-0.0","vs8uj2e4","","","","","","","","","","","","","","","","","","","","","","","","","","","","","","","","","",""
"","html-keyboard-response","168","348927","0.0-257.0-1.0","vs8uj2e4","1366","768","","","","","","","","","","","null","Wrong","Feedback","","null","","","","","","","","","","","","","","","","",""
"","call-function","169","348928","0.0-257.0-2.0","vs8uj2e4","","","","","","","","","","","","","","","","","","","","","","","","","","","","","","","","","",""
"","html-keyboard-response","170","349689","0.0-258.0","vs8uj2e4","1366","768","","","","","","","","","","","null","+","Fixation - short","","null","","","","","","","","","","","","","","","","",""
"","html-keyboard-response","171","350251","0.0-259.0","vs8uj2e4","","","","","","","","","","","","","561","tkb","Diagnostic trial","","j","","1","9","7","true","false","true","both pre & post","RIGHT","RIGHT","j","1","true","","","",""
"","html-keyboard-response","172","351014","0.0-262.0","vs8uj2e4","1366","768","","","","","","","","","","","null","+","Fixation - short","","null","","","","","","","","","","","","","","","","",""
"","html-keyboard-response","173","351544","0.0-263.0","vs8uj2e4","","","","","","","","","","","","","529","tkb","Diagnostic trial","","j","","1","10","7","true","false","true","both pre & post","RIGHT","RIGHT","j","1","true","","","",""
"","html-keyboard-response","174","352305","0.0-266.0","vs8uj2e4","1366","768","","","","","","","","","","","null","+","Fixation - short","","null","","","","","","","","","","","","","","","","",""
"","html-keyboard-response","175","352887","0.0-267.0","vs8uj2e4","","","","","","","","","","","","","581","tkb","Inducer trial","","f","","1","","","","true","","","","","j","0","","false","RIGHT","",""
"","call-function","176","352887","0.0-269.0-0.0","vs8uj2e4","","","","","","","","","","","","","","","","","","","","","","","","","","","","","","","","","",""
"","html-keyboard-response","177","353189","0.0-269.0-1.0","vs8uj2e4","1366","768","","","","","","","","","","","null","Wrong","Feedback","","null","","","","","","","","","","","","","","","","",""
"","call-function","178","353190","0.0-269.0-2.0","vs8uj2e4","","","","","","","","","","","","","","","","","","","","","","","","","","","","","","","","","",""
"","html-keyboard-response","179","353952","0.0-270.0","vs8uj2e4","1366","768","","","","","","","","","","","null","+","Fixation - short","","null","","","","","","","","","","","","","","","","",""
"","html-keyboard-response","180","361632","0.0-271.0","vs8uj2e4","","","","","","","","","","","","","7679","If pmf press RIGHT | If afp press LEFT","Inducer instructions",""," ","","2","","","","","","","","","","","","","","",""
"","html-keyboard-response","181","362388","0.0-272.0","vs8uj2e4","1366","768","","","","","","","","","","","null","+","Fixation - short","","null","","","","","","","","","","","","","","","","",""
"","html-keyboard-response","182","363688","0.0-273.0","vs8uj2e4","","","","","","","","","","","","","1300","pmf","Diagnostic trial","","j","","2","0","11","false","false","true","both pre & post","RIGHT","RIGHT","j","1","true","","","",""
"","html-keyboard-response","183","364444","0.0-276.0","vs8uj2e4","1366","768","","","","","","","","","","","null","+","Fixation - short","","null","","","","","","","","","","","","","","","","",""
"","html-keyboard-response","184","365186","0.0-277.0","vs8uj2e4","","","","","","","","","","","","","742","afp","Diagnostic trial","","j","","2","1","11","false","false","true","both pre & post","LEFT","RIGHT","j","1","false","","","",""
"","html-keyboard-response","185","365953","0.0-280.0","vs8uj2e4","1366","768","","","","","","","","","","","null","+","Fixation - short","","null","","","","","","","","","","","","","","","","",""
"","html-keyboard-response","186","366510","0.0-281.0","vs8uj2e4","","","","","","","","","","","","","557","pmf","Diagnostic trial","","j","","2","2","11","false","false","true","both pre & post","RIGHT","RIGHT","j","1","true","","","",""
"","html-keyboard-response","187","367274","0.0-284.0","vs8uj2e4","1366","768","","","","","","","","","","","null","+","Fixation - short","","null","","","","","","","","","","","","","","","","",""
"","html-keyboard-response","188","367825","0.0-285.0","vs8uj2e4","","","","","","","","","","","","","550","pmf","Diagnostic trial","","j","","2","3","11","false","false","true","both pre & post","RIGHT","RIGHT","j","1","true","","","",""
"","html-keyboard-response","189","368580","0.0-288.0","vs8uj2e4","1366","768","","","","","","","","","","","null","+","Fixation - short","","null","","","","","","","","","","","","","","","","",""
"","html-keyboard-response","190","369209","0.0-289.0","vs8uj2e4","","","","","","","","","","","","","628","afp","Diagnostic trial","","f","","2","4","11","false","false","false","both pre & post","LEFT","LEFT","f","1","true","","","",""
"","html-keyboard-response","191","369963","0.0-292.0","vs8uj2e4","1366","768","","","","","","","","","","","null","+","Fixation - short","","null","","","","","","","","","","","","","","","","",""
"","html-keyboard-response","192","370564","0.0-293.0","vs8uj2e4","","","","","","","","","","","","","600","afp","Diagnostic trial","","f","","2","5","11","false","false","false","both pre & post","LEFT","LEFT","f","1","true","","","",""
"","html-keyboard-response","193","371330","0.0-296.0","vs8uj2e4","1366","768","","","","","","","","","","","null","+","Fixation - short","","null","","","","","","","","","","","","","","","","",""
"","html-keyboard-response","194","372014","0.0-297.0","vs8uj2e4","","","","","","","","","","","","","684","afp","Diagnostic trial","","j","","2","6","11","false","false","true","both pre & post","LEFT","RIGHT","j","1","false","","","",""
"","html-keyboard-response","195","372774","0.0-300.0","vs8uj2e4","1366","768","","","","","","","","","","","null","+","Fixation - short","","null","","","","","","","","","","","","","","","","",""
"","html-keyboard-response","196","373234","0.0-301.0","vs8uj2e4","","","","","","","","","","","","","459","afp","Diagnostic trial","","j","","2","7","11","false","false","true","both pre & post","LEFT","RIGHT","j","1","false","","","",""
"","html-keyboard-response","197","373987","0.0-304.0","vs8uj2e4","1366","768","","","","","","","","","","","null","+","Fixation - short","","null","","","","","","","","","","","","","","","","",""
"","html-keyboard-response","198","374563","0.0-305.0","vs8uj2e4","","","","","","","","","","","","","575","pmf","Diagnostic trial","","f","","2","8","11","false","false","false","both pre & post","RIGHT","LEFT","f","1","false","","","",""
"","html-keyboard-response","199","375326","0.0-308.0","vs8uj2e4","1366","768","","","","","","","","","","","null","+","Fixation - short","","null","","","","","","","","","","","","","","","","",""
"","html-keyboard-response","200","376083","0.0-309.0","vs8uj2e4","","","","","","","","","","","","","756","pmf","Diagnostic trial","","f","","2","9","11","false","false","false","both pre & post","RIGHT","LEFT","f","1","false","","","",""
"","html-keyboard-response","201","376837","0.0-312.0","vs8uj2e4","1366","768","","","","","","","","","","","null","+","Fixation - short","","null","","","","","","","","","","","","","","","","",""
"","html-keyboard-response","202","377461","0.0-313.0","vs8uj2e4","","","","","","","","","","","","","623","pmf","Diagnostic trial","","j","","2","10","11","false","false","true","both pre & post","RIGHT","RIGHT","j","1","true","","","",""
"","html-keyboard-response","203","378220","0.0-316.0","vs8uj2e4","1366","768","","","","","","","","","","","null","+","Fixation - short","","null","","","","","","","","","","","","","","","","",""
"","canvas-keyboard-response","204","379477","0.0-317.0","vs8uj2e4","","","","","","","","","","","","","null","Cue","Cue","","null","","2","10","","","false","","","","","","","","","","",""
"","html-keyboard-response","205","380238","0.0-318.0","vs8uj2e4","1366","768","","","","","","","","","","","null","+","Fixation - short","","null","","","","","","","","","","","","","","","","",""
"","html-keyboard-response","206","380712","0.0-319.0","vs8uj2e4","","","","","","","","","","","","","473","afp","Diagnostic trial","","f","","2","11","11","true","false","true","both pre & post","LEFT","RIGHT","j","0","false","","","",""
"","call-function","207","380712","0.0-321.0-0.0","vs8uj2e4","","","","","","","","","","","","","","","","","","","","","","","","","","","","","","","","","",""
"","html-keyboard-response","208","381017","0.0-321.0-1.0","vs8uj2e4","1366","768","","","","","","","","","","","null","Wrong","Feedback","","null","","","","","","","","","","","","","","","","",""
"","call-function","209","381017","0.0-321.0-2.0","vs8uj2e4","","","","","","","","","","","","","","","","","","","","","","","","","","","","","","","","","",""
"","html-keyboard-response","210","381779","0.0-322.0","vs8uj2e4","1366","768","","","","","","","","","","","null","+","Fixation - short","","null","","","","","","","","","","","","","","","","",""
"","html-keyboard-response","211","382444","0.0-323.0","vs8uj2e4","","","","","","","","","","","","","664","afp","Diagnostic trial","","j","","2","12","11","true","false","true","both pre & post","LEFT","RIGHT","j","1","false","","","",""
"","html-keyboard-response","212","383208","0.0-326.0","vs8uj2e4","1366","768","","","","","","","","","","","null","+","Fixation - short","","null","","","","","","","","","","","","","","","","",""
"","html-keyboard-response","213","383622","0.0-327.0","vs8uj2e4","","","","","","","","","","","","","413","afp","Diagnostic trial","","j","","2","13","11","true","false","true","both pre & post","LEFT","RIGHT","j","1","false","","","",""
"","html-keyboard-response","214","384376","0.0-330.0","vs8uj2e4","1366","768","","","","","","","","","","","null","+","Fixation - short","","null","","","","","","","","","","","","","","","","",""
"","html-keyboard-response","215","384879","0.0-331.0","vs8uj2e4","","","","","","","","","","","","","503","afp","Inducer trial","","f","","2","","","","true","","","","","f","1","","false","LEFT","",""
"","html-keyboard-response","216","385634","0.0-334.0","vs8uj2e4","1366","768","","","","","","","","","","","null","+","Fixation - short","","null","","","","","","","","","","","","","","","","",""
"","html-keyboard-response","217","399019","0.0-335.0","vs8uj2e4","","","","","","","","","","","","","13384","If quy press RIGHT | If upf press LEFT","Inducer instructions",""," ","","3","","","","","","","","","","","","","","",""
"","html-keyboard-response","218","399776","0.0-336.0","vs8uj2e4","1366","768","","","","","","","","","","","null","+","Fixation - short","","null","","","","","","","","","","","","","","","","",""
"","html-keyboard-response","219","400251","0.0-337.0","vs8uj2e4","","","","","","","","","","","","","474","quy","Diagnostic trial","","j","","3","0","5","false","false","true","both pre & post","RIGHT","RIGHT","j","1","true","","","",""
"","html-keyboard-response","220","401006","0.0-340.0","vs8uj2e4","1366","768","","","","","","","","","","","null","+","Fixation - short","","null","","","","","","","","","","","","","","","","",""
"","html-keyboard-response","221","401399","0.0-341.0","vs8uj2e4","","","","","","","","","","","","","392","upf","Diagnostic trial","","j","","3","1","5","false","false","true","both pre & post","LEFT","RIGHT","j","1","false","","","",""
"","html-keyboard-response","222","402159","0.0-344.0","vs8uj2e4","1366","768","","","","","","","","","","","null","+","Fixation - short","","null","","","","","","","","","","","","","","","","",""
"","html-keyboard-response","223","402707","0.0-345.0","vs8uj2e4","","","","","","","","","","","","","548","quy","Diagnostic trial","","j","","3","2","5","false","false","true","both pre & post","RIGHT","RIGHT","j","1","true","","","",""
"","html-keyboard-response","224","403468","0.0-348.0","vs8uj2e4","1366","768","","","","","","","","","","","null","+","Fixation - short","","null","","","","","","","","","","","","","","","","",""
"","html-keyboard-response","225","403881","0.0-349.0","vs8uj2e4","","","","","","","","","","","","","412","upf","Diagnostic trial","","j","","3","3","5","false","false","true","both pre & post","LEFT","RIGHT","j","1","false","","","",""
"","html-keyboard-response","226","404632","0.0-352.0","vs8uj2e4","1366","768","","","","","","","","","","","null","+","Fixation - short","","null","","","","","","","","","","","","","","","","",""
"","html-keyboard-response","227","405234","0.0-353.0","vs8uj2e4","","","","","","","","","","","","","601","quy","Diagnostic trial","","f","","3","4","5","false","false","false","both pre & post","RIGHT","LEFT","f","1","false","","","",""
"","html-keyboard-response","228","405987","0.0-356.0","vs8uj2e4","1366","768","","","","","","","","","","","null","+","Fixation - short","","null","","","","","","","","","","","","","","","","",""
"","canvas-keyboard-response","229","407250","0.0-357.0","vs8uj2e4","","","","","","","","","","","","","null","Cue","Cue","","null","","3","4","","","false","","","","","","","","","","",""
"","html-keyboard-response","230","408009","0.0-358.0","vs8uj2e4","1366","768","","","","","","","","","","","null","+","Fixation - short","","null","","","","","","","","","","","","","","","","",""
"","html-keyboard-response","231","408893","0.0-359.0","vs8uj2e4","","","","","","","","","","","","","883","upf","Diagnostic trial","","j","","3","5","5","true","false","false","both pre & post","LEFT","LEFT","f","0","true","","","",""
"","call-function","232","408893","0.0-361.0-0.0","vs8uj2e4","","","","","","","","","","","","","","","","","","","","","","","","","","","","","","","","","",""
"","html-keyboard-response","233","409206","0.0-361.0-1.0","vs8uj2e4","1366","768","","","","","","","","","","","null","Wrong","Feedback","","null","","","","","","","","","","","","","","","","",""
"","call-function","234","409206","0.0-361.0-2.0","vs8uj2e4","","","","","","","","","","","","","","","","","","","","","","","","","","","","","","","","","",""
"","html-keyboard-response","235","409969","0.0-362.0","vs8uj2e4","1366","768","","","","","","","","","","","null","+","Fixation - short","","null","","","","","","","","","","","","","","","","",""
"","html-keyboard-response","236","410633","0.0-363.0","vs8uj2e4","","","","","","","","","","","","","663","upf","Inducer trial","","f","","3","","","","true","","","","","f","1","","false","LEFT","",""
"","html-keyboard-response","237","411385","0.0-366.0","vs8uj2e4","1366","768","","","","","","","","","","","null","+","Fixation - short","","null","","","","","","","","","","","","","","","","",""
"","html-keyboard-response","238","415559","0.0-367.0","vs8uj2e4","","","","","","","","","","","","","4173","If xlv press RIGHT | If yna press LEFT","Inducer instructions",""," ","","4","","","","","","","","","","","","","","",""
"","html-keyboard-response","239","416318","0.0-368.0","vs8uj2e4","1366","768","","","","","","","","","","","null","+","Fixation - short","","null","","","","","","","","","","","","","","","","",""
"","html-keyboard-response","240","416782","0.0-369.0","vs8uj2e4","","","","","","","","","","","","","463","xlv","Diagnostic trial","","j","","4","0","5","false","false","true","both pre & post","RIGHT","RIGHT","j","1","true","","","",""
"","html-keyboard-response","241","417545","0.0-372.0","vs8uj2e4","1366","768","","","","","","","","","","","null","+","Fixation - short","","null","","","","","","","","","","","","","","","","",""
"","html-keyboard-response","242","417955","0.0-373.0","vs8uj2e4","","","","","","","","","","","","","410","xlv","Diagnostic trial","","j","","4","1","5","false","false","true","both pre & post","RIGHT","RIGHT","j","1","true","","","",""
"","html-keyboard-response","243","418712","0.0-376.0","vs8uj2e4","1366","768","","","","","","","","","","","null","+","Fixation - short","","null","","","","","","","","","","","","","","","","",""
"","html-keyboard-response","244","419144","0.0-377.0","vs8uj2e4","","","","","","","","","","","","","431","xlv","Diagnostic trial","","j","","4","2","5","false","false","false","both pre & post","RIGHT","LEFT","f","0","false","","","",""
"","call-function","245","419144","0.0-379.0-0.0","vs8uj2e4","","","","","","","","","","","","","","","","","","","","","","","","","","","","","","","","","",""
"","html-keyboard-response","246","419457","0.0-379.0-1.0","vs8uj2e4","1366","768","","","","","","","","","","","null","Wrong","Feedback","","null","","","","","","","","","","","","","","","","",""
"","call-function","247","419457","0.0-379.0-2.0","vs8uj2e4","","","","","","","","","","","","","","","","","","","","","","","","","","","","","","","","","",""
"","html-keyboard-response","248","420218","0.0-380.0","vs8uj2e4","1366","768","","","","","","","","","","","null","+","Fixation - short","","null","","","","","","","","","","","","","","","","",""
"","html-keyboard-response","249","420717","0.0-381.0","vs8uj2e4","","","","","","","","","","","","","498","yna","Diagnostic trial","","j","","4","3","5","false","false","true","both pre & post","LEFT","RIGHT","j","1","false","","","",""
"","html-keyboard-response","250","421480","0.0-384.0","vs8uj2e4","1366","768","","","","","","","","","","","null","+","Fixation - short","","null","","","","","","","","","","","","","","","","",""
"","html-keyboard-response","251","422140","0.0-385.0","vs8uj2e4","","","","","","","","","","","","","659","yna","Diagnostic trial","","f","","4","4","5","false","false","false","both pre & post","LEFT","LEFT","f","1","true","","","",""
"","html-keyboard-response","252","422896","0.0-388.0","vs8uj2e4","1366","768","","","","","","","","","","","null","+","Fixation - short","","null","","","","","","","","","","","","","","","","",""
"","canvas-keyboard-response","253","424155","0.0-389.0","vs8uj2e4","","","","","","","","","","","","","null","Cue","Cue","","null","","4","4","","","false","","","","","","","","","","",""
"","html-keyboard-response","254","424918","0.0-390.0","vs8uj2e4","1366","768","","","","","","","","","","","null","+","Fixation - short","","null","","","","","","","","","","","","","","","","",""
"","html-keyboard-response","255","425754","0.0-391.0","vs8uj2e4","","","","","","","","","","","","","836","yna","Diagnostic trial","","j","","4","5","5","true","false","true","both pre & post","LEFT","RIGHT","j","1","false","","","",""
"","html-keyboard-response","256","426508","0.0-394.0","vs8uj2e4","1366","768","","","","","","","","","","","null","+","Fixation - short","","null","","","","","","","","","","","","","","","","",""
"","html-keyboard-response","257","427118","0.0-395.0","vs8uj2e4","","","","","","","","","","","","","610","xlv","Diagnostic trial","","j","","4","6","5","true","false","true","both pre & post","RIGHT","RIGHT","j","1","true","","","",""
"","html-keyboard-response","258","427882","0.0-398.0","vs8uj2e4","1366","768","","","","","","","","","","","null","+","Fixation - short","","null","","","","","","","","","","","","","","","","",""
"","html-keyboard-response","259","429240","0.0-399.0","vs8uj2e4","","","","","","","","","","","","","1358","xlv","Inducer trial","","j","","4","","","","true","","","","","j","1","","false","RIGHT","",""
"","html-keyboard-response","260","429992","0.0-402.0","vs8uj2e4","1366","768","","","","","","","","","","","null","+","Fixation - short","","null","","","","","","","","","","","","","","","","",""
"","html-keyboard-response","261","438432","0.0-403.0","vs8uj2e4","","","","","","","","","","","","","8439","If gdn press RIGHT | If ofa press LEFT","Inducer instructions",""," ","","5","","","","","","","","","","","","","","",""
"","html-keyboard-response","262","439195","0.0-404.0","vs8uj2e4","1366","768","","","","","","","","","","","null","+","Fixation - short","","null","","","","","","","","","","","","","","","","",""
"","html-keyboard-response","263","440724","0.0-405.0","vs8uj2e4","","","","","","","","","","","","","1528","gdn","Diagnostic trial","","f","","5","0","9","false","false","false","both pre & post","RIGHT","LEFT","f","1","false","","","",""
"","html-keyboard-response","264","441481","0.0-408.0","vs8uj2e4","1366","768","","","","","","","","","","","null","+","Fixation - short","","null","","","","","","","","","","","","","","","","",""
"","html-keyboard-response","265","441988","0.0-409.0","vs8uj2e4","","","","","","","","","","","","","507","ofa","Diagnostic trial","","j","","5","1","9","false","false","true","both pre & post","LEFT","RIGHT","j","1","false","","","",""
"","html-keyboard-response","266","442740","0.0-412.0","vs8uj2e4","1366","768","","","","","","","","","","","null","+","Fixation - short","","null","","","","","","","","","","","","","","","","",""
"","html-keyboard-response","267","443441","0.0-413.0","vs8uj2e4","","","","","","","","","","","","","701","ofa","Diagnostic trial","","f","","5","2","9","false","false","false","both pre & post","LEFT","LEFT","f","1","true","","","",""
"","html-keyboard-response","268","444203","0.0-416.0","vs8uj2e4","1366","768","","","","","","","","","","","null","+","Fixation - short","","null","","","","","","","","","","","","","","","","",""
"","html-keyboard-response","269","444894","0.0-417.0","vs8uj2e4","","","","","","","","","","","","","691","gdn","Diagnostic trial","","f","","5","3","9","false","false","false","both pre & post","RIGHT","LEFT","f","1","false","","","",""
"","html-keyboard-response","270","445650","0.0-420.0","vs8uj2e4","1366","768","","","","","","","","","","","null","+","Fixation - short","","null","","","","","","","","","","","","","","","","",""
"","html-keyboard-response","271","446131","0.0-421.0","vs8uj2e4","","","","","","","","","","","","","480","ofa","Diagnostic trial","","j","","5","4","9","false","false","true","both pre & post","LEFT","RIGHT","j","1","false","","","",""
"","html-keyboard-response","272","446897","0.0-424.0","vs8uj2e4","1366","768","","","","","","","","","","","null","+","Fixation - short","","null","","","","","","","","","","","","","","","","",""
"","html-keyboard-response","273","447496","0.0-425.0","vs8uj2e4","","","","","","","","","","","","","599","ofa","Diagnostic trial","","f","","5","5","9","false","false","false","both pre & post","LEFT","LEFT","f","1","true","","","",""
"","html-keyboard-response","274","448251","0.0-428.0","vs8uj2e4","1366","768","","","","","","","","","","","null","+","Fixation - short","","null","","","","","","","","","","","","","","","","",""
"","html-keyboard-response","275","448813","0.0-429.0","vs8uj2e4","","","","","","","","","","","","","561","ofa","Diagnostic trial","","f","","5","6","9","false","false","false","both pre & post","LEFT","LEFT","f","1","true","","","",""
"","html-keyboard-response","276","449576","0.0-432.0","vs8uj2e4","1366","768","","","","","","","","","","","null","+","Fixation - short","","null","","","","","","","","","","","","","","","","",""
"","html-keyboard-response","277","450040","0.0-433.0","vs8uj2e4","","","","","","","","","","","","","463","ofa","Diagnostic trial","","f","","5","7","9","false","false","false","both pre & post","LEFT","LEFT","f","1","true","","","",""
"","html-keyboard-response","278","450806","0.0-436.0","vs8uj2e4","1366","768","","","","","","","","","","","null","+","Fixation - short","","null","","","","","","","","","","","","","","","","",""
"","html-keyboard-response","279","451359","0.0-437.0","vs8uj2e4","","","","","","","","","","","","","553","ofa","Diagnostic trial","","j","","5","8","9","false","false","true","both pre & post","LEFT","RIGHT","j","1","false","","","",""
"","html-keyboard-response","280","452114","0.0-440.0","vs8uj2e4","1366","768","","","","","","","","","","","null","+","Fixation - short","","null","","","","","","","","","","","","","","","","",""
"","canvas-keyboard-response","281","453376","0.0-441.0","vs8uj2e4","","","","","","","","","","","","","null","Cue","Cue","","null","","5","8","","","false","","","","","","","","","","",""
"","html-keyboard-response","282","454140","0.0-442.0","vs8uj2e4","1366","768","","","","","","","","","","","null","+","Fixation - short","","null","","","","","","","","","","","","","","","","",""
"","html-keyboard-response","283","454838","0.0-443.0","vs8uj2e4","","","","","","","","","","","","","698","ofa","Diagnostic trial","","j","","5","9","9","true","false","true","both pre & post","LEFT","RIGHT","j","1","false","","","",""
"","html-keyboard-response","284","455590","0.0-446.0","vs8uj2e4","1366","768","","","","","","","","","","","null","+","Fixation - short","","null","","","","","","","","","","","","","","","","",""
"","html-keyboard-response","285","456286","0.0-447.0","vs8uj2e4","","","","","","","","","","","","","695","gdn","Diagnostic trial","","f","","5","10","9","true","false","false","both pre & post","RIGHT","LEFT","f","1","false","","","",""
"","html-keyboard-response","286","457052","0.0-450.0","vs8uj2e4","1366","768","","","","","","","","","","","null","+","Fixation - short","","null","","","","","","","","","","","","","","","","",""
"","html-keyboard-response","287","457653","0.0-451.0","vs8uj2e4","","","","","","","","","","","","","601","ofa","Diagnostic trial","","j","","5","11","9","true","false","true","both pre & post","LEFT","RIGHT","j","1","false","","","",""
"","html-keyboard-response","288","458406","0.0-454.0","vs8uj2e4","1366","768","","","","","","","","","","","null","+","Fixation - short","","null","","","","","","","","","","","","","","","","",""
"","html-keyboard-response","289","458851","0.0-455.0","vs8uj2e4","","","","","","","","","","","","","445","ofa","Diagnostic trial","","j","","5","12","9","true","false","true","both pre & post","LEFT","RIGHT","j","1","false","","","",""
"","html-keyboard-response","290","459606","0.0-458.0","vs8uj2e4","1366","768","","","","","","","","","","","null","+","Fixation - short","","null","","","","","","","","","","","","","","","","",""
"","html-keyboard-response","291","460264","0.0-459.0","vs8uj2e4","","","","","","","","","","","","","657","gdn","Inducer trial","","f","","5","","","","true","","","","","j","0","","false","RIGHT","",""
"","call-function","292","460265","0.0-461.0-0.0","vs8uj2e4","","","","","","","","","","","","","","","","","","","","","","","","","","","","","","","","","",""
"","html-keyboard-response","293","460574","0.0-461.0-1.0","vs8uj2e4","1366","768","","","","","","","","","","","null","Wrong","Feedback","","null","","","","","","","","","","","","","","","","",""
"","call-function","294","460575","0.0-461.0-2.0","vs8uj2e4","","","","","","","","","","","","","","","","","","","","","","","","","","","","","","","","","",""
"","html-keyboard-response","295","461338","0.0-462.0","vs8uj2e4","1366","768","","","","","","","","","","","null","+","Fixation - short","","null","","","","","","","","","","","","","","","","",""
"","html-keyboard-response","296","466184","0.0-463.0","vs8uj2e4","","","","","","","","","","","","","4846","If idy press RIGHT | If yrp press LEFT","Inducer instructions",""," ","","6","","","","","","","","","","","","","","",""
"","html-keyboard-response","297","466936","0.0-464.0","vs8uj2e4","1366","768","","","","","","","","","","","null","+","Fixation - short","","null","","","","","","","","","","","","","","","","",""
"","html-keyboard-response","298","467598","0.0-465.0","vs8uj2e4","","","","","","","","","","","","","661","idy","Diagnostic trial","","f","","6","0","7","false","false","false","both pre & post","RIGHT","LEFT","f","1","false","","","",""
"","html-keyboard-response","299","468351","0.0-468.0","vs8uj2e4","1366","768","","","","","","","","","","","null","+","Fixation - short","","null","","","","","","","","","","","","","","","","",""
"","html-keyboard-response","300","468951","0.0-469.0","vs8uj2e4","","","","","","","","","","","","","599","idy","Diagnostic trial","","f","","6","1","7","false","false","false","both pre & post","RIGHT","LEFT","f","1","false","","","",""
"","html-keyboard-response","301","469704","0.0-472.0","vs8uj2e4","1366","768","","","","","","","","","","","null","+","Fixation - short","","null","","","","","","","","","","","","","","","","",""
"","html-keyboard-response","302","470424","0.0-473.0","vs8uj2e4","","","","","","","","","","","","","719","yrp","Diagnostic trial","","f","","6","2","7","false","false","false","both pre & post","LEFT","LEFT","f","1","true","","","",""
"","html-keyboard-response","303","471185","0.0-476.0","vs8uj2e4","1366","768","","","","","","","","","","","null","+","Fixation - short","","null","","","","","","","","","","","","","","","","",""
"","html-keyboard-response","304","471906","0.0-477.0","vs8uj2e4","","","","","","","","","","","","","720","idy","Diagnostic trial","","f","","6","3","7","false","false","false","both pre & post","RIGHT","LEFT","f","1","false","","","",""
"","html-keyboard-response","305","472664","0.0-480.0","vs8uj2e4","1366","768","","","","","","","","","","","null","+","Fixation - short","","null","","","","","","","","","","","","","","","","",""
"","html-keyboard-response","306","473313","0.0-481.0","vs8uj2e4","","","","","","","","","","","","","649","yrp","Diagnostic trial","","f","","6","4","7","false","false","false","both pre & post","LEFT","LEFT","f","1","true","","","",""
"","html-keyboard-response","307","474065","0.0-484.0","vs8uj2e4","1366","768","","","","","","","","","","","null","+","Fixation - short","","null","","","","","","","","","","","","","","","","",""
"","html-keyboard-response","308","474586","0.0-485.0","vs8uj2e4","","","","","","","","","","","","","520","yrp","Diagnostic trial","","f","","6","5","7","false","false","false","both pre & post","LEFT","LEFT","f","1","true","","","",""
"","html-keyboard-response","309","475344","0.0-488.0","vs8uj2e4","1366","768","","","","","","","","","","","null","+","Fixation - short","","null","","","","","","","","","","","","","","","","",""
"","html-keyboard-response","310","476222","0.0-489.0","vs8uj2e4","","","","","","","","","","","","","877","idy","Diagnostic trial","","f","","6","6","7","false","false","false","both pre & post","RIGHT","LEFT","f","1","false","","","",""
"","html-keyboard-response","311","476979","0.0-492.0","vs8uj2e4","1366","768","","","","","","","","","","","null","+","Fixation - short","","null","","","","","","","","","","","","","","","","",""
"","canvas-keyboard-response","312","478240","0.0-493.0","vs8uj2e4","","","","","","","","","","","","","null","Cue","Cue","","null","","6","6","","","false","","","","","","","","","","",""
"","html-keyboard-response","313","479004","0.0-494.0","vs8uj2e4","1366","768","","","","","","","","","","","null","+","Fixation - short","","null","","","","","","","","","","","","","","","","",""
"","html-keyboard-response","314","479481","0.0-495.0","vs8uj2e4","","","","","","","","","","","","","477","yrp","Diagnostic trial","","j","","6","7","7","true","false","true","both pre & post","LEFT","RIGHT","j","1","false","","","",""
"","html-keyboard-response","315","480233","0.0-498.0","vs8uj2e4","1366","768","","","","","","","","","","","null","+","Fixation - short","","null","","","","","","","","","","","","","","","","",""
"","html-keyboard-response","316","480743","0.0-499.0","vs8uj2e4","","","","","","","","","","","","","509","yrp","Diagnostic trial","","j","","6","8","7","true","false","true","both pre & post","LEFT","RIGHT","j","1","false","","","",""
"","html-keyboard-response","317","481495","0.0-502.0","vs8uj2e4","1366","768","","","","","","","","","","","null","+","Fixation - short","","null","","","","","","","","","","","","","","","","",""
"","html-keyboard-response","318","482456","0.0-503.0","vs8uj2e4","","","","","","","","","","","","","960","idy","Inducer trial","","j","","6","","","","true","","","","","j","1","","false","RIGHT","",""
"","html-keyboard-response","319","483221","0.0-506.0","vs8uj2e4","1366","768","","","","","","","","","","","null","+","Fixation - short","","null","","","","","","","","","","","","","","","","",""
"","html-keyboard-response","320","488255","0.0-507.0","vs8uj2e4","","","","","","","","","","","","","5034","If lff press RIGHT | If jft press LEFT","Inducer instructions",""," ","","7","","","","","","","","","","","","","","",""
"","html-keyboard-response","321","489021","0.0-508.0","vs8uj2e4","1366","768","","","","","","","","","","","null","+","Fixation - short","","null","","","","","","","","","","","","","","","","",""
"","html-keyboard-response","322","489459","0.0-509.0","vs8uj2e4","","","","","","","","","","","","","437","jft","Diagnostic trial","","j","","7","0","6","false","false","true","both pre & post","LEFT","RIGHT","j","1","false","","","",""
"","html-keyboard-response","323","490218","0.0-512.0","vs8uj2e4","1366","768","","","","","","","","","","","null","+","Fixation - short","","null","","","","","","","","","","","","","","","","",""
"","html-keyboard-response","324","490898","0.0-513.0","vs8uj2e4","","","","","","","","","","","","","680","lff","Diagnostic trial","","f","","7","1","6","false","false","false","both pre & post","RIGHT","LEFT","f","1","false","","","",""
"","html-keyboard-response","325","491649","0.0-516.0","vs8uj2e4","1366","768","","","","","","","","","","","null","+","Fixation - short","","null","","","","","","","","","","","","","","","","",""
"","html-keyboard-response","326","492341","0.0-517.0","vs8uj2e4","","","","","","","","","","","","","692","jft","Diagnostic trial","","f","","7","2","6","false","false","false","both pre & post","LEFT","LEFT","f","1","true","","","",""
"","html-keyboard-response","327","493097","0.0-520.0","vs8uj2e4","1366","768","","","","","","","","","","","null","+","Fixation - short","","null","","","","","","","","","","","","","","","","",""
"","html-keyboard-response","328","493700","0.0-521.0","vs8uj2e4","","","","","","","","","","","","","602","lff","Diagnostic trial","","f","","7","3","6","false","false","false","both pre & post","RIGHT","LEFT","f","1","false","","","",""
"","html-keyboard-response","329","494466","0.0-524.0","vs8uj2e4","1366","768","","","","","","","","","","","null","+","Fixation - short","","null","","","","","","","","","","","","","","","","",""
"","html-keyboard-response","330","495029","0.0-525.0","vs8uj2e4","","","","","","","","","","","","","562","lff","Diagnostic trial","","f","","7","4","6","false","false","false","both pre & post","RIGHT","LEFT","f","1","false","","","",""
"","html-keyboard-response","331","495789","0.0-528.0","vs8uj2e4","1366","768","","","","","","","","","","","null","+","Fixation - short","","null","","","","","","","","","","","","","","","","",""
"","html-keyboard-response","332","496192","0.0-529.0","vs8uj2e4","","","","","","","","","","","","","403","lff","Diagnostic trial","","f","","7","5","6","false","false","false","both pre & post","RIGHT","LEFT","f","1","false","","","",""
"","html-keyboard-response","333","496956","0.0-532.0","vs8uj2e4","1366","768","","","","","","","","","","","null","+","Fixation - short","","null","","","","","","","","","","","","","","","","",""
"","canvas-keyboard-response","334","498218","0.0-533.0","vs8uj2e4","","","","","","","","","","","","","null","Cue","Cue","","null","","7","5","","","false","","","","","","","","","","",""
"","html-keyboard-response","335","498981","0.0-534.0","vs8uj2e4","1366","768","","","","","","","","","","","null","+","Fixation - short","","null","","","","","","","","","","","","","","","","",""
"","html-keyboard-response","336","500042","0.0-535.0","vs8uj2e4","","","","","","","","","","","","","1060","lff","Diagnostic trial","","f","","7","6","6","true","false","false","both pre & post","RIGHT","LEFT","f","1","false","","","",""
"","html-keyboard-response","337","500802","0.0-538.0","vs8uj2e4","1366","768","","","","","","","","","","","null","+","Fixation - short","","null","","","","","","","","","","","","","","","","",""
"","html-keyboard-response","338","501415","0.0-539.0","vs8uj2e4","","","","","","","","","","","","","611","lff","Diagnostic trial","","j","","7","7","6","true","false","true","both pre & post","RIGHT","RIGHT","j","1","true","","","",""
"","html-keyboard-response","339","502170","0.0-542.0","vs8uj2e4","1366","768","","","","","","","","","","","null","+","Fixation - short","","null","","","","","","","","","","","","","","","","",""
"","html-keyboard-response","340","502871","0.0-543.0","vs8uj2e4","","","","","","","","","","","","","701","lff","Diagnostic trial","","f","","7","8","6","true","false","false","both pre & post","RIGHT","LEFT","f","1","false","","","",""
"","html-keyboard-response","341","503632","0.0-546.0","vs8uj2e4","1366","768","","","","","","","","","","","null","+","Fixation - short","","null","","","","","","","","","","","","","","","","",""
"","html-keyboard-response","342","504405","0.0-547.0","vs8uj2e4","","","","","","","","","","","","","772","jft","Inducer trial","","f","","7","","","","true","","","","","f","1","","false","LEFT","",""
"","html-keyboard-response","343","505158","0.0-550.0","vs8uj2e4","1366","768","","","","","","","","","","","null","+","Fixation - short","","null","","","","","","","","","","","","","","","","",""
"","html-keyboard-response","344","509434","0.0-551.0","vs8uj2e4","","","","","","","","","","","","","4275","If imm press RIGHT | If byy press LEFT","Inducer instructions",""," ","","8","","","","","","","","","","","","","","",""
"","html-keyboard-response","345","510187","0.0-552.0","vs8uj2e4","1366","768","","","","","","","","","","","null","+","Fixation - short","","null","","","","","","","","","","","","","","","","",""
"","html-keyboard-response","346","512204","0.0-553.0","vs8uj2e4","","","","","","","","","","","","","null","byy","Diagnostic trial","","null","","8","0","6","false","false","true","both pre & post","LEFT","RIGHT","j","NaN","false","","","",""
"","call-function","347","512204","0.0-554.0-0.0","vs8uj2e4","","","","","","","","","","","","","","","","","","","","","","","","","","","","","","","","","",""
"","html-keyboard-response","348","512514","0.0-554.0-1.0","vs8uj2e4","1366","768","","","","","","","","","","","null","Slow","Feedback","","null","","","","","","","","","","","","","","","","",""
"","call-function","349","512514","0.0-554.0-2.0","vs8uj2e4","","","","","","","","","","","","","","","","","","","","","","","","","","","","","","","","","",""
"","html-keyboard-response","350","513275","0.0-556.0","vs8uj2e4","1366","768","","","","","","","","","","","null","+","Fixation - short","","null","","","","","","","","","","","","","","","","",""
"","html-keyboard-response","351","513802","0.0-557.0","vs8uj2e4","","","","","","","","","","","","","526","imm","Diagnostic trial","","j","","8","1","6","false","false","true","both pre & post","RIGHT","RIGHT","j","1","true","","","",""
"","html-keyboard-response","352","514565","0.0-560.0","vs8uj2e4","1366","768","","","","","","","","","","","null","+","Fixation - short","","null","","","","","","","","","","","","","","","","",""
"","html-keyboard-response","353","515342","0.0-561.0","vs8uj2e4","","","","","","","","","","","","","776","byy","Diagnostic trial","","f","","8","2","6","false","false","false","both pre & post","LEFT","LEFT","f","1","true","","","",""
"","html-keyboard-response","354","516108","0.0-564.0","vs8uj2e4","1366","768","","","","","","","","","","","null","+","Fixation - short","","null","","","","","","","","","","","","","","","","",""
"","html-keyboard-response","355","516685","0.0-565.0","vs8uj2e4","","","","","","","","","","","","","577","byy","Diagnostic trial","","j","","8","3","6","false","false","true","both pre & post","LEFT","RIGHT","j","1","false","","","",""
"","html-keyboard-response","356","517443","0.0-568.0","vs8uj2e4","1366","768","","","","","","","","","","","null","+","Fixation - short","","null","","","","","","","","","","","","","","","","",""
"","html-keyboard-response","357","517859","0.0-569.0","vs8uj2e4","","","","","","","","","","","","","415","byy","Diagnostic trial","","j","","8","4","6","false","false","true","both pre & post","LEFT","RIGHT","j","1","false","","","",""
"","html-keyboard-response","358","518623","0.0-572.0","vs8uj2e4","1366","768","","","","","","","","","","","null","+","Fixation - short","","null","","","","","","","","","","","","","","","","",""
"","html-keyboard-response","359","519213","0.0-573.0","vs8uj2e4","","","","","","","","","","","","","589","imm","Diagnostic trial","","j","","8","5","6","false","false","true","both pre & post","RIGHT","RIGHT","j","1","true","","","",""
"","html-keyboard-response","360","519974","0.0-576.0","vs8uj2e4","1366","768","","","","","","","","","","","null","+","Fixation - short","","null","","","","","","","","","","","","","","","","",""
"","canvas-keyboard-response","361","521234","0.0-577.0","vs8uj2e4","","","","","","","","","","","","","null","Cue","Cue","","null","","8","5","","","false","","","","","","","","","","",""
"","html-keyboard-response","362","521997","0.0-578.0","vs8uj2e4","1366","768","","","","","","","","","","","null","+","Fixation - short","","null","","","","","","","","","","","","","","","","",""
"","html-keyboard-response","363","522597","0.0-579.0","vs8uj2e4","","","","","","","","","","","","","599","imm","Diagnostic trial","","f","","8","6","6","true","false","false","both pre & post","RIGHT","LEFT","f","1","false","","","",""
"","html-keyboard-response","364","523351","0.0-582.0","vs8uj2e4","1366","768","","","","","","","","","","","null","+","Fixation - short","","null","","","","","","","","","","","","","","","","",""
"","html-keyboard-response","365","523924","0.0-583.0","vs8uj2e4","","","","","","","","","","","","","572","imm","Diagnostic trial","","j","","8","7","6","true","false","true","both pre & post","RIGHT","RIGHT","j","1","true","","","",""
"","html-keyboard-response","366","524676","0.0-586.0","vs8uj2e4","1366","768","","","","","","","","","","","null","+","Fixation - short","","null","","","","","","","","","","","","","","","","",""
"","html-keyboard-response","367","525308","0.0-587.0","vs8uj2e4","","","","","","","","","","","","","631","imm","Diagnostic trial","","f","","8","8","6","true","false","false","both pre & post","RIGHT","LEFT","f","1","false","","","",""
"","html-keyboard-response","368","526073","0.0-590.0","vs8uj2e4","1366","768","","","","","","","","","","","null","+","Fixation - short","","null","","","","","","","","","","","","","","","","",""
"","html-keyboard-response","369","526621","0.0-591.0","vs8uj2e4","","","","","","","","","","","","","547","imm","Diagnostic trial","","j","","8","9","6","true","false","true","both pre & post","RIGHT","RIGHT","j","1","true","","","",""
"","html-keyboard-response","370","527383","0.0-594.0","vs8uj2e4","1366","768","","","","","","","","","","","null","+","Fixation - short","","null","","","","","","","","","","","","","","","","",""
"","html-keyboard-response","371","527963","0.0-595.0","vs8uj2e4","","","","","","","","","","","","","580","byy","Inducer trial","","f","","8","","","","true","","","","","f","1","","false","LEFT","",""
"","html-keyboard-response","372","528728","0.0-598.0","vs8uj2e4","1366","768","","","","","","","","","","","null","+","Fixation - short","","null","","","","","","","","","","","","","","","","",""
"","html-keyboard-response","373","534296","0.0-599.0","vs8uj2e4","","","","","","","","","","","","","5567","If ydi press RIGHT | If rif press LEFT","Inducer instructions",""," ","","9","","","","","","","","","","","","","","",""
"","html-keyboard-response","374","535057","0.0-600.0","vs8uj2e4","1366","768","","","","","","","","","","","null","+","Fixation - short","","null","","","","","","","","","","","","","","","","",""
"","html-keyboard-response","375","535479","0.0-601.0","vs8uj2e4","","","","","","","","","","","","","421","ydi","Diagnostic trial","","j","","9","0","4","false","false","true","both pre & post","RIGHT","RIGHT","j","1","true","","","",""
"","html-keyboard-response","376","536238","0.0-604.0","vs8uj2e4","1366","768","","","","","","","","","","","null","+","Fixation - short","","null","","","","","","","","","","","","","","","","",""
"","html-keyboard-response","377","536722","0.0-605.0","vs8uj2e4","","","","","","","","","","","","","483","rif","Diagnostic trial","","f","","9","1","4","false","false","false","both pre & post","LEFT","LEFT","f","1","true","","","",""
"","html-keyboard-response","378","537486","0.0-608.0","vs8uj2e4","1366","768","","","","","","","","","","","null","+","Fixation - short","","null","","","","","","","","","","","","","","","","",""
"","html-keyboard-response","379","538044","0.0-609.0","vs8uj2e4","","","","","","","","","","","","","557","rif","Diagnostic trial","","j","","9","2","4","false","false","true","both pre & post","LEFT","RIGHT","j","1","false","","","",""
"","html-keyboard-response","380","538798","0.0-612.0","vs8uj2e4","1366","768","","","","","","","","","","","null","+","Fixation - short","","null","","","","","","","","","","","","","","","","",""
"","html-keyboard-response","381","539487","0.0-613.0","vs8uj2e4","","","","","","","","","","","","","688","rif","Diagnostic trial","","f","","9","3","4","false","false","false","both pre & post","LEFT","LEFT","f","1","true","","","",""
"","html-keyboard-response","382","540246","0.0-616.0","vs8uj2e4","1366","768","","","","","","","","","","","null","+","Fixation - short","","null","","","","","","","","","","","","","","","","",""
"","canvas-keyboard-response","383","541499","0.0-617.0","vs8uj2e4","","","","","","","","","","","","","null","Cue","Cue","","null","","9","3","","","false","","","","","","","","","","",""
"","html-keyboard-response","384","542263","0.0-618.0","vs8uj2e4","1366","768","","","","","","","","","","","null","+","Fixation - short","","null","","","","","","","","","","","","","","","","",""
"","html-keyboard-response","385","542938","0.0-619.0","vs8uj2e4","","","","","","","","","","","","","674","rif","Diagnostic trial","","f","","9","4","4","true","false","false","both pre & post","LEFT","LEFT","f","1","true","","","",""
"","html-keyboard-response","386","543693","0.0-622.0","vs8uj2e4","1366","768","","","","","","","","","","","null","+","Fixation - short","","null","","","","","","","","","","","","","","","","",""
"","html-keyboard-response","387","544281","0.0-623.0","vs8uj2e4","","","","","","","","","","","","","588","rif","Diagnostic trial","","j","","9","5","4","true","false","true","both pre & post","LEFT","RIGHT","j","1","false","","","",""
"","html-keyboard-response","388","545046","0.0-626.0","vs8uj2e4","1366","768","","","","","","","","","","","null","+","Fixation - short","","null","","","","","","","","","","","","","","","","",""
"","html-keyboard-response","389","545884","0.0-627.0","vs8uj2e4","","","","","","","","","","","","","837","ydi","Inducer trial","","j","","9","","","","true","","","","","j","1","","false","RIGHT","",""
"","html-keyboard-response","390","546647","0.0-630.0","vs8uj2e4","1366","768","","","","","","","","","","","null","+","Fixation - short","","null","","","","","","","","","","","","","","","","",""
"","html-keyboard-response","391","549579","0.0-631.0","vs8uj2e4","","","","","","","","","","","","","2931","If dof press RIGHT | If fuc press LEFT","Inducer instructions",""," ","","10","","","","","","","","","","","","","","",""
"","html-keyboard-response","392","550338","0.0-632.0","vs8uj2e4","1366","768","","","","","","","","","","","null","+","Fixation - short","","null","","","","","","","","","","","","","","","","",""
"","html-keyboard-response","393","550787","0.0-633.0","vs8uj2e4","","","","","","","","","","","","","449","dof","Diagnostic trial","","j","","10","0","11","false","false","true","both pre & post","RIGHT","RIGHT","j","1","true","","","",""
"","html-keyboard-response","394","551552","0.0-636.0","vs8uj2e4","1366","768","","","","","","","","","","","null","+","Fixation - short","","null","","","","","","","","","","","","","","","","",""
"","html-keyboard-response","395","552066","0.0-637.0","vs8uj2e4","","","","","","","","","","","","","513","dof","Diagnostic trial","","j","","10","1","11","false","false","true","both pre & post","RIGHT","RIGHT","j","1","true","","","",""
"","html-keyboard-response","396","552831","0.0-640.0","vs8uj2e4","1366","768","","","","","","","","","","","null","+","Fixation - short","","null","","","","","","","","","","","","","","","","",""
"","html-keyboard-response","397","553330","0.0-641.0","vs8uj2e4","","","","","","","","","","","","","498","dof","Diagnostic trial","","j","","10","2","11","false","false","true","both pre & post","RIGHT","RIGHT","j","1","true","","","",""
"","html-keyboard-response","398","554093","0.0-644.0","vs8uj2e4","1366","768","","","","","","","","","","","null","+","Fixation - short","","null","","","","","","","","","","","","","","","","",""
"","html-keyboard-response","399","554699","0.0-645.0","vs8uj2e4","","","","","","","","","","","","","605","fuc","Diagnostic trial","","j","","10","3","11","false","false","true","both pre & post","LEFT","RIGHT","j","1","false","","","",""
"","html-keyboard-response","400","555463","0.0-648.0","vs8uj2e4","1366","768","","","","","","","","","","","null","+","Fixation - short","","null","","","","","","","","","","","","","","","","",""
"","html-keyboard-response","401","555982","0.0-649.0","vs8uj2e4","","","","","","","","","","","","","519","dof","Diagnostic trial","","f","","10","4","11","false","false","false","both pre & post","RIGHT","LEFT","f","1","false","","","",""
"","html-keyboard-response","402","556739","0.0-652.0","vs8uj2e4","1366","768","","","","","","","","","","","null","+","Fixation - short","","null","","","","","","","","","","","","","","","","",""
"","html-keyboard-response","403","557260","0.0-653.0","vs8uj2e4","","","","","","","","","","","","","521","dof","Diagnostic trial","","f","","10","5","11","false","false","false","both pre & post","RIGHT","LEFT","f","1","false","","","",""
"","html-keyboard-response","404","558015","0.0-656.0","vs8uj2e4","1366","768","","","","","","","","","","","null","+","Fixation - short","","null","","","","","","","","","","","","","","","","",""
"","html-keyboard-response","405","558654","0.0-657.0","vs8uj2e4","","","","","","","","","","","","","639","fuc","Diagnostic trial","","f","","10","6","11","false","false","false","both pre & post","LEFT","LEFT","f","1","true","","","",""
"","html-keyboard-response","406","559417","0.0-660.0","vs8uj2e4","1366","768","","","","","","","","","","","null","+","Fixation - short","","null","","","","","","","","","","","","","","","","",""
"","html-keyboard-response","407","559981","0.0-661.0","vs8uj2e4","","","","","","","","","","","","","563","dof","Diagnostic trial","","j","","10","7","11","false","false","true","both pre & post","RIGHT","RIGHT","j","1","true","","","",""
"","html-keyboard-response","408","560739","0.0-664.0","vs8uj2e4","1366","768","","","","","","","","","","","null","+","Fixation - short","","null","","","","","","","","","","","","","","","","",""
"","html-keyboard-response","409","561179","0.0-665.0","vs8uj2e4","","","","","","","","","","","","","439","fuc","Diagnostic trial","","f","","10","8","11","false","false","false","both pre & post","LEFT","LEFT","f","1","true","","","",""
"","html-keyboard-response","410","561935","0.0-668.0","vs8uj2e4","1366","768","","","","","","","","","","","null","+","Fixation - short","","null","","","","","","","","","","","","","","","","",""
"","html-keyboard-response","411","562366","0.0-669.0","vs8uj2e4","","","","","","","","","","","","","430","fuc","Diagnostic trial","","f","","10","9","11","false","false","false","both pre & post","LEFT","LEFT","f","1","true","","","",""
"","html-keyboard-response","412","563131","0.0-672.0","vs8uj2e4","1366","768","","","","","","","","","","","null","+","Fixation - short","","null","","","","","","","","","","","","","","","","",""
"","html-keyboard-response","413","563648","0.0-673.0","vs8uj2e4","","","","","","","","","","","","","517","dof","Diagnostic trial","","j","","10","10","11","false","false","true","both pre & post","RIGHT","RIGHT","j","1","true","","","",""
"","html-keyboard-response","414","564407","0.0-676.0","vs8uj2e4","1366","768","","","","","","","","","","","null","+","Fixation - short","","null","","","","","","","","","","","","","","","","",""
"","canvas-keyboard-response","415","565668","0.0-677.0","vs8uj2e4","","","","","","","","","","","","","null","Cue","Cue","","null","","10","10","","","false","","","","","","","","","","",""
"","html-keyboard-response","416","566430","0.0-678.0","vs8uj2e4","1366","768","","","","","","","","","","","null","+","Fixation - short","","null","","","","","","","","","","","","","","","","",""
"","html-keyboard-response","417","567246","0.0-679.0","vs8uj2e4","","","","","","","","","","","","","816","fuc","Diagnostic trial","","f","","10","11","11","true","false","true","both pre & post","LEFT","RIGHT","j","0","false","","","",""
"","call-function","418","567247","0.0-681.0-0.0","vs8uj2e4","","","","","","","","","","","","","","","","","","","","","","","","","","","","","","","","","",""
"","html-keyboard-response","419","567550","0.0-681.0-1.0","vs8uj2e4","1366","768","","","","","","","","","","","null","Wrong","Feedback","","null","","","","","","","","","","","","","","","","",""
"","call-function","420","567550","0.0-681.0-2.0","vs8uj2e4","","","","","","","","","","","","","","","","","","","","","","","","","","","","","","","","","",""
"","html-keyboard-response","421","568312","0.0-682.0","vs8uj2e4","1366","768","","","","","","","","","","","null","+","Fixation - short","","null","","","","","","","","","","","","","","","","",""
"","html-keyboard-response","422","569018","0.0-683.0","vs8uj2e4","","","","","","","","","","","","","705","dof","Diagnostic trial","","f","","10","12","11","true","false","false","both pre & post","RIGHT","LEFT","f","1","false","","","",""
"","html-keyboard-response","423","569773","0.0-686.0","vs8uj2e4","1366","768","","","","","","","","","","","null","+","Fixation - short","","null","","","","","","","","","","","","","","","","",""
"","html-keyboard-response","424","570560","0.0-687.0","vs8uj2e4","","","","","","","","","","","","","786","dof","Diagnostic trial","","f","","10","13","11","true","false","false","both pre & post","RIGHT","LEFT","f","1","false","","","",""
"","html-keyboard-response","425","571324","0.0-690.0","vs8uj2e4","1366","768","","","","","","","","","","","null","+","Fixation - short","","null","","","","","","","","","","","","","","","","",""
"","html-keyboard-response","426","571908","0.0-691.0","vs8uj2e4","","","","","","","","","","","","","583","dof","Diagnostic trial","","j","","10","14","11","true","false","true","both pre & post","RIGHT","RIGHT","j","1","true","","","",""
"","html-keyboard-response","427","572662","0.0-694.0","vs8uj2e4","1366","768","","","","","","","","","","","null","+","Fixation - short","","null","","","","","","","","","","","","","","","","",""
"","html-keyboard-response","428","573316","0.0-695.0","vs8uj2e4","","","","","","","","","","","","","653","fuc","Inducer trial","","f","","10","","","","true","","","","","f","1","","false","LEFT","",""
"","html-keyboard-response","429","574074","0.0-698.0","vs8uj2e4","1366","768","","","","","","","","","","","null","+","Fixation - short","","null","","","","","","","","","","","","","","","","",""
"","html-keyboard-response","430","578878","0.0-699.0","vs8uj2e4","","","","","","","","","","","","","4804","If slu press RIGHT | If cnl press LEFT","Inducer instructions",""," ","","11","","","","","","","","","","","","","","",""
"","html-keyboard-response","431","579635","0.0-700.0","vs8uj2e4","1366","768","","","","","","","","","","","null","+","Fixation - short","","null","","","","","","","","","","","","","","","","",""
"","html-keyboard-response","432","580721","0.0-701.0","vs8uj2e4","","","","","","","","","","","","","1085","slu","Diagnostic trial","","f","","11","0","11","false","false","false","both pre & post","RIGHT","LEFT","f","1","false","","","",""
"","html-keyboard-response","433","581483","0.0-704.0","vs8uj2e4","1366","768","","","","","","","","","","","null","+","Fixation - short","","null","","","","","","","","","","","","","","","","",""
"","html-keyboard-response","434","581954","0.0-705.0","vs8uj2e4","","","","","","","","","","","","","470","slu","Diagnostic trial","","j","","11","1","11","false","false","true","both pre & post","RIGHT","RIGHT","j","1","true","","","",""
"","html-keyboard-response","435","582713","0.0-708.0","vs8uj2e4","1366","768","","","","","","","","","","","null","+","Fixation - short","","null","","","","","","","","","","","","","","","","",""
"","html-keyboard-response","436","583432","0.0-709.0","vs8uj2e4","","","","","","","","","","","","","719","slu","Diagnostic trial","","f","","11","2","11","false","false","false","both pre & post","RIGHT","LEFT","f","1","false","","","",""
"","html-keyboard-response","437","584189","0.0-712.0","vs8uj2e4","1366","768","","","","","","","","","","","null","+","Fixation - short","","null","","","","","","","","","","","","","","","","",""
"","html-keyboard-response","438","584776","0.0-713.0","vs8uj2e4","","","","","","","","","","","","","586","slu","Diagnostic trial","","j","","11","3","11","false","false","true","both pre & post","RIGHT","RIGHT","j","1","true","","","",""
"","html-keyboard-response","439","585529","0.0-716.0","vs8uj2e4","1366","768","","","","","","","","","","","null","+","Fixation - short","","null","","","","","","","","","","","","","","","","",""
"","html-keyboard-response","440","586094","0.0-717.0","vs8uj2e4","","","","","","","","","","","","","565","slu","Diagnostic trial","","f","","11","4","11","false","false","false","both pre & post","RIGHT","LEFT","f","1","false","","","",""
"","html-keyboard-response","441","586850","0.0-720.0","vs8uj2e4","1366","768","","","","","","","","","","","null","+","Fixation - short","","null","","","","","","","","","","","","","","","","",""
"","html-keyboard-response","442","587688","0.0-721.0","vs8uj2e4","","","","","","","","","","","","","837","cnl","Diagnostic trial","","f","","11","5","11","false","false","false","both pre & post","LEFT","LEFT","f","1","true","","","",""
"","html-keyboard-response","443","588454","0.0-724.0","vs8uj2e4","1366","768","","","","","","","","","","","null","+","Fixation - short","","null","","","","","","","","","","","","","","","","",""
"","html-keyboard-response","444","588916","0.0-725.0","vs8uj2e4","","","","","","","","","","","","","461","cnl","Diagnostic trial","","f","","11","6","11","false","false","false","both pre & post","LEFT","LEFT","f","1","true","","","",""
"","html-keyboard-response","445","589669","0.0-728.0","vs8uj2e4","1366","768","","","","","","","","","","","null","+","Fixation - short","","null","","","","","","","","","","","","","","","","",""
"","html-keyboard-response","446","590209","0.0-729.0","vs8uj2e4","","","","","","","","","","","","","540","slu","Diagnostic trial","","f","","11","7","11","false","false","false","both pre & post","RIGHT","LEFT","f","1","false","","","",""
"","html-keyboard-response","447","590961","0.0-732.0","vs8uj2e4","1366","768","","","","","","","","","","","null","+","Fixation - short","","null","","","","","","","","","","","","","","","","",""
"","html-keyboard-response","448","591433","0.0-733.0","vs8uj2e4","","","","","","","","","","","","","471","cnl","Diagnostic trial","","f","","11","8","11","false","false","false","both pre & post","LEFT","LEFT","f","1","true","","","",""
"","html-keyboard-response","449","592186","0.0-736.0","vs8uj2e4","1366","768","","","","","","","","","","","null","+","Fixation - short","","null","","","","","","","","","","","","","","","","",""
"","html-keyboard-response","450","592667","0.0-737.0","vs8uj2e4","","","","","","","","","","","","","480","slu","Diagnostic trial","","j","","11","9","11","false","false","true","both pre & post","RIGHT","RIGHT","j","1","true","","","",""
"","html-keyboard-response","451","593431","0.0-740.0","vs8uj2e4","1366","768","","","","","","","","","","","null","+","Fixation - short","","null","","","","","","","","","","","","","","","","",""
"","html-keyboard-response","452","593956","0.0-741.0","vs8uj2e4","","","","","","","","","","","","","524","cnl","Diagnostic trial","","j","","11","10","11","false","false","true","both pre & post","LEFT","RIGHT","j","1","false","","","",""
"","html-keyboard-response","453","594722","0.0-744.0","vs8uj2e4","1366","768","","","","","","","","","","","null","+","Fixation - short","","null","","","","","","","","","","","","","","","","",""
"","canvas-keyboard-response","454","595985","0.0-745.0","vs8uj2e4","","","","","","","","","","","","","null","Cue","Cue","","null","","11","10","","","false","","","","","","","","","","",""
"","html-keyboard-response","455","596748","0.0-746.0","vs8uj2e4","1366","768","","","","","","","","","","","null","+","Fixation - short","","null","","","","","","","","","","","","","","","","",""
"","html-keyboard-response","456","598753","0.0-747.0","vs8uj2e4","","","","","","","","","","","","","null","cnl","Diagnostic trial","","null","","11","11","11","true","false","false","both pre & post","LEFT","LEFT","f","NaN","true","","","",""
"","call-function","457","598754","0.0-748.0-0.0","vs8uj2e4","","","","","","","","","","","","","","","","","","","","","","","","","","","","","","","","","",""
"","html-keyboard-response","458","599057","0.0-748.0-1.0","vs8uj2e4","1366","768","","","","","","","","","","","null","Slow","Feedback","","null","","","","","","","","","","","","","","","","",""
"","call-function","459","599058","0.0-748.0-2.0","vs8uj2e4","","","","","","","","","","","","","","","","","","","","","","","","","","","","","","","","","",""
"","html-keyboard-response","460","599812","0.0-750.0","vs8uj2e4","1366","768","","","","","","","","","","","null","+","Fixation - short","","null","","","","","","","","","","","","","","","","",""
"","html-keyboard-response","461","600355","0.0-751.0","vs8uj2e4","","","","","","","","","","","","","543","cnl","Diagnostic trial","","j","","11","12","11","true","false","true","both pre & post","LEFT","RIGHT","j","1","false","","","",""
