"value","trial_type","trial_index","time_elapsed","internal_node_id","id","width","height","webaudio","browser","browser_version","mobile","os","fullscreen","vsync_rate","webcam","microphone","view_history","rt","stimulus","trial_info","success","response","exp_parameters","inducer_run","diagnostic_run","cue_num","post_cue","inducer_trial","italic","forced_equal_run","correct_inducer_response_side","correct_diag_response_side","correct_response_key","correct_response","congruent","force_equal","correct_indu_response_side","accuracy","interactive"
"","call-function","0","2","0.0-0.0","s90ueqos","","","","","","","","","","","","","","","","","","","","","","","","","","","","","","","","","",""
"","browser-check","1","1007","0.0-1.0","s90ueqos","1842","1303","true","chrome","123.0.0","false","Windows 10","true","59.93","false","true","","","","","","","","","","","","","","","","","","","","","","",""
"","instructions","2","40544","0.0-2.0","s90ueqos","","","","","","","","","","","","[{""page_index"":0,""viewing_time"":19297},{""page_index"":1,""viewing_time"":16403},{""page_index"":2,""viewing_time"":3836}]","39536","The experiment and consent","The experiment and consent","","","","","","","","","","","","","","","","","","",""
"","fullscreen","3","47669","0.0-3.0","s90ueqos","","","","","","","","","","","","","6124","","Full screen","true","","","","","","","","","","","","","","","","","",""
"","instructions","4","77615","0.0-4.0","s90ueqos","","","","","","","","","","","","[{""page_index"":0,""viewing_time"":16595},{""page_index"":1,""viewing_time"":13350}]","29946","Instructions","Basic overview explanation","","","","","","","","","","","","","","","","","","",""
"","html-keyboard-response","5","92214","0.0-5.0","s90ueqos","","","","","","","","","","","","","13091","If italic press RIGHT | If upright press LEFT","Diagnostic instructions",""," ","{""debug"":false,""skip_instructions"":false,""skip_practice"":false,""save_local_data"":false,""studu_name"":""exp2"",""default_background_colour"":""#cccccc"",""wrong_response_colour"":""#d22d2d"",""instruction_delay"":20000,""trial_duration"":2000,""short_fixation"":750,""long_fixation"":1500,""wrong_response_delay"":300,""too_slow_delay"":300,""instruction_font_size"":""24px"",""general_font_size"":""42px"",""fixation_size"":""48px"",""allowed_responses"":[""f"",""j""],""cue_min_length"":0,""cue_max_length"":4,""tot_post_cue_len"":72,""cue_colour"":""red"",""cue_shape"":""Circle"",""cue_size"":70,""cue_duration"":1250,""avg_number_of_cues"":3,""inducer_colour"":""yellow"",""number_of_inducers"":24,""pre_cue_italic_forced_equal"":true,""post_cue_italic_forced_equal"":true,""prac_diagnostic_rounds"":16,""prac_inducer_rounds"":6,""prac_cue_rounds"":16,""prac_post_cue_num"":3}","","","","","","","","","","","","","","","",""
"","html-keyboard-response","6","92967","0.0-6.0","s90ueqos","2560","1440","","","","","","","","","","","null","+","Fixation - short","","null","","","","","","","","","","","","","","","","",""
"","html-keyboard-response","7","93577","0.0-7.0","s90ueqos","","","","","","","","","","","","","608","edc","Diagnostic practice","","f","","Diagnostic practice","0","-84","true","false","false","prac equal","RIGHT","LEFT","f","1","false","","","",""
"","html-keyboard-response","8","94346","0.0-10.0","s90ueqos","2560","1440","","","","","","","","","","","null","+","Fixation - short","","null","","","","","","","","","","","","","","","","",""
"","html-keyboard-response","9","94953","0.0-11.0","s90ueqos","","","","","","","","","","","","","606","edc","Diagnostic practice","","j","","Diagnostic practice","1","-84","true","false","true","prac equal","RIGHT","RIGHT","j","1","true","","","",""
"","html-keyboard-response","10","95709","0.0-14.0","s90ueqos","2560","1440","","","","","","","","","","","null","+","Fixation - short","","null","","","","","","","","","","","","","","","","",""
"","html-keyboard-response","11","96318","0.0-15.0","s90ueqos","","","","","","","","","","","","","609","edc","Diagnostic practice","","j","","Diagnostic practice","2","-84","true","false","true","prac equal","RIGHT","RIGHT","j","1","true","","","",""
"","html-keyboard-response","12","97079","0.0-18.0","s90ueqos","2560","1440","","","","","","","","","","","null","+","Fixation - short","","null","","","","","","","","","","","","","","","","",""
"","html-keyboard-response","13","97625","0.0-19.0","s90ueqos","","","","","","","","","","","","","545","yoy","Diagnostic practice","","j","","Diagnostic practice","3","-84","true","false","true","prac equal","LEFT","RIGHT","j","1","false","","","",""
"","html-keyboard-response","14","98392","0.0-22.0","s90ueqos","2560","1440","","","","","","","","","","","null","+","Fixation - short","","null","","","","","","","","","","","","","","","","",""
"","html-keyboard-response","15","98809","0.0-23.0","s90ueqos","","","","","","","","","","","","","415","edc","Diagnostic practice","","j","","Diagnostic practice","4","-84","true","false","true","prac equal","RIGHT","RIGHT","j","1","true","","","",""
"","html-keyboard-response","16","99583","0.0-26.0","s90ueqos","2560","1440","","","","","","","","","","","null","+","Fixation - short","","null","","","","","","","","","","","","","","","","",""
"","html-keyboard-response","17","100098","0.0-27.0","s90ueqos","","","","","","","","","","","","","515","edc","Diagnostic practice","","f","","Diagnostic practice","5","-84","true","false","false","prac equal","RIGHT","LEFT","f","1","false","","","",""
"","html-keyboard-response","18","100856","0.0-30.0","s90ueqos","2560","1440","","","","","","","","","","","null","+","Fixation - short","","null","","","","","","","","","","","","","","","","",""
"","html-keyboard-response","19","101365","0.0-31.0","s90ueqos","","","","","","","","","","","","","508","edc","Diagnostic practice","","f","","Diagnostic practice","6","-84","true","false","false","prac equal","RIGHT","LEFT","f","1","false","","","",""
"","html-keyboard-response","20","102126","0.0-34.0","s90ueqos","2560","1440","","","","","","","","","","","null","+","Fixation - short","","null","","","","","","","","","","","","","","","","",""
"","html-keyboard-response","21","102502","0.0-35.0","s90ueqos","","","","","","","","","","","","","376","edc","Diagnostic practice","","f","","Diagnostic practice","7","-84","true","false","false","prac equal","RIGHT","LEFT","f","1","false","","","",""
"","html-keyboard-response","22","103268","0.0-38.0","s90ueqos","2560","1440","","","","","","","","","","","null","+","Fixation - short","","null","","","","","","","","","","","","","","","","",""
"","html-keyboard-response","23","103600","0.0-39.0","s90ueqos","","","","","","","","","","","","","331","yoy","Diagnostic practice","","f","","Diagnostic practice","8","-84","true","false","true","prac equal","LEFT","RIGHT","j","0","false","","","",""
"","call-function","24","103601","0.0-41.0-0.0","s90ueqos","","","","","","","","","","","","","","","","","","","","","","","","","","","","","","","","","",""
"","html-keyboard-response","25","103915","0.0-41.0-1.0","s90ueqos","2560","1440","","","","","","","","","","","null","Wrong","Feedback","","null","","","","","","","","","","","","","","","","",""
"","call-function","26","103915","0.0-41.0-2.0","s90ueqos","","","","","","","","","","","","","","","","","","","","","","","","","","","","","","","","","",""
"","html-keyboard-response","27","104670","0.0-42.0","s90ueqos","2560","1440","","","","","","","","","","","null","+","Fixation - short","","null","","","","","","","","","","","","","","","","",""
"","html-keyboard-response","28","105416","0.0-43.0","s90ueqos","","","","","","","","","","","","","745","edc","Diagnostic practice","","j","","Diagnostic practice","9","-84","true","false","true","prac equal","RIGHT","RIGHT","j","1","true","","","",""
"","html-keyboard-response","29","106180","0.0-46.0","s90ueqos","2560","1440","","","","","","","","","","","null","+","Fixation - short","","null","","","","","","","","","","","","","","","","",""
"","html-keyboard-response","30","106962","0.0-47.0","s90ueqos","","","","","","","","","","","","","782","yoy","Diagnostic practice","","f","","Diagnostic practice","10","-84","true","false","false","prac equal","LEFT","LEFT","f","1","true","","","",""
"","html-keyboard-response","31","107720","0.0-50.0","s90ueqos","2560","1440","","","","","","","","","","","null","+","Fixation - short","","null","","","","","","","","","","","","","","","","",""
"","html-keyboard-response","32","108238","0.0-51.0","s90ueqos","","","","","","","","","","","","","518","yoy","Diagnostic practice","","j","","Diagnostic practice","11","-84","true","false","true","prac equal","LEFT","RIGHT","j","1","false","","","",""
"","html-keyboard-response","33","108994","0.0-54.0","s90ueqos","2560","1440","","","","","","","","","","","null","+","Fixation - short","","null","","","","","","","","","","","","","","","","",""
"","html-keyboard-response","34","109432","0.0-55.0","s90ueqos","","","","","","","","","","","","","438","yoy","Diagnostic practice","","j","","Diagnostic practice","12","-84","true","false","true","prac equal","LEFT","RIGHT","j","1","false","","","",""
"","html-keyboard-response","35","110185","0.0-58.0","s90ueqos","2560","1440","","","","","","","","","","","null","+","Fixation - short","","null","","","","","","","","","","","","","","","","",""
"","html-keyboard-response","36","110808","0.0-59.0","s90ueqos","","","","","","","","","","","","","623","yoy","Diagnostic practice","","f","","Diagnostic practice","13","-84","true","false","false","prac equal","LEFT","LEFT","f","1","true","","","",""
"","html-keyboard-response","37","111561","0.0-62.0","s90ueqos","2560","1440","","","","","","","","","","","null","+","Fixation - short","","null","","","","","","","","","","","","","","","","",""
"","html-keyboard-response","38","112078","0.0-63.0","s90ueqos","","","","","","","","","","","","","517","yoy","Diagnostic practice","","f","","Diagnostic practice","14","-84","true","false","false","prac equal","LEFT","LEFT","f","1","true","","","",""
"","html-keyboard-response","39","112845","0.0-66.0","s90ueqos","2560","1440","","","","","","","","","","","null","+","Fixation - short","","null","","","","","","","","","","","","","","","","",""
"","html-keyboard-response","40","113257","0.0-67.0","s90ueqos","","","","","","","","","","","","","411","yoy","Diagnostic practice","","f","","Diagnostic practice","15","-84","true","false","false","prac equal","LEFT","LEFT","f","1","true","","","",""
"","html-keyboard-response","41","114022","0.0-70.0","s90ueqos","2560","1440","","","","","","","","","","","null","+","Fixation - short","","null","","","","","","","","","","","","","","","","",""
"","instructions","42","129961","0.0-71.0","s90ueqos","","","","","","","","","","","","[{""page_index"":0,""viewing_time"":15938}]","15938","Instructions","Final experiment explanation","","","","","","","","","","","","","","","","","","",""
"","html-keyboard-response","43","147381","0.0-72.0","s90ueqos","","","","","","","","","","","","","15915","If lct press RIGHT | If gfm press LEFT","Inducer practice",""," ","","Practice","","","","","","","","","","","","","","",""
"","html-keyboard-response","44","148136","0.0-73.0","s90ueqos","2560","1440","","","","","","","","","","","null","+","Fixation - short","","null","","","","","","","","","","","","","","","","",""
"","html-keyboard-response","45","148969","0.0-74.0","s90ueqos","","","","","","","","","","","","","831","lct","Inducer practice","","j","","Practice","","","","true","","","","","j","1","","true","RIGHT","",""
"","html-keyboard-response","46","149729","0.0-77.0","s90ueqos","2560","1440","","","","","","","","","","","null","+","Fixation - short","","null","","","","","","","","","","","","","","","","",""
"","html-keyboard-response","47","153726","0.0-78.0","s90ueqos","","","","","","","","","","","","","3996","If ori press RIGHT | If fja press LEFT","Inducer practice",""," ","","Practice","","","","","","","","","","","","","","",""
"","html-keyboard-response","48","154488","0.0-79.0","s90ueqos","2560","1440","","","","","","","","","","","null","+","Fixation - short","","null","","","","","","","","","","","","","","","","",""
"","html-keyboard-response","49","155196","0.0-80.0","s90ueqos","","","","","","","","","","","","","708","ori","Inducer practice","","j","","Practice","","","","true","","","","","j","1","","true","RIGHT","",""
"","html-keyboard-response","50","155965","0.0-83.0","s90ueqos","2560","1440","","","","","","","","","","","null","+","Fixation - short","","null","","","","","","","","","","","","","","","","",""
"","html-keyboard-response","51","165628","0.0-84.0","s90ueqos","","","","","","","","","","","","","9663","If ibg press RIGHT | If mmo press LEFT","Inducer practice",""," ","","Practice","","","","","","","","","","","","","","",""
"","html-keyboard-response","52","166395","0.0-85.0","s90ueqos","2560","1440","","","","","","","","","","","null","+","Fixation - short","","null","","","","","","","","","","","","","","","","",""
"","html-keyboard-response","53","167336","0.0-86.0","s90ueqos","","","","","","","","","","","","","940","mmo","Inducer practice","","f","","Practice","","","","true","","","","","f","1","","true","LEFT","",""
"","html-keyboard-response","54","168102","0.0-89.0","s90ueqos","2560","1440","","","","","","","","","","","null","+","Fixation - short","","null","","","","","","","","","","","","","","","","",""
"","html-keyboard-response","55","175718","0.0-90.0","s90ueqos","","","","","","","","","","","","","7616","If cta press RIGHT | If ofa press LEFT","Inducer practice",""," ","","Practice","","","","","","","","","","","","","","",""
"","html-keyboard-response","56","176483","0.0-91.0","s90ueqos","2560","1440","","","","","","","","","","","null","+","Fixation - short","","null","","","","","","","","","","","","","","","","",""
"","html-keyboard-response","57","177263","0.0-92.0","s90ueqos","","","","","","","","","","","","","780","ofa","Inducer practice","","f","","Practice","","","","true","","","","","f","1","","true","LEFT","",""
"","html-keyboard-response","58","178031","0.0-95.0","s90ueqos","2560","1440","","","","","","","","","","","null","+","Fixation - short","","null","","","","","","","","","","","","","","","","",""
"","html-keyboard-response","59","184008","0.0-96.0","s90ueqos","","","","","","","","","","","","","5976","If amb press RIGHT | If dnc press LEFT","Inducer practice",""," ","","Practice","","","","","","","","","","","","","","",""
"","html-keyboard-response","60","184763","0.0-97.0","s90ueqos","2560","1440","","","","","","","","","","","null","+","Fixation - short","","null","","","","","","","","","","","","","","","","",""
"","html-keyboard-response","61","185469","0.0-98.0","s90ueqos","","","","","","","","","","","","","706","amb","Inducer practice","","j","","Practice","","","","true","","","","","j","1","","true","RIGHT","",""
"","html-keyboard-response","62","186223","0.0-101.0","s90ueqos","2560","1440","","","","","","","","","","","null","+","Fixation - short","","null","","","","","","","","","","","","","","","","",""
"","html-keyboard-response","63","192789","0.0-102.0","s90ueqos","","","","","","","","","","","","","6565","If pte press RIGHT | If otr press LEFT","Inducer practice",""," ","","Practice","","","","","","","","","","","","","","",""
"","html-keyboard-response","64","193548","0.0-103.0","s90ueqos","2560","1440","","","","","","","","","","","null","+","Fixation - short","","null","","","","","","","","","","","","","","","","",""
"","html-keyboard-response","65","194374","0.0-104.0","s90ueqos","","","","","","","","","","","","","825","otr","Inducer practice","","f","","Practice","","","","true","","","","","f","1","","true","LEFT","",""
"","html-keyboard-response","66","195133","0.0-107.0","s90ueqos","2560","1440","","","","","","","","","","","null","+","Fixation - short","","null","","","","","","","","","","","","","","","","",""
"","instructions","67","219420","0.0-108.0","s90ueqos","","","","","","","","","","","","[{""page_index"":0,""viewing_time"":24286}]","24287","Instructions","Final experiment explanation","","","","","","","","","","","","","","","","","","",""
"","html-keyboard-response","68","227360","0.0-109.0","s90ueqos","","","","","","","","","","","","","6437","If jlm press RIGHT | If fuc press LEFT","Cue practice",""," ","","Practice","","","","","","","","","","","","","","",""
"","html-keyboard-response","69","228120","0.0-110.0","s90ueqos","2560","1440","","","","","","","","","","","null","+","Fixation - short","","null","","","","","","","","","","","","","","","","",""
"","html-keyboard-response","70","229058","0.0-111.0","s90ueqos","","","","","","","","","","","","","937","jlm","Cue practice","","j","","Practice","0","13","false","false","true","both pre & post","RIGHT","RIGHT","j","1","true","","","",""
"","html-keyboard-response","71","229830","0.0-114.0","s90ueqos","2560","1440","","","","","","","","","","","null","+","Fixation - short","","null","","","","","","","","","","","","","","","","",""
"","html-keyboard-response","72","230499","0.0-115.0","s90ueqos","","","","","","","","","","","","","669","jlm","Cue practice","","j","","Practice","1","13","false","false","true","both pre & post","RIGHT","RIGHT","j","1","true","","","",""
"","html-keyboard-response","73","231254","0.0-118.0","s90ueqos","2560","1440","","","","","","","","","","","null","+","Fixation - short","","null","","","","","","","","","","","","","","","","",""
"","html-keyboard-response","74","232192","0.0-119.0","s90ueqos","","","","","","","","","","","","","937","fuc","Cue practice","","j","","Practice","2","13","false","false","true","both pre & post","LEFT","RIGHT","j","1","false","","","",""
"","html-keyboard-response","75","232951","0.0-122.0","s90ueqos","2560","1440","","","","","","","","","","","null","+","Fixation - short","","null","","","","","","","","","","","","","","","","",""
"","html-keyboard-response","76","233986","0.0-123.0","s90ueqos","","","","","","","","","","","","","1034","jlm","Cue practice","","f","","Practice","3","13","false","false","false","both pre & post","RIGHT","LEFT","f","1","false","","","",""
"","html-keyboard-response","77","234750","0.0-126.0","s90ueqos","2560","1440","","","","","","","","","","","null","+","Fixation - short","","null","","","","","","","","","","","","","","","","",""
"","html-keyboard-response","78","238214","0.0-127.0","s90ueqos","","","","","","","","","","","","","3463","fuc","Cue practice","","f","","Practice","4","13","false","false","false","both pre & post","LEFT","LEFT","f","1","true","","","",""
"","html-keyboard-response","79","238978","0.0-130.0","s90ueqos","2560","1440","","","","","","","","","","","null","+","Fixation - short","","null","","","","","","","","","","","","","","","","",""
"","html-keyboard-response","80","239636","0.0-131.0","s90ueqos","","","","","","","","","","","","","658","jlm","Cue practice","","j","","Practice","5","13","false","false","false","both pre & post","RIGHT","LEFT","f","0","false","","","",""
"","call-function","81","239637","0.0-133.0-0.0","s90ueqos","","","","","","","","","","","","","","","","","","","","","","","","","","","","","","","","","",""
"","html-keyboard-response","82","239952","0.0-133.0-1.0","s90ueqos","2560","1440","","","","","","","","","","","null","Wrong","Feedback","","null","","","","","","","","","","","","","","","","",""
"","call-function","83","239952","0.0-133.0-2.0","s90ueqos","","","","","","","","","","","","","","","","","","","","","","","","","","","","","","","","","",""
"","html-keyboard-response","84","240709","0.0-134.0","s90ueqos","2560","1440","","","","","","","","","","","null","+","Fixation - short","","null","","","","","","","","","","","","","","","","",""
"","html-keyboard-response","85","241587","0.0-135.0","s90ueqos","","","","","","","","","","","","","877","jlm","Cue practice","","j","","Practice","6","13","false","false","true","both pre & post","RIGHT","RIGHT","j","1","true","","","",""
"","html-keyboard-response","86","242348","0.0-138.0","s90ueqos","2560","1440","","","","","","","","","","","null","+","Fixation - short","","null","","","","","","","","","","","","","","","","",""
"","html-keyboard-response","87","244186","0.0-139.0","s90ueqos","","","","","","","","","","","","","1837","jlm","Cue practice","","f","","Practice","7","13","false","false","false","both pre & post","RIGHT","LEFT","f","1","false","","","",""
"","html-keyboard-response","88","244943","0.0-142.0","s90ueqos","2560","1440","","","","","","","","","","","null","+","Fixation - short","","null","","","","","","","","","","","","","","","","",""
"","html-keyboard-response","89","247794","0.0-143.0","s90ueqos","","","","","","","","","","","","","2851","fuc","Cue practice","","f","","Practice","8","13","false","false","false","both pre & post","LEFT","LEFT","f","1","true","","","",""
"","html-keyboard-response","90","248557","0.0-146.0","s90ueqos","2560","1440","","","","","","","","","","","null","+","Fixation - short","","null","","","","","","","","","","","","","","","","",""
"","html-keyboard-response","91","249458","0.0-147.0","s90ueqos","","","","","","","","","","","","","900","fuc","Cue practice","","j","","Practice","9","13","false","false","true","both pre & post","LEFT","RIGHT","j","1","false","","","",""
"","html-keyboard-response","92","250228","0.0-150.0","s90ueqos","2560","1440","","","","","","","","","","","null","+","Fixation - short","","null","","","","","","","","","","","","","","","","",""
"","html-keyboard-response","93","251544","0.0-151.0","s90ueqos","","","","","","","","","","","","","1316","jlm","Cue practice","","j","","Practice","10","13","false","false","true","both pre & post","RIGHT","RIGHT","j","1","true","","","",""
"","html-keyboard-response","94","252304","0.0-154.0","s90ueqos","2560","1440","","","","","","","","","","","null","+","Fixation - short","","null","","","","","","","","","","","","","","","","",""
"","html-keyboard-response","95","253293","0.0-155.0","s90ueqos","","","","","","","","","","","","","988","jlm","Cue practice","","f","","Practice","11","13","false","false","false","both pre & post","RIGHT","LEFT","f","1","false","","","",""
"","html-keyboard-response","96","254046","0.0-158.0","s90ueqos","2560","1440","","","","","","","","","","","null","+","Fixation - short","","null","","","","","","","","","","","","","","","","",""
"","html-keyboard-response","97","254815","0.0-159.0","s90ueqos","","","","","","","","","","","","","768","fuc","Cue practice","","j","","Practice","12","13","false","false","true","both pre & post","LEFT","RIGHT","j","1","false","","","",""
"","html-keyboard-response","98","255570","0.0-162.0","s90ueqos","2560","1440","","","","","","","","","","","null","+","Fixation - short","","null","","","","","","","","","","","","","","","","",""
"","canvas-keyboard-response","99","256844","0.0-163.0","s90ueqos","","","","","","","","","","","","","null","Cue","Cue","","null","","Practice","12","","","false","","","","","","","","","","",""
"","html-keyboard-response","100","257599","0.0-164.0","s90ueqos","2560","1440","","","","","","","","","","","null","+","Fixation - short","","null","","","","","","","","","","","","","","","","",""
"","html-keyboard-response","101","258646","0.0-165.0","s90ueqos","","","","","","","","","","","","","1047","jlm","Cue practice","","j","","Practice","13","13","true","false","true","both pre & post","RIGHT","RIGHT","j","1","true","","","",""
"","html-keyboard-response","102","259404","0.0-168.0","s90ueqos","2560","1440","","","","","","","","","","","null","+","Fixation - short","","null","","","","","","","","","","","","","","","","",""
"","html-keyboard-response","103","260083","0.0-169.0","s90ueqos","","","","","","","","","","","","","678","fuc","Cue practice","","f","","Practice","14","13","true","false","false","both pre & post","LEFT","LEFT","f","1","true","","","",""
"","html-keyboard-response","104","260835","0.0-172.0","s90ueqos","2560","1440","","","","","","","","","","","null","+","Fixation - short","","null","","","","","","","","","","","","","","","","",""
"","html-keyboard-response","105","261452","0.0-173.0","s90ueqos","","","","","","","","","","","","","617","fuc","Cue practice","","j","","Practice","15","13","true","false","true","both pre & post","LEFT","RIGHT","j","1","false","","","",""
"","html-keyboard-response","106","262210","0.0-176.0","s90ueqos","2560","1440","","","","","","","","","","","null","+","Fixation - short","","null","","","","","","","","","","","","","","","","",""
"","html-keyboard-response","107","263030","0.0-177.0","s90ueqos","","","","","","","","","","","","","820","fuc","Inducer practice","","f","","Practice","","","","true","","","","","f","1","","false","LEFT","",""
"","html-keyboard-response","108","263787","0.0-180.0","s90ueqos","2560","1440","","","","","","","","","","","null","+","Fixation - short","","null","","","","","","","","","","","","","","","","",""
"","instructions","109","280713","0.0-181.0","s90ueqos","","","","","","","","","","","","[{""page_index"":0,""viewing_time"":16925}]","16925","End practice","End of practice","","","","","","","","","","","","","","","","","","",""
"","html-keyboard-response","110","283721","0.0-182.0","s90ueqos","2560","1440","","","","","","","","","","","null","+","Fixation - long","","null","","","","","","","","","","","","","","","","",""
"","html-keyboard-response","111","288524","0.0-183.0","s90ueqos","","","","","","","","","","","","","4803","If hlb press RIGHT | If jsf press LEFT","Inducer instructions",""," ","","0","","","","","","","","","","","","","","",""
"","html-keyboard-response","112","289281","0.0-184.0","s90ueqos","2560","1440","","","","","","","","","","","null","+","Fixation - short","","null","","","","","","","","","","","","","","","","",""
"","html-keyboard-response","113","290288","0.0-185.0","s90ueqos","","","","","","","","","","","","","1006","hlb","Diagnostic trial","","j","","0","0","7","false","false","true","both pre & post","RIGHT","RIGHT","j","1","true","","","",""
"","html-keyboard-response","114","291051","0.0-188.0","s90ueqos","2560","1440","","","","","","","","","","","null","+","Fixation - short","","null","","","","","","","","","","","","","","","","",""
"","html-keyboard-response","115","291711","0.0-189.0","s90ueqos","","","","","","","","","","","","","659","jsf","Diagnostic trial","","j","","0","1","7","false","false","true","both pre & post","LEFT","RIGHT","j","1","false","","","",""
"","html-keyboard-response","116","292478","0.0-192.0","s90ueqos","2560","1440","","","","","","","","","","","null","+","Fixation - short","","null","","","","","","","","","","","","","","","","",""
"","html-keyboard-response","117","292930","0.0-193.0","s90ueqos","","","","","","","","","","","","","451","hlb","Diagnostic trial","","f","","0","2","7","false","false","false","both pre & post","RIGHT","LEFT","f","1","false","","","",""
"","html-keyboard-response","118","293698","0.0-196.0","s90ueqos","2560","1440","","","","","","","","","","","null","+","Fixation - short","","null","","","","","","","","","","","","","","","","",""
"","html-keyboard-response","119","294309","0.0-197.0","s90ueqos","","","","","","","","","","","","","611","jsf","Diagnostic trial","","j","","0","3","7","false","false","false","both pre & post","LEFT","LEFT","f","0","true","","","",""
"","call-function","120","294310","0.0-199.0-0.0","s90ueqos","","","","","","","","","","","","","","","","","","","","","","","","","","","","","","","","","",""
"","html-keyboard-response","121","294617","0.0-199.0-1.0","s90ueqos","2560","1440","","","","","","","","","","","null","Wrong","Feedback","","null","","","","","","","","","","","","","","","","",""
"","call-function","122","294617","0.0-199.0-2.0","s90ueqos","","","","","","","","","","","","","","","","","","","","","","","","","","","","","","","","","",""
"","html-keyboard-response","123","295370","0.0-200.0","s90ueqos","2560","1440","","","","","","","","","","","null","+","Fixation - short","","null","","","","","","","","","","","","","","","","",""
"","html-keyboard-response","124","295927","0.0-201.0","s90ueqos","","","","","","","","","","","","","557","hlb","Diagnostic trial","","f","","0","4","7","false","false","false","both pre & post","RIGHT","LEFT","f","1","false","","","",""
"","html-keyboard-response","125","296680","0.0-204.0","s90ueqos","2560","1440","","","","","","","","","","","null","+","Fixation - short","","null","","","","","","","","","","","","","","","","",""
"","html-keyboard-response","126","297284","0.0-205.0","s90ueqos","","","","","","","","","","","","","603","hlb","Diagnostic trial","","j","","0","5","7","false","false","true","both pre & post","RIGHT","RIGHT","j","1","true","","","",""
"","html-keyboard-response","127","298040","0.0-208.0","s90ueqos","2560","1440","","","","","","","","","","","null","+","Fixation - short","","null","","","","","","","","","","","","","","","","",""
"","html-keyboard-response","128","298634","0.0-209.0","s90ueqos","","","","","","","","","","","","","593","hlb","Diagnostic trial","","j","","0","6","7","false","false","true","both pre & post","RIGHT","RIGHT","j","1","true","","","",""
"","html-keyboard-response","129","299393","0.0-212.0","s90ueqos","2560","1440","","","","","","","","","","","null","+","Fixation - short","","null","","","","","","","","","","","","","","","","",""
"","canvas-keyboard-response","130","300649","0.0-213.0","s90ueqos","","","","","","","","","","","","","null","Cue","Cue","","null","","0","6","","","false","","","","","","","","","","",""
"","html-keyboard-response","131","301401","0.0-214.0","s90ueqos","2560","1440","","","","","","","","","","","null","+","Fixation - short","","null","","","","","","","","","","","","","","","","",""
"","html-keyboard-response","132","301986","0.0-215.0","s90ueqos","","","","","","","","","","","","","585","jsf","Diagnostic trial","","f","","0","7","7","true","false","false","both pre & post","LEFT","LEFT","f","1","true","","","",""
"","html-keyboard-response","133","302746","0.0-218.0","s90ueqos","2560","1440","","","","","","","","","","","null","+","Fixation - short","","null","","","","","","","","","","","","","","","","",""
"","html-keyboard-response","134","303312","0.0-219.0","s90ueqos","","","","","","","","","","","","","565","hlb","Diagnostic trial","","j","","0","8","7","true","false","true","both pre & post","RIGHT","RIGHT","j","1","true","","","",""
"","html-keyboard-response","135","304081","0.0-222.0","s90ueqos","2560","1440","","","","","","","","","","","null","+","Fixation - short","","null","","","","","","","","","","","","","","","","",""
"","html-keyboard-response","136","305130","0.0-223.0","s90ueqos","","","","","","","","","","","","","1048","hlb","Inducer trial","","j","","0","","","","true","","","","","j","1","","false","RIGHT","",""
"","html-keyboard-response","137","305884","0.0-226.0","s90ueqos","2560","1440","","","","","","","","","","","null","+","Fixation - short","","null","","","","","","","","","","","","","","","","",""
"","html-keyboard-response","138","311092","0.0-227.0","s90ueqos","","","","","","","","","","","","","5207","If sdw press RIGHT | If frn press LEFT","Inducer instructions",""," ","","1","","","","","","","","","","","","","","",""
"","html-keyboard-response","139","311856","0.0-228.0","s90ueqos","2560","1440","","","","","","","","","","","null","+","Fixation - short","","null","","","","","","","","","","","","","","","","",""
"","html-keyboard-response","140","312908","0.0-229.0","s90ueqos","","","","","","","","","","","","","1052","sdw","Diagnostic trial","","f","","1","0","11","false","false","false","both pre & post","RIGHT","LEFT","f","1","false","","","",""
"","html-keyboard-response","141","313676","0.0-232.0","s90ueqos","2560","1440","","","","","","","","","","","null","+","Fixation - short","","null","","","","","","","","","","","","","","","","",""
"","html-keyboard-response","142","314328","0.0-233.0","s90ueqos","","","","","","","","","","","","","651","sdw","Diagnostic trial","","f","","1","1","11","false","false","false","both pre & post","RIGHT","LEFT","f","1","false","","","",""
"","html-keyboard-response","143","315094","0.0-236.0","s90ueqos","2560","1440","","","","","","","","","","","null","+","Fixation - short","","null","","","","","","","","","","","","","","","","",""
"","html-keyboard-response","144","315558","0.0-237.0","s90ueqos","","","","","","","","","","","","","463","sdw","Diagnostic trial","","f","","1","2","11","false","false","false","both pre & post","RIGHT","LEFT","f","1","false","","","",""
"","html-keyboard-response","145","316316","0.0-240.0","s90ueqos","2560","1440","","","","","","","","","","","null","+","Fixation - short","","null","","","","","","","","","","","","","","","","",""
"","html-keyboard-response","146","316752","0.0-241.0","s90ueqos","","","","","","","","","","","","","434","sdw","Diagnostic trial","","f","","1","3","11","false","false","false","both pre & post","RIGHT","LEFT","f","1","false","","","",""
"","html-keyboard-response","147","317521","0.0-244.0","s90ueqos","2560","1440","","","","","","","","","","","null","+","Fixation - short","","null","","","","","","","","","","","","","","","","",""
"","html-keyboard-response","148","317982","0.0-245.0","s90ueqos","","","","","","","","","","","","","460","sdw","Diagnostic trial","","f","","1","4","11","false","false","false","both pre & post","RIGHT","LEFT","f","1","false","","","",""
"","html-keyboard-response","149","318748","0.0-248.0","s90ueqos","2560","1440","","","","","","","","","","","null","+","Fixation - short","","null","","","","","","","","","","","","","","","","",""
"","html-keyboard-response","150","319295","0.0-249.0","s90ueqos","","","","","","","","","","","","","547","frn","Diagnostic trial","","j","","1","5","11","false","false","true","both pre & post","LEFT","RIGHT","j","1","false","","","",""
"","html-keyboard-response","151","320055","0.0-252.0","s90ueqos","2560","1440","","","","","","","","","","","null","+","Fixation - short","","null","","","","","","","","","","","","","","","","",""
"","html-keyboard-response","152","320804","0.0-253.0","s90ueqos","","","","","","","","","","","","","748","sdw","Diagnostic trial","","j","","1","6","11","false","false","true","both pre & post","RIGHT","RIGHT","j","1","true","","","",""
"","html-keyboard-response","153","321560","0.0-256.0","s90ueqos","2560","1440","","","","","","","","","","","null","+","Fixation - short","","null","","","","","","","","","","","","","","","","",""
"","html-keyboard-response","154","322306","0.0-257.0","s90ueqos","","","","","","","","","","","","","745","sdw","Diagnostic trial","","f","","1","7","11","false","false","false","both pre & post","RIGHT","LEFT","f","1","false","","","",""
"","html-keyboard-response","155","323058","0.0-260.0","s90ueqos","2560","1440","","","","","","","","","","","null","+","Fixation - short","","null","","","","","","","","","","","","","","","","",""
"","html-keyboard-response","156","323949","0.0-261.0","s90ueqos","","","","","","","","","","","","","890","frn","Diagnostic trial","","f","","1","8","11","false","false","false","both pre & post","LEFT","LEFT","f","1","true","","","",""
"","html-keyboard-response","157","324699","0.0-264.0","s90ueqos","2560","1440","","","","","","","","","","","null","+","Fixation - short","","null","","","","","","","","","","","","","","","","",""
"","html-keyboard-response","158","325204","0.0-265.0","s90ueqos","","","","","","","","","","","","","503","sdw","Diagnostic trial","","j","","1","9","11","false","false","true","both pre & post","RIGHT","RIGHT","j","1","true","","","",""
"","html-keyboard-response","159","325968","0.0-268.0","s90ueqos","2560","1440","","","","","","","","","","","null","+","Fixation - short","","null","","","","","","","","","","","","","","","","",""
"","html-keyboard-response","160","326368","0.0-269.0","s90ueqos","","","","","","","","","","","","","399","sdw","Diagnostic trial","","j","","1","10","11","false","false","false","both pre & post","RIGHT","LEFT","f","0","false","","","",""
"","call-function","161","326368","0.0-271.0-0.0","s90ueqos","","","","","","","","","","","","","","","","","","","","","","","","","","","","","","","","","",""
"","html-keyboard-response","162","326678","0.0-271.0-1.0","s90ueqos","2560","1440","","","","","","","","","","","null","Wrong","Feedback","","null","","","","","","","","","","","","","","","","",""
"","call-function","163","326679","0.0-271.0-2.0","s90ueqos","","","","","","","","","","","","","","","","","","","","","","","","","","","","","","","","","",""
"","html-keyboard-response","164","327445","0.0-272.0","s90ueqos","2560","1440","","","","","","","","","","","null","+","Fixation - short","","null","","","","","","","","","","","","","","","","",""
"","canvas-keyboard-response","165","328700","0.0-273.0","s90ueqos","","","","","","","","","","","","","null","Cue","Cue","","null","","1","10","","","false","","","","","","","","","","",""
"","html-keyboard-response","166","329464","0.0-274.0","s90ueqos","2560","1440","","","","","","","","","","","null","+","Fixation - short","","null","","","","","","","","","","","","","","","","",""
"","html-keyboard-response","167","330118","0.0-275.0","s90ueqos","","","","","","","","","","","","","653","sdw","Diagnostic trial","","j","","1","11","11","true","false","true","both pre & post","RIGHT","RIGHT","j","1","true","","","",""
"","html-keyboard-response","168","330876","0.0-278.0","s90ueqos","2560","1440","","","","","","","","","","","null","+","Fixation - short","","null","","","","","","","","","","","","","","","","",""
"","html-keyboard-response","169","331492","0.0-279.0","s90ueqos","","","","","","","","","","","","","615","sdw","Diagnostic trial","","f","","1","12","11","true","false","false","both pre & post","RIGHT","LEFT","f","1","false","","","",""
"","html-keyboard-response","170","332255","0.0-282.0","s90ueqos","2560","1440","","","","","","","","","","","null","+","Fixation - short","","null","","","","","","","","","","","","","","","","",""
"","html-keyboard-response","171","333166","0.0-283.0","s90ueqos","","","","","","","","","","","","","910","sdw","Diagnostic trial","","j","","1","13","11","true","false","true","both pre & post","RIGHT","RIGHT","j","1","true","","","",""
"","html-keyboard-response","172","333924","0.0-286.0","s90ueqos","2560","1440","","","","","","","","","","","null","+","Fixation - short","","null","","","","","","","","","","","","","","","","",""
"","html-keyboard-response","173","334471","0.0-287.0","s90ueqos","","","","","","","","","","","","","546","sdw","Diagnostic trial","","j","","1","14","11","true","false","true","both pre & post","RIGHT","RIGHT","j","1","true","","","",""
"","html-keyboard-response","174","335232","0.0-290.0","s90ueqos","2560","1440","","","","","","","","","","","null","+","Fixation - short","","null","","","","","","","","","","","","","","","","",""
"","html-keyboard-response","175","335964","0.0-291.0","s90ueqos","","","","","","","","","","","","","731","sdw","Inducer trial","","j","","1","","","","true","","","","","j","1","","false","RIGHT","",""
"","html-keyboard-response","176","336722","0.0-294.0","s90ueqos","2560","1440","","","","","","","","","","","null","+","Fixation - short","","null","","","","","","","","","","","","","","","","",""
"","html-keyboard-response","177","340156","0.0-295.0","s90ueqos","","","","","","","","","","","","","3433","If faq press RIGHT | If idy press LEFT","Inducer instructions",""," ","","2","","","","","","","","","","","","","","",""
"","html-keyboard-response","178","340915","0.0-296.0","s90ueqos","2560","1440","","","","","","","","","","","null","+","Fixation - short","","null","","","","","","","","","","","","","","","","",""
"","html-keyboard-response","179","341658","0.0-297.0","s90ueqos","","","","","","","","","","","","","742","idy","Diagnostic trial","","j","","2","0","9","false","false","true","both pre & post","LEFT","RIGHT","j","1","false","","","",""
"","html-keyboard-response","180","342411","0.0-300.0","s90ueqos","2560","1440","","","","","","","","","","","null","+","Fixation - short","","null","","","","","","","","","","","","","","","","",""
"","html-keyboard-response","181","343054","0.0-301.0","s90ueqos","","","","","","","","","","","","","642","faq","Diagnostic trial","","j","","2","1","9","false","false","true","both pre & post","RIGHT","RIGHT","j","1","true","","","",""
"","html-keyboard-response","182","343811","0.0-304.0","s90ueqos","2560","1440","","","","","","","","","","","null","+","Fixation - short","","null","","","","","","","","","","","","","","","","",""
"","html-keyboard-response","183","344586","0.0-305.0","s90ueqos","","","","","","","","","","","","","774","faq","Diagnostic trial","","f","","2","2","9","false","false","false","both pre & post","RIGHT","LEFT","f","1","false","","","",""
"","html-keyboard-response","184","345341","0.0-308.0","s90ueqos","2560","1440","","","","","","","","","","","null","+","Fixation - short","","null","","","","","","","","","","","","","","","","",""
"","html-keyboard-response","185","346606","0.0-309.0","s90ueqos","","","","","","","","","","","","","1264","idy","Diagnostic trial","","f","","2","3","9","false","false","false","both pre & post","LEFT","LEFT","f","1","true","","","",""
"","html-keyboard-response","186","347373","0.0-312.0","s90ueqos","2560","1440","","","","","","","","","","","null","+","Fixation - short","","null","","","","","","","","","","","","","","","","",""
"","html-keyboard-response","187","347981","0.0-313.0","s90ueqos","","","","","","","","","","","","","608","idy","Diagnostic trial","","j","","2","4","9","false","false","true","both pre & post","LEFT","RIGHT","j","1","false","","","",""
"","html-keyboard-response","188","348748","0.0-316.0","s90ueqos","2560","1440","","","","","","","","","","","null","+","Fixation - short","","null","","","","","","","","","","","","","","","","",""
"","html-keyboard-response","189","349269","0.0-317.0","s90ueqos","","","","","","","","","","","","","520","idy","Diagnostic trial","","f","","2","5","9","false","false","false","both pre & post","LEFT","LEFT","f","1","true","","","",""
"","html-keyboard-response","190","350024","0.0-320.0","s90ueqos","2560","1440","","","","","","","","","","","null","+","Fixation - short","","null","","","","","","","","","","","","","","","","",""
"","html-keyboard-response","191","350538","0.0-321.0","s90ueqos","","","","","","","","","","","","","513","idy","Diagnostic trial","","j","","2","6","9","false","false","true","both pre & post","LEFT","RIGHT","j","1","false","","","",""
"","html-keyboard-response","192","351302","0.0-324.0","s90ueqos","2560","1440","","","","","","","","","","","null","+","Fixation - short","","null","","","","","","","","","","","","","","","","",""
"","html-keyboard-response","193","351732","0.0-325.0","s90ueqos","","","","","","","","","","","","","430","idy","Diagnostic trial","","j","","2","7","9","false","false","true","both pre & post","LEFT","RIGHT","j","1","false","","","",""
"","html-keyboard-response","194","352485","0.0-328.0","s90ueqos","2560","1440","","","","","","","","","","","null","+","Fixation - short","","null","","","","","","","","","","","","","","","","",""
"","html-keyboard-response","195","353158","0.0-329.0","s90ueqos","","","","","","","","","","","","","672","idy","Diagnostic trial","","f","","2","8","9","false","false","false","both pre & post","LEFT","LEFT","f","1","true","","","",""
"","html-keyboard-response","196","353917","0.0-332.0","s90ueqos","2560","1440","","","","","","","","","","","null","+","Fixation - short","","null","","","","","","","","","","","","","","","","",""
"","canvas-keyboard-response","197","355177","0.0-333.0","s90ueqos","","","","","","","","","","","","","null","Cue","Cue","","null","","2","8","","","false","","","","","","","","","","",""
"","html-keyboard-response","198","355951","0.0-334.0","s90ueqos","2560","1440","","","","","","","","","","","null","+","Fixation - short","","null","","","","","","","","","","","","","","","","",""
"","html-keyboard-response","199","356389","0.0-335.0","s90ueqos","","","","","","","","","","","","","437","faq","Diagnostic trial","","j","","2","9","9","true","false","true","both pre & post","RIGHT","RIGHT","j","1","true","","","",""
"","html-keyboard-response","200","357142","0.0-338.0","s90ueqos","2560","1440","","","","","","","","","","","null","+","Fixation - short","","null","","","","","","","","","","","","","","","","",""
"","html-keyboard-response","201","357744","0.0-339.0","s90ueqos","","","","","","","","","","","","","602","idy","Diagnostic trial","","f","","2","10","9","true","false","false","both pre & post","LEFT","LEFT","f","1","true","","","",""
"","html-keyboard-response","202","358509","0.0-342.0","s90ueqos","2560","1440","","","","","","","","","","","null","+","Fixation - short","","null","","","","","","","","","","","","","","","","",""
"","html-keyboard-response","203","359150","0.0-343.0","s90ueqos","","","","","","","","","","","","","640","faq","Diagnostic trial","","j","","2","11","9","true","false","true","both pre & post","RIGHT","RIGHT","j","1","true","","","",""
"","html-keyboard-response","204","359907","0.0-346.0","s90ueqos","2560","1440","","","","","","","","","","","null","+","Fixation - short","","null","","","","","","","","","","","","","","","","",""
"","html-keyboard-response","205","360416","0.0-347.0","s90ueqos","","","","","","","","","","","","","509","faq","Diagnostic trial","","j","","2","12","9","true","false","true","both pre & post","RIGHT","RIGHT","j","1","true","","","",""
"","html-keyboard-response","206","361175","0.0-350.0","s90ueqos","2560","1440","","","","","","","","","","","null","+","Fixation - short","","null","","","","","","","","","","","","","","","","",""
"","html-keyboard-response","207","362118","0.0-351.0","s90ueqos","","","","","","","","","","","","","942","idy","Inducer trial","","f","","2","","","","true","","","","","f","1","","false","LEFT","",""
"","html-keyboard-response","208","362877","0.0-354.0","s90ueqos","2560","1440","","","","","","","","","","","null","+","Fixation - short","","null","","","","","","","","","","","","","","","","",""
"","html-keyboard-response","209","366419","0.0-355.0","s90ueqos","","","","","","","","","","","","","3542","If efg press RIGHT | If cmj press LEFT","Inducer instructions",""," ","","3","","","","","","","","","","","","","","",""
"","html-keyboard-response","210","367175","0.0-356.0","s90ueqos","2560","1440","","","","","","","","","","","null","+","Fixation - short","","null","","","","","","","","","","","","","","","","",""
"","html-keyboard-response","211","368080","0.0-357.0","s90ueqos","","","","","","","","","","","","","904","efg","Diagnostic trial","","f","","3","0","10","false","false","false","both pre & post","RIGHT","LEFT","f","1","false","","","",""
"","html-keyboard-response","212","368844","0.0-360.0","s90ueqos","2560","1440","","","","","","","","","","","null","+","Fixation - short","","null","","","","","","","","","","","","","","","","",""
"","html-keyboard-response","213","369482","0.0-361.0","s90ueqos","","","","","","","","","","","","","637","cmj","Diagnostic trial","","f","","3","1","10","false","false","false","both pre & post","LEFT","LEFT","f","1","true","","","",""
"","html-keyboard-response","214","370239","0.0-364.0","s90ueqos","2560","1440","","","","","","","","","","","null","+","Fixation - short","","null","","","","","","","","","","","","","","","","",""
"","html-keyboard-response","215","370772","0.0-365.0","s90ueqos","","","","","","","","","","","","","533","efg","Diagnostic trial","","f","","3","2","10","false","false","false","both pre & post","RIGHT","LEFT","f","1","false","","","",""
"","html-keyboard-response","216","371537","0.0-368.0","s90ueqos","2560","1440","","","","","","","","","","","null","+","Fixation - short","","null","","","","","","","","","","","","","","","","",""
"","html-keyboard-response","217","371952","0.0-369.0","s90ueqos","","","","","","","","","","","","","415","efg","Diagnostic trial","","f","","3","3","10","false","false","false","both pre & post","RIGHT","LEFT","f","1","false","","","",""
"","html-keyboard-response","218","372712","0.0-372.0","s90ueqos","2560","1440","","","","","","","","","","","null","+","Fixation - short","","null","","","","","","","","","","","","","","","","",""
"","html-keyboard-response","219","373104","0.0-373.0","s90ueqos","","","","","","","","","","","","","391","efg","Diagnostic trial","","f","","3","4","10","false","false","false","both pre & post","RIGHT","LEFT","f","1","false","","","",""
"","html-keyboard-response","220","373866","0.0-376.0","s90ueqos","2560","1440","","","","","","","","","","","null","+","Fixation - short","","null","","","","","","","","","","","","","","","","",""
"","html-keyboard-response","221","374350","0.0-377.0","s90ueqos","","","","","","","","","","","","","483","cmj","Diagnostic trial","","j","","3","5","10","false","false","true","both pre & post","LEFT","RIGHT","j","1","false","","","",""
"","html-keyboard-response","222","375108","0.0-380.0","s90ueqos","2560","1440","","","","","","","","","","","null","+","Fixation - short","","null","","","","","","","","","","","","","","","","",""
"","html-keyboard-response","223","375700","0.0-381.0","s90ueqos","","","","","","","","","","","","","592","cmj","Diagnostic trial","","f","","3","6","10","false","false","false","both pre & post","LEFT","LEFT","f","1","true","","","",""
"","html-keyboard-response","224","376466","0.0-384.0","s90ueqos","2560","1440","","","","","","","","","","","null","+","Fixation - short","","null","","","","","","","","","","","","","","","","",""
"","html-keyboard-response","225","377087","0.0-385.0","s90ueqos","","","","","","","","","","","","","620","efg","Diagnostic trial","","j","","3","7","10","false","false","true","both pre & post","RIGHT","RIGHT","j","1","true","","","",""
"","html-keyboard-response","226","377849","0.0-388.0","s90ueqos","2560","1440","","","","","","","","","","","null","+","Fixation - short","","null","","","","","","","","","","","","","","","","",""
"","html-keyboard-response","227","378614","0.0-389.0","s90ueqos","","","","","","","","","","","","","764","efg","Diagnostic trial","","f","","3","8","10","false","false","false","both pre & post","RIGHT","LEFT","f","1","false","","","",""
"","html-keyboard-response","228","379373","0.0-392.0","s90ueqos","2560","1440","","","","","","","","","","","null","+","Fixation - short","","null","","","","","","","","","","","","","","","","",""
"","html-keyboard-response","229","380000","0.0-393.0","s90ueqos","","","","","","","","","","","","","626","efg","Diagnostic trial","","j","","3","9","10","false","false","true","both pre & post","RIGHT","RIGHT","j","1","true","","","",""
"","html-keyboard-response","230","380753","0.0-396.0","s90ueqos","2560","1440","","","","","","","","","","","null","+","Fixation - short","","null","","","","","","","","","","","","","","","","",""
"","canvas-keyboard-response","231","382019","0.0-397.0","s90ueqos","","","","","","","","","","","","","null","Cue","Cue","","null","","3","9","","","false","","","","","","","","","","",""
"","html-keyboard-response","232","382772","0.0-398.0","s90ueqos","2560","1440","","","","","","","","","","","null","+","Fixation - short","","null","","","","","","","","","","","","","","","","",""
"","html-keyboard-response","233","383366","0.0-399.0","s90ueqos","","","","","","","","","","","","","594","cmj","Diagnostic trial","","j","","3","10","10","true","false","true","both pre & post","LEFT","RIGHT","j","1","false","","","",""
"","html-keyboard-response","234","384118","0.0-402.0","s90ueqos","2560","1440","","","","","","","","","","","null","+","Fixation - short","","null","","","","","","","","","","","","","","","","",""
"","html-keyboard-response","235","384686","0.0-403.0","s90ueqos","","","","","","","","","","","","","567","efg","Diagnostic trial","","f","","3","11","10","true","false","false","both pre & post","RIGHT","LEFT","f","1","false","","","",""
"","html-keyboard-response","236","385448","0.0-406.0","s90ueqos","2560","1440","","","","","","","","","","","null","+","Fixation - short","","null","","","","","","","","","","","","","","","","",""
"","html-keyboard-response","237","386370","0.0-407.0","s90ueqos","","","","","","","","","","","","","921","cmj","Inducer trial","","f","","3","","","","true","","","","","f","1","","false","LEFT","",""
"","html-keyboard-response","238","387123","0.0-410.0","s90ueqos","2560","1440","","","","","","","","","","","null","+","Fixation - short","","null","","","","","","","","","","","","","","","","",""
"","html-keyboard-response","239","390905","0.0-411.0","s90ueqos","","","","","","","","","","","","","3781","If xet press RIGHT | If mvv press LEFT","Inducer instructions",""," ","","4","","","","","","","","","","","","","","",""
"","html-keyboard-response","240","391665","0.0-412.0","s90ueqos","2560","1440","","","","","","","","","","","null","+","Fixation - short","","null","","","","","","","","","","","","","","","","",""
"","html-keyboard-response","241","392276","0.0-413.0","s90ueqos","","","","","","","","","","","","","610","xet","Diagnostic trial","","j","","4","0","9","false","false","true","both pre & post","RIGHT","RIGHT","j","1","true","","","",""
"","html-keyboard-response","242","393028","0.0-416.0","s90ueqos","2560","1440","","","","","","","","","","","null","+","Fixation - short","","null","","","","","","","","","","","","","","","","",""
"","html-keyboard-response","243","393456","0.0-417.0","s90ueqos","","","","","","","","","","","","","428","xet","Diagnostic trial","","j","","4","1","9","false","false","true","both pre & post","RIGHT","RIGHT","j","1","true","","","",""
"","html-keyboard-response","244","394210","0.0-420.0","s90ueqos","2560","1440","","","","","","","","","","","null","+","Fixation - short","","null","","","","","","","","","","","","","","","","",""
"","html-keyboard-response","245","394736","0.0-421.0","s90ueqos","","","","","","","","","","","","","526","mvv","Diagnostic trial","","j","","4","2","9","false","false","true","both pre & post","LEFT","RIGHT","j","1","false","","","",""
"","html-keyboard-response","246","395491","0.0-424.0","s90ueqos","2560","1440","","","","","","","","","","","null","+","Fixation - short","","null","","","","","","","","","","","","","","","","",""
"","html-keyboard-response","247","395980","0.0-425.0","s90ueqos","","","","","","","","","","","","","489","mvv","Diagnostic trial","","j","","4","3","9","false","false","true","both pre & post","LEFT","RIGHT","j","1","false","","","",""
"","html-keyboard-response","248","396735","0.0-428.0","s90ueqos","2560","1440","","","","","","","","","","","null","+","Fixation - short","","null","","","","","","","","","","","","","","","","",""
"","html-keyboard-response","249","397256","0.0-429.0","s90ueqos","","","","","","","","","","","","","520","xet","Diagnostic trial","","f","","4","4","9","false","false","false","both pre & post","RIGHT","LEFT","f","1","false","","","",""
"","html-keyboard-response","250","398009","0.0-432.0","s90ueqos","2560","1440","","","","","","","","","","","null","+","Fixation - short","","null","","","","","","","","","","","","","","","","",""
"","html-keyboard-response","251","398450","0.0-433.0","s90ueqos","","","","","","","","","","","","","441","xet","Diagnostic trial","","f","","4","5","9","false","false","false","both pre & post","RIGHT","LEFT","f","1","false","","","",""
"","html-keyboard-response","252","399219","0.0-436.0","s90ueqos","2560","1440","","","","","","","","","","","null","+","Fixation - short","","null","","","","","","","","","","","","","","","","",""
"","html-keyboard-response","253","399966","0.0-437.0","s90ueqos","","","","","","","","","","","","","747","mvv","Diagnostic trial","","f","","4","6","9","false","false","false","both pre & post","LEFT","LEFT","f","1","true","","","",""
"","html-keyboard-response","254","400735","0.0-440.0","s90ueqos","2560","1440","","","","","","","","","","","null","+","Fixation - short","","null","","","","","","","","","","","","","","","","",""
"","html-keyboard-response","255","401177","0.0-441.0","s90ueqos","","","","","","","","","","","","","441","mvv","Diagnostic trial","","f","","4","7","9","false","false","false","both pre & post","LEFT","LEFT","f","1","true","","","",""
"","html-keyboard-response","256","401942","0.0-444.0","s90ueqos","2560","1440","","","","","","","","","","","null","+","Fixation - short","","null","","","","","","","","","","","","","","","","",""
"","html-keyboard-response","257","402510","0.0-445.0","s90ueqos","","","","","","","","","","","","","567","mvv","Diagnostic trial","","j","","4","8","9","false","false","true","both pre & post","LEFT","RIGHT","j","1","false","","","",""
"","html-keyboard-response","258","403273","0.0-448.0","s90ueqos","2560","1440","","","","","","","","","","","null","+","Fixation - short","","null","","","","","","","","","","","","","","","","",""
"","canvas-keyboard-response","259","404536","0.0-449.0","s90ueqos","","","","","","","","","","","","","null","Cue","Cue","","null","","4","8","","","false","","","","","","","","","","",""
"","html-keyboard-response","260","405300","0.0-450.0","s90ueqos","2560","1440","","","","","","","","","","","null","+","Fixation - short","","null","","","","","","","","","","","","","","","","",""
"","html-keyboard-response","261","405964","0.0-451.0","s90ueqos","","","","","","","","","","","","","664","xet","Diagnostic trial","","j","","4","9","9","true","false","true","both pre & post","RIGHT","RIGHT","j","1","true","","","",""
"","html-keyboard-response","262","406726","0.0-454.0","s90ueqos","2560","1440","","","","","","","","","","","null","+","Fixation - short","","null","","","","","","","","","","","","","","","","",""
"","html-keyboard-response","263","407228","0.0-455.0","s90ueqos","","","","","","","","","","","","","502","mvv","Diagnostic trial","","f","","4","10","9","true","false","false","both pre & post","LEFT","LEFT","f","1","true","","","",""
"","html-keyboard-response","264","407988","0.0-458.0","s90ueqos","2560","1440","","","","","","","","","","","null","+","Fixation - short","","null","","","","","","","","","","","","","","","","",""
"","html-keyboard-response","265","408378","0.0-459.0","s90ueqos","","","","","","","","","","","","","390","mvv","Diagnostic trial","","f","","4","11","9","true","false","true","both pre & post","LEFT","RIGHT","j","0","false","","","",""
"","call-function","266","408379","0.0-461.0-0.0","s90ueqos","","","","","","","","","","","","","","","","","","","","","","","","","","","","","","","","","",""
"","html-keyboard-response","267","408689","0.0-461.0-1.0","s90ueqos","2560","1440","","","","","","","","","","","null","Wrong","Feedback","","null","","","","","","","","","","","","","","","","",""
"","call-function","268","408689","0.0-461.0-2.0","s90ueqos","","","","","","","","","","","","","","","","","","","","","","","","","","","","","","","","","",""
"","html-keyboard-response","269","409448","0.0-462.0","s90ueqos","2560","1440","","","","","","","","","","","null","+","Fixation - short","","null","","","","","","","","","","","","","","","","",""
"","html-keyboard-response","270","410298","0.0-463.0","s90ueqos","","","","","","","","","","","","","849","mvv","Diagnostic trial","","f","","4","12","9","true","false","false","both pre & post","LEFT","LEFT","f","1","true","","","",""
"","html-keyboard-response","271","411054","0.0-466.0","s90ueqos","2560","1440","","","","","","","","","","","null","+","Fixation - short","","null","","","","","","","","","","","","","","","","",""
"","html-keyboard-response","272","411563","0.0-467.0","s90ueqos","","","","","","","","","","","","","508","mvv","Inducer trial","","j","","4","","","","true","","","","","f","0","","false","LEFT","",""
"","call-function","273","411564","0.0-469.0-0.0","s90ueqos","","","","","","","","","","","","","","","","","","","","","","","","","","","","","","","","","",""
"","html-keyboard-response","274","411880","0.0-469.0-1.0","s90ueqos","2560","1440","","","","","","","","","","","null","Wrong","Feedback","","null","","","","","","","","","","","","","","","","",""
"","call-function","275","411880","0.0-469.0-2.0","s90ueqos","","","","","","","","","","","","","","","","","","","","","","","","","","","","","","","","","",""
"","html-keyboard-response","276","412635","0.0-470.0","s90ueqos","2560","1440","","","","","","","","","","","null","+","Fixation - short","","null","","","","","","","","","","","","","","","","",""
"","html-keyboard-response","277","416139","0.0-471.0","s90ueqos","","","","","","","","","","","","","3502","If cnl press RIGHT | If hfs press LEFT","Inducer instructions",""," ","","5","","","","","","","","","","","","","","",""
"","html-keyboard-response","278","416913","0.0-472.0","s90ueqos","2560","1440","","","","","","","","","","","null","+","Fixation - short","","null","","","","","","","","","","","","","","","","",""
"","html-keyboard-response","279","417836","0.0-473.0","s90ueqos","","","","","","","","","","","","","923","cnl","Diagnostic trial","","f","","5","0","4","false","false","false","both pre & post","RIGHT","LEFT","f","1","false","","","",""
"","html-keyboard-response","280","418596","0.0-476.0","s90ueqos","2560","1440","","","","","","","","","","","null","+","Fixation - short","","null","","","","","","","","","","","","","","","","",""
"","html-keyboard-response","281","419208","0.0-477.0","s90ueqos","","","","","","","","","","","","","612","cnl","Diagnostic trial","","j","","5","1","4","false","false","true","both pre & post","RIGHT","RIGHT","j","1","true","","","",""
"","html-keyboard-response","282","419967","0.0-480.0","s90ueqos","2560","1440","","","","","","","","","","","null","+","Fixation - short","","null","","","","","","","","","","","","","","","","",""
"","html-keyboard-response","283","420730","0.0-481.0","s90ueqos","","","","","","","","","","","","","763","cnl","Diagnostic trial","","f","","5","2","4","false","false","false","both pre & post","RIGHT","LEFT","f","1","false","","","",""
"","html-keyboard-response","284","421496","0.0-484.0","s90ueqos","2560","1440","","","","","","","","","","","null","+","Fixation - short","","null","","","","","","","","","","","","","","","","",""
"","html-keyboard-response","285","422081","0.0-485.0","s90ueqos","","","","","","","","","","","","","585","cnl","Diagnostic trial","","j","","5","3","4","false","false","true","both pre & post","RIGHT","RIGHT","j","1","true","","","",""
"","html-keyboard-response","286","422843","0.0-488.0","s90ueqos","2560","1440","","","","","","","","","","","null","+","Fixation - short","","null","","","","","","","","","","","","","","","","",""
"","canvas-keyboard-response","287","424111","0.0-489.0","s90ueqos","","","","","","","","","","","","","null","Cue","Cue","","null","","5","3","","","false","","","","","","","","","","",""
"","html-keyboard-response","288","424879","0.0-490.0","s90ueqos","2560","1440","","","","","","","","","","","null","+","Fixation - short","","null","","","","","","","","","","","","","","","","",""
"","html-keyboard-response","289","425552","0.0-491.0","s90ueqos","","","","","","","","","","","","","672","cnl","Diagnostic trial","","j","","5","4","4","true","false","true","both pre & post","RIGHT","RIGHT","j","1","true","","","",""
"","html-keyboard-response","290","426318","0.0-494.0","s90ueqos","2560","1440","","","","","","","","","","","null","+","Fixation - short","","null","","","","","","","","","","","","","","","","",""
"","html-keyboard-response","291","426958","0.0-495.0","s90ueqos","","","","","","","","","","","","","639","hfs","Diagnostic trial","","j","","5","5","4","true","false","true","both pre & post","LEFT","RIGHT","j","1","false","","","",""
"","html-keyboard-response","292","427714","0.0-498.0","s90ueqos","2560","1440","","","","","","","","","","","null","+","Fixation - short","","null","","","","","","","","","","","","","","","","",""
"","html-keyboard-response","293","428335","0.0-499.0","s90ueqos","","","","","","","","","","","","","619","cnl","Diagnostic trial","","f","","5","6","4","true","false","false","both pre & post","RIGHT","LEFT","f","1","false","","","",""
"","html-keyboard-response","294","429104","0.0-502.0","s90ueqos","2560","1440","","","","","","","","","","","null","+","Fixation - short","","null","","","","","","","","","","","","","","","","",""
"","html-keyboard-response","295","430188","0.0-503.0","s90ueqos","","","","","","","","","","","","","1083","cnl","Inducer trial","","j","","5","","","","true","","","","","j","1","","false","RIGHT","",""
"","html-keyboard-response","296","430953","0.0-506.0","s90ueqos","2560","1440","","","","","","","","","","","null","+","Fixation - short","","null","","","","","","","","","","","","","","","","",""
"","html-keyboard-response","297","434025","0.0-507.0","s90ueqos","","","","","","","","","","","","","3071","If wrz press RIGHT | If jft press LEFT","Inducer instructions",""," ","","6","","","","","","","","","","","","","","",""
"","html-keyboard-response","298","434784","0.0-508.0","s90ueqos","2560","1440","","","","","","","","","","","null","+","Fixation - short","","null","","","","","","","","","","","","","","","","",""
"","html-keyboard-response","299","435636","0.0-509.0","s90ueqos","","","","","","","","","","","","","852","wrz","Diagnostic trial","","f","","6","0","4","false","false","false","both pre & post","RIGHT","LEFT","f","1","false","","","",""
"","html-keyboard-response","300","436393","0.0-512.0","s90ueqos","2560","1440","","","","","","","","","","","null","+","Fixation - short","","null","","","","","","","","","","","","","","","","",""
"","html-keyboard-response","301","437058","0.0-513.0","s90ueqos","","","","","","","","","","","","","664","jft","Diagnostic trial","","j","","6","1","4","false","false","true","both pre & post","LEFT","RIGHT","j","1","false","","","",""
"","html-keyboard-response","302","437827","0.0-516.0","s90ueqos","2560","1440","","","","","","","","","","","null","+","Fixation - short","","null","","","","","","","","","","","","","","","","",""
"","html-keyboard-response","303","438263","0.0-517.0","s90ueqos","","","","","","","","","","","","","435","jft","Diagnostic trial","","j","","6","2","4","false","false","true","both pre & post","LEFT","RIGHT","j","1","false","","","",""
"","html-keyboard-response","304","439026","0.0-520.0","s90ueqos","2560","1440","","","","","","","","","","","null","+","Fixation - short","","null","","","","","","","","","","","","","","","","",""
"","html-keyboard-response","305","439624","0.0-521.0","s90ueqos","","","","","","","","","","","","","598","jft","Diagnostic trial","","f","","6","3","4","false","false","false","both pre & post","LEFT","LEFT","f","1","true","","","",""
"","html-keyboard-response","306","440388","0.0-524.0","s90ueqos","2560","1440","","","","","","","","","","","null","+","Fixation - short","","null","","","","","","","","","","","","","","","","",""
"","canvas-keyboard-response","307","441645","0.0-525.0","s90ueqos","","","","","","","","","","","","","null","Cue","Cue","","null","","6","3","","","false","","","","","","","","","","",""
"","html-keyboard-response","308","442400","0.0-526.0","s90ueqos","2560","1440","","","","","","","","","","","null","+","Fixation - short","","null","","","","","","","","","","","","","","","","",""
"","html-keyboard-response","309","443402","0.0-527.0","s90ueqos","","","","","","","","","","","","","1002","jft","Diagnostic trial","","f","","6","4","4","true","false","false","both pre & post","LEFT","LEFT","f","1","true","","","",""
"","html-keyboard-response","310","444166","0.0-530.0","s90ueqos","2560","1440","","","","","","","","","","","null","+","Fixation - short","","null","","","","","","","","","","","","","","","","",""
"","html-keyboard-response","311","444935","0.0-531.0","s90ueqos","","","","","","","","","","","","","769","wrz","Inducer trial","","j","","6","","","","true","","","","","j","1","","false","RIGHT","",""
"","html-keyboard-response","312","445691","0.0-534.0","s90ueqos","2560","1440","","","","","","","","","","","null","+","Fixation - short","","null","","","","","","","","","","","","","","","","",""
"","html-keyboard-response","313","447979","0.0-535.0","s90ueqos","","","","","","","","","","","","","2286","If eht press RIGHT | If cui press LEFT","Inducer instructions",""," ","","7","","","","","","","","","","","","","","",""
"","html-keyboard-response","314","448740","0.0-536.0","s90ueqos","2560","1440","","","","","","","","","","","null","+","Fixation - short","","null","","","","","","","","","","","","","","","","",""
"","html-keyboard-response","315","449365","0.0-537.0","s90ueqos","","","","","","","","","","","","","624","eht","Diagnostic trial","","j","","7","0","6","false","false","true","both pre & post","RIGHT","RIGHT","j","1","true","","","",""
"","html-keyboard-response","316","450121","0.0-540.0","s90ueqos","2560","1440","","","","","","","","","","","null","+","Fixation - short","","null","","","","","","","","","","","","","","","","",""
"","html-keyboard-response","317","450624","0.0-541.0","s90ueqos","","","","","","","","","","","","","502","cui","Diagnostic trial","","j","","7","1","6","false","false","true","both pre & post","LEFT","RIGHT","j","1","false","","","",""
"","html-keyboard-response","318","451380","0.0-544.0","s90ueqos","2560","1440","","","","","","","","","","","null","+","Fixation - short","","null","","","","","","","","","","","","","","","","",""
"","html-keyboard-response","319","452157","0.0-545.0","s90ueqos","","","","","","","","","","","","","776","cui","Diagnostic trial","","j","","7","2","6","false","false","true","both pre & post","LEFT","RIGHT","j","1","false","","","",""
"","html-keyboard-response","320","452920","0.0-548.0","s90ueqos","2560","1440","","","","","","","","","","","null","+","Fixation - short","","null","","","","","","","","","","","","","","","","",""
"","html-keyboard-response","321","453522","0.0-549.0","s90ueqos","","","","","","","","","","","","","602","eht","Diagnostic trial","","f","","7","3","6","false","false","false","both pre & post","RIGHT","LEFT","f","1","false","","","",""
"","html-keyboard-response","322","454274","0.0-552.0","s90ueqos","2560","1440","","","","","","","","","","","null","+","Fixation - short","","null","","","","","","","","","","","","","","","","",""
"","html-keyboard-response","323","455065","0.0-553.0","s90ueqos","","","","","","","","","","","","","791","eht","Diagnostic trial","","f","","7","4","6","false","false","false","both pre & post","RIGHT","LEFT","f","1","false","","","",""
"","html-keyboard-response","324","455826","0.0-556.0","s90ueqos","2560","1440","","","","","","","","","","","null","+","Fixation - short","","null","","","","","","","","","","","","","","","","",""
"","html-keyboard-response","325","456481","0.0-557.0","s90ueqos","","","","","","","","","","","","","654","eht","Diagnostic trial","","j","","7","5","6","false","false","true","both pre & post","RIGHT","RIGHT","j","1","true","","","",""
"","html-keyboard-response","326","457233","0.0-560.0","s90ueqos","2560","1440","","","","","","","","","","","null","+","Fixation - short","","null","","","","","","","","","","","","","","","","",""
"","canvas-keyboard-response","327","458495","0.0-561.0","s90ueqos","","","","","","","","","","","","","null","Cue","Cue","","null","","7","5","","","false","","","","","","","","","","",""
"","html-keyboard-response","328","459247","0.0-562.0","s90ueqos","2560","1440","","","","","","","","","","","null","+","Fixation - short","","null","","","","","","","","","","","","","","","","",""
"","html-keyboard-response","329","460231","0.0-563.0","s90ueqos","","","","","","","","","","","","","983","cui","Diagnostic trial","","f","","7","6","6","true","false","false","both pre & post","LEFT","LEFT","f","1","true","","","",""
"","html-keyboard-response","330","460994","0.0-566.0","s90ueqos","2560","1440","","","","","","","","","","","null","+","Fixation - short","","null","","","","","","","","","","","","","","","","",""
"","html-keyboard-response","331","461676","0.0-567.0","s90ueqos","","","","","","","","","","","","","682","cui","Diagnostic trial","","f","","7","7","6","true","false","false","both pre & post","LEFT","LEFT","f","1","true","","","",""
"","html-keyboard-response","332","462445","0.0-570.0","s90ueqos","2560","1440","","","","","","","","","","","null","+","Fixation - short","","null","","","","","","","","","","","","","","","","",""
"","html-keyboard-response","333","463154","0.0-571.0","s90ueqos","","","","","","","","","","","","","708","eht","Diagnostic trial","","f","","7","8","6","true","false","false","both pre & post","RIGHT","LEFT","f","1","false","","","",""
"","html-keyboard-response","334","463909","0.0-574.0","s90ueqos","2560","1440","","","","","","","","","","","null","+","Fixation - short","","null","","","","","","","","","","","","","","","","",""
"","html-keyboard-response","335","464644","0.0-575.0","s90ueqos","","","","","","","","","","","","","735","cui","Diagnostic trial","","j","","7","9","6","true","false","true","both pre & post","LEFT","RIGHT","j","1","false","","","",""
"","html-keyboard-response","336","465408","0.0-578.0","s90ueqos","2560","1440","","","","","","","","","","","null","+","Fixation - short","","null","","","","","","","","","","","","","","","","",""
"","html-keyboard-response","337","466319","0.0-579.0","s90ueqos","","","","","","","","","","","","","910","cui","Inducer trial","","f","","7","","","","true","","","","","f","1","","false","LEFT","",""
"","html-keyboard-response","338","467075","0.0-582.0","s90ueqos","2560","1440","","","","","","","","","","","null","+","Fixation - short","","null","","","","","","","","","","","","","","","","",""
"","html-keyboard-response","339","469654","0.0-583.0","s90ueqos","","","","","","","","","","","","","2578","If glp press RIGHT | If xlv press LEFT","Inducer instructions",""," ","","8","","","","","","","","","","","","","","",""
"","html-keyboard-response","340","470405","0.0-584.0","s90ueqos","2560","1440","","","","","","","","","","","null","+","Fixation - short","","null","","","","","","","","","","","","","","","","",""
"","html-keyboard-response","341","471251","0.0-585.0","s90ueqos","","","","","","","","","","","","","845","glp","Diagnostic trial","","f","","8","0","9","false","false","false","both pre & post","RIGHT","LEFT","f","1","false","","","",""
"","html-keyboard-response","342","472008","0.0-588.0","s90ueqos","2560","1440","","","","","","","","","","","null","+","Fixation - short","","null","","","","","","","","","","","","","","","","",""
"","html-keyboard-response","343","472512","0.0-589.0","s90ueqos","","","","","","","","","","","","","503","glp","Diagnostic trial","","f","","8","1","9","false","false","false","both pre & post","RIGHT","LEFT","f","1","false","","","",""
"","html-keyboard-response","344","473271","0.0-592.0","s90ueqos","2560","1440","","","","","","","","","","","null","+","Fixation - short","","null","","","","","","","","","","","","","","","","",""
"","html-keyboard-response","345","473968","0.0-593.0","s90ueqos","","","","","","","","","","","","","696","xlv","Diagnostic trial","","j","","8","2","9","false","false","true","both pre & post","LEFT","RIGHT","j","1","false","","","",""
"","html-keyboard-response","346","474736","0.0-596.0","s90ueqos","2560","1440","","","","","","","","","","","null","+","Fixation - short","","null","","","","","","","","","","","","","","","","",""
"","html-keyboard-response","347","475380","0.0-597.0","s90ueqos","","","","","","","","","","","","","643","glp","Diagnostic trial","","f","","8","3","9","false","false","false","both pre & post","RIGHT","LEFT","f","1","false","","","",""
"","html-keyboard-response","348","476145","0.0-600.0","s90ueqos","2560","1440","","","","","","","","","","","null","+","Fixation - short","","null","","","","","","","","","","","","","","","","",""
"","html-keyboard-response","349","476624","0.0-601.0","s90ueqos","","","","","","","","","","","","","478","glp","Diagnostic trial","","j","","8","4","9","false","false","true","both pre & post","RIGHT","RIGHT","j","1","true","","","",""
"","html-keyboard-response","350","477378","0.0-604.0","s90ueqos","2560","1440","","","","","","","","","","","null","+","Fixation - short","","null","","","","","","","","","","","","","","","","",""
"","html-keyboard-response","351","477960","0.0-605.0","s90ueqos","","","","","","","","","","","","","581","xlv","Diagnostic trial","","f","","8","5","9","false","false","false","both pre & post","LEFT","LEFT","f","1","true","","","",""
"","html-keyboard-response","352","478724","0.0-608.0","s90ueqos","2560","1440","","","","","","","","","","","null","+","Fixation - short","","null","","","","","","","","","","","","","","","","",""
"","html-keyboard-response","353","479310","0.0-609.0","s90ueqos","","","","","","","","","","","","","584","glp","Diagnostic trial","","j","","8","6","9","false","false","true","both pre & post","RIGHT","RIGHT","j","1","true","","","",""
"","html-keyboard-response","354","480071","0.0-612.0","s90ueqos","2560","1440","","","","","","","","","","","null","+","Fixation - short","","null","","","","","","","","","","","","","","","","",""
"","html-keyboard-response","355","480867","0.0-613.0","s90ueqos","","","","","","","","","","","","","796","glp","Diagnostic trial","","f","","8","7","9","false","false","false","both pre & post","RIGHT","LEFT","f","1","false","","","",""
"","html-keyboard-response","356","481627","0.0-616.0","s90ueqos","2560","1440","","","","","","","","","","","null","+","Fixation - short","","null","","","","","","","","","","","","","","","","",""
"","html-keyboard-response","357","482188","0.0-617.0","s90ueqos","","","","","","","","","","","","","560","glp","Diagnostic trial","","f","","8","8","9","false","false","false","both pre & post","RIGHT","LEFT","f","1","false","","","",""
"","html-keyboard-response","358","482955","0.0-620.0","s90ueqos","2560","1440","","","","","","","","","","","null","+","Fixation - short","","null","","","","","","","","","","","","","","","","",""
"","canvas-keyboard-response","359","484214","0.0-621.0","s90ueqos","","","","","","","","","","","","","null","Cue","Cue","","null","","8","8","","","false","","","","","","","","","","",""
"","html-keyboard-response","360","484980","0.0-622.0","s90ueqos","2560","1440","","","","","","","","","","","null","+","Fixation - short","","null","","","","","","","","","","","","","","","","",""
"","html-keyboard-response","361","485523","0.0-623.0","s90ueqos","","","","","","","","","","","","","543","glp","Diagnostic trial","","j","","8","9","9","true","false","true","both pre & post","RIGHT","RIGHT","j","1","true","","","",""
"","html-keyboard-response","362","486288","0.0-626.0","s90ueqos","2560","1440","","","","","","","","","","","null","+","Fixation - short","","null","","","","","","","","","","","","","","","","",""
"","html-keyboard-response","363","486864","0.0-627.0","s90ueqos","","","","","","","","","","","","","576","glp","Diagnostic trial","","f","","8","10","9","true","false","false","both pre & post","RIGHT","LEFT","f","1","false","","","",""
"","html-keyboard-response","364","487621","0.0-630.0","s90ueqos","2560","1440","","","","","","","","","","","null","+","Fixation - short","","null","","","","","","","","","","","","","","","","",""
"","html-keyboard-response","365","488246","0.0-631.0","s90ueqos","","","","","","","","","","","","","624","xlv","Diagnostic trial","","f","","8","11","9","true","false","false","both pre & post","LEFT","LEFT","f","1","true","","","",""
"","html-keyboard-response","366","488999","0.0-634.0","s90ueqos","2560","1440","","","","","","","","","","","null","+","Fixation - short","","null","","","","","","","","","","","","","","","","",""
"","html-keyboard-response","367","489778","0.0-635.0","s90ueqos","","","","","","","","","","","","","778","xlv","Inducer trial","","f","","8","","","","true","","","","","f","1","","false","LEFT","",""
"","html-keyboard-response","368","490537","0.0-638.0","s90ueqos","2560","1440","","","","","","","","","","","null","+","Fixation - short","","null","","","","","","","","","","","","","","","","",""
"","html-keyboard-response","369","493078","0.0-639.0","s90ueqos","","","","","","","","","","","","","2540","If ttm press RIGHT | If jey press LEFT","Inducer instructions",""," ","","9","","","","","","","","","","","","","","",""
"","html-keyboard-response","370","493841","0.0-640.0","s90ueqos","2560","1440","","","","","","","","","","","null","+","Fixation - short","","null","","","","","","","","","","","","","","","","",""
"","html-keyboard-response","371","494423","0.0-641.0","s90ueqos","","","","","","","","","","","","","582","jey","Diagnostic trial","","j","","9","0","9","false","false","true","both pre & post","LEFT","RIGHT","j","1","false","","","",""
"","html-keyboard-response","372","495185","0.0-644.0","s90ueqos","2560","1440","","","","","","","","","","","null","+","Fixation - short","","null","","","","","","","","","","","","","","","","",""
"","html-keyboard-response","373","495789","0.0-645.0","s90ueqos","","","","","","","","","","","","","604","jey","Diagnostic trial","","j","","9","1","9","false","false","true","both pre & post","LEFT","RIGHT","j","1","false","","","",""
"","html-keyboard-response","374","496544","0.0-648.0","s90ueqos","2560","1440","","","","","","","","","","","null","+","Fixation - short","","null","","","","","","","","","","","","","","","","",""
"","html-keyboard-response","375","497055","0.0-649.0","s90ueqos","","","","","","","","","","","","","510","ttm","Diagnostic trial","","j","","9","2","9","false","false","true","both pre & post","RIGHT","RIGHT","j","1","true","","","",""
"","html-keyboard-response","376","497814","0.0-652.0","s90ueqos","2560","1440","","","","","","","","","","","null","+","Fixation - short","","null","","","","","","","","","","","","","","","","",""
"","html-keyboard-response","377","498399","0.0-653.0","s90ueqos","","","","","","","","","","","","","585","ttm","Diagnostic trial","","f","","9","3","9","false","false","false","both pre & post","RIGHT","LEFT","f","1","false","","","",""
"","html-keyboard-response","378","499161","0.0-656.0","s90ueqos","2560","1440","","","","","","","","","","","null","+","Fixation - short","","null","","","","","","","","","","","","","","","","",""
"","html-keyboard-response","379","499841","0.0-657.0","s90ueqos","","","","","","","","","","","","","679","ttm","Diagnostic trial","","j","","9","4","9","false","false","true","both pre & post","RIGHT","RIGHT","j","1","true","","","",""
"","html-keyboard-response","380","500601","0.0-660.0","s90ueqos","2560","1440","","","","","","","","","","","null","+","Fixation - short","","null","","","","","","","","","","","","","","","","",""
"","html-keyboard-response","381","501324","0.0-661.0","s90ueqos","","","","","","","","","","","","","722","jey","Diagnostic trial","","f","","9","5","9","false","false","false","both pre & post","LEFT","LEFT","f","1","true","","","",""
"","html-keyboard-response","382","502091","0.0-664.0","s90ueqos","2560","1440","","","","","","","","","","","null","+","Fixation - short","","null","","","","","","","","","","","","","","","","",""
"","html-keyboard-response","383","502624","0.0-665.0","s90ueqos","","","","","","","","","","","","","532","jey","Diagnostic trial","","f","","9","6","9","false","false","false","both pre & post","LEFT","LEFT","f","1","true","","","",""
"","html-keyboard-response","384","503383","0.0-668.0","s90ueqos","2560","1440","","","","","","","","","","","null","+","Fixation - short","","null","","","","","","","","","","","","","","","","",""
"","html-keyboard-response","385","503928","0.0-669.0","s90ueqos","","","","","","","","","","","","","544","ttm","Diagnostic trial","","j","","9","7","9","false","false","true","both pre & post","RIGHT","RIGHT","j","1","true","","","",""
"","html-keyboard-response","386","504689","0.0-672.0","s90ueqos","2560","1440","","","","","","","","","","","null","+","Fixation - short","","null","","","","","","","","","","","","","","","","",""
"","html-keyboard-response","387","505360","0.0-673.0","s90ueqos","","","","","","","","","","","","","670","jey","Diagnostic trial","","f","","9","8","9","false","false","false","both pre & post","LEFT","LEFT","f","1","true","","","",""
"","html-keyboard-response","388","506119","0.0-676.0","s90ueqos","2560","1440","","","","","","","","","","","null","+","Fixation - short","","null","","","","","","","","","","","","","","","","",""
"","canvas-keyboard-response","389","507373","0.0-677.0","s90ueqos","","","","","","","","","","","","","null","Cue","Cue","","null","","9","8","","","false","","","","","","","","","","",""
"","html-keyboard-response","390","508125","0.0-678.0","s90ueqos","2560","1440","","","","","","","","","","","null","+","Fixation - short","","null","","","","","","","","","","","","","","","","",""
"","html-keyboard-response","391","508636","0.0-679.0","s90ueqos","","","","","","","","","","","","","511","jey","Diagnostic trial","","j","","9","9","9","true","false","true","both pre & post","LEFT","RIGHT","j","1","false","","","",""
"","html-keyboard-response","392","509402","0.0-682.0","s90ueqos","2560","1440","","","","","","","","","","","null","+","Fixation - short","","null","","","","","","","","","","","","","","","","",""
"","html-keyboard-response","393","509916","0.0-683.0","s90ueqos","","","","","","","","","","","","","513","jey","Diagnostic trial","","f","","9","10","9","true","false","false","both pre & post","LEFT","LEFT","f","1","true","","","",""
"","html-keyboard-response","394","510672","0.0-686.0","s90ueqos","2560","1440","","","","","","","","","","","null","+","Fixation - short","","null","","","","","","","","","","","","","","","","",""
"","html-keyboard-response","395","511139","0.0-687.0","s90ueqos","","","","","","","","","","","","","467","jey","Inducer trial","","j","","9","","","","true","","","","","f","0","","false","LEFT","",""
"","call-function","396","511140","0.0-689.0-0.0","s90ueqos","","","","","","","","","","","","","","","","","","","","","","","","","","","","","","","","","",""
"","html-keyboard-response","397","511452","0.0-689.0-1.0","s90ueqos","2560","1440","","","","","","","","","","","null","Wrong","Feedback","","null","","","","","","","","","","","","","","","","",""
"","call-function","398","511453","0.0-689.0-2.0","s90ueqos","","","","","","","","","","","","","","","","","","","","","","","","","","","","","","","","","",""
"","html-keyboard-response","399","512216","0.0-690.0","s90ueqos","2560","1440","","","","","","","","","","","null","+","Fixation - short","","null","","","","","","","","","","","","","","","","",""
"","html-keyboard-response","400","515822","0.0-691.0","s90ueqos","","","","","","","","","","","","","3604","If ume press RIGHT | If gso press LEFT","Inducer instructions",""," ","","10","","","","","","","","","","","","","","",""
"","html-keyboard-response","401","516586","0.0-692.0","s90ueqos","2560","1440","","","","","","","","","","","null","+","Fixation - short","","null","","","","","","","","","","","","","","","","",""
"","html-keyboard-response","402","517838","0.0-693.0","s90ueqos","","","","","","","","","","","","","1251","gso","Diagnostic trial","","f","","10","0","5","false","false","false","both pre & post","LEFT","LEFT","f","1","true","","","",""
"","html-keyboard-response","403","518590","0.0-696.0","s90ueqos","2560","1440","","","","","","","","","","","null","+","Fixation - short","","null","","","","","","","","","","","","","","","","",""
"","html-keyboard-response","404","519377","0.0-697.0","s90ueqos","","","","","","","","","","","","","785","ume","Diagnostic trial","","j","","10","1","5","false","false","true","both pre & post","RIGHT","RIGHT","j","1","true","","","",""
"","html-keyboard-response","405","520133","0.0-700.0","s90ueqos","2560","1440","","","","","","","","","","","null","+","Fixation - short","","null","","","","","","","","","","","","","","","","",""
"","html-keyboard-response","406","520836","0.0-701.0","s90ueqos","","","","","","","","","","","","","702","gso","Diagnostic trial","","f","","10","2","5","false","false","false","both pre & post","LEFT","LEFT","f","1","true","","","",""
"","html-keyboard-response","407","521600","0.0-704.0","s90ueqos","2560","1440","","","","","","","","","","","null","+","Fixation - short","","null","","","","","","","","","","","","","","","","",""
"","html-keyboard-response","408","522261","0.0-705.0","s90ueqos","","","","","","","","","","","","","661","gso","Diagnostic trial","","j","","10","3","5","false","false","true","both pre & post","LEFT","RIGHT","j","1","false","","","",""
"","html-keyboard-response","409","523028","0.0-708.0","s90ueqos","2560","1440","","","","","","","","","","","null","+","Fixation - short","","null","","","","","","","","","","","","","","","","",""
"","html-keyboard-response","410","523573","0.0-709.0","s90ueqos","","","","","","","","","","","","","545","gso","Diagnostic trial","","j","","10","4","5","false","false","true","both pre & post","LEFT","RIGHT","j","1","false","","","",""
"","html-keyboard-response","411","524333","0.0-712.0","s90ueqos","2560","1440","","","","","","","","","","","null","+","Fixation - short","","null","","","","","","","","","","","","","","","","",""
"","canvas-keyboard-response","412","525592","0.0-713.0","s90ueqos","","","","","","","","","","","","","null","Cue","Cue","","null","","10","4","","","false","","","","","","","","","","",""
"","html-keyboard-response","413","526353","0.0-714.0","s90ueqos","2560","1440","","","","","","","","","","","null","+","Fixation - short","","null","","","","","","","","","","","","","","","","",""
"","html-keyboard-response","414","526884","0.0-715.0","s90ueqos","","","","","","","","","","","","","530","gso","Diagnostic trial","","f","","10","5","5","true","false","false","both pre & post","LEFT","LEFT","f","1","true","","","",""
"","html-keyboard-response","415","527644","0.0-718.0","s90ueqos","2560","1440","","","","","","","","","","","null","+","Fixation - short","","null","","","","","","","","","","","","","","","","",""
"","html-keyboard-response","416","529653","0.0-719.0","s90ueqos","","","","","","","","","","","","","null","ume","Diagnostic trial","","null","","10","6","5","true","false","false","both pre & post","RIGHT","LEFT","f","NaN","false","","","",""
"","call-function","417","529653","0.0-720.0-0.0","s90ueqos","","","","","","","","","","","","","","","","","","","","","","","","","","","","","","","","","",""
"","html-keyboard-response","418","529965","0.0-720.0-1.0","s90ueqos","2560","1440","","","","","","","","","","","null","Slow","Feedback","","null","","","","","","","","","","","","","","","","",""
"","call-function","419","529966","0.0-720.0-2.0","s90ueqos","","","","","","","","","","","","","","","","","","","","","","","","","","","","","","","","","",""
"","html-keyboard-response","420","530728","0.0-722.0","s90ueqos","2560","1440","","","","","","","","","","","null","+","Fixation - short","","null","","","","","","","","","","","","","","","","",""
"","html-keyboard-response","421","531628","0.0-723.0","s90ueqos","","","","","","","","","","","","","898","gso","Diagnostic trial","","f","","10","7","5","true","false","false","both pre & post","LEFT","LEFT","f","1","true","","","",""
"","html-keyboard-response","422","532390","0.0-726.0","s90ueqos","2560","1440","","","","","","","","","","","null","+","Fixation - short","","null","","","","","","","","","","","","","","","","",""
"","html-keyboard-response","423","532816","0.0-727.0","s90ueqos","","","","","","","","","","","","","426","ume","Diagnostic trial","","f","","10","8","5","true","false","false","both pre & post","RIGHT","LEFT","f","1","false","","","",""
"","html-keyboard-response","424","533570","0.0-730.0","s90ueqos","2560","1440","","","","","","","","","","","null","+","Fixation - short","","null","","","","","","","","","","","","","","","","",""
"","html-keyboard-response","425","534233","0.0-731.0","s90ueqos","","","","","","","","","","","","","662","ume","Inducer trial","","j","","10","","","","true","","","","","j","1","","false","RIGHT","",""
"","html-keyboard-response","426","534995","0.0-734.0","s90ueqos","2560","1440","","","","","","","","","","","null","+","Fixation - short","","null","","","","","","","","","","","","","","","","",""
"","html-keyboard-response","427","537987","0.0-735.0","s90ueqos","","","","","","","","","","","","","2990","If sjn press RIGHT | If epy press LEFT","Inducer instructions",""," ","","11","","","","","","","","","","","","","","",""
"","html-keyboard-response","428","538752","0.0-736.0","s90ueqos","2560","1440","","","","","","","","","","","null","+","Fixation - short","","null","","","","","","","","","","","","","","","","",""
"","html-keyboard-response","429","539625","0.0-737.0","s90ueqos","","","","","","","","","","","","","872","epy","Diagnostic trial","","f","","11","0","5","false","false","false","both pre & post","LEFT","LEFT","f","1","true","","","",""
"","html-keyboard-response","430","540387","0.0-740.0","s90ueqos","2560","1440","","","","","","","","","","","null","+","Fixation - short","","null","","","","","","","","","","","","","","","","",""
"","html-keyboard-response","431","541156","0.0-741.0","s90ueqos","","","","","","","","","","","","","769","epy","Diagnostic trial","","j","","11","1","5","false","false","true","both pre & post","LEFT","RIGHT","j","1","false","","","",""
"","html-keyboard-response","432","541922","0.0-744.0","s90ueqos","2560","1440","","","","","","","","","","","null","+","Fixation - short","","null","","","","","","","","","","","","","","","","",""
"","html-keyboard-response","433","542388","0.0-745.0","s90ueqos","","","","","","","","","","","","","465","sjn","Diagnostic trial","","j","","11","2","5","false","false","true","both pre & post","RIGHT","RIGHT","j","1","true","","","",""
"","html-keyboard-response","434","543145","0.0-748.0","s90ueqos","2560","1440","","","","","","","","","","","null","+","Fixation - short","","null","","","","","","","","","","","","","","","","",""
"","html-keyboard-response","435","543677","0.0-749.0","s90ueqos","","","","","","","","","","","","","530","sjn","Diagnostic trial","","j","","11","3","5","false","false","true","both pre & post","RIGHT","RIGHT","j","1","true","","","",""
"","html-keyboard-response","436","544437","0.0-752.0","s90ueqos","2560","1440","","","","","","","","","","","null","+","Fixation - short","","null","","","","","","","","","","","","","","","","",""
"","html-keyboard-response","437","545042","0.0-753.0","s90ueqos","","","","","","","","","","","","","604","epy","Diagnostic trial","","f","","11","4","5","false","false","false","both pre & post","LEFT","LEFT","f","1","true","","","",""
"","html-keyboard-response","438","545802","0.0-756.0","s90ueqos","2560","1440","","","","","","","","","","","null","+","Fixation - short","","null","","","","","","","","","","","","","","","","",""
"","canvas-keyboard-response","439","547070","0.0-757.0","s90ueqos","","","","","","","","","","","","","null","Cue","Cue","","null","","11","4","","","false","","","","","","","","","","",""
"","html-keyboard-response","440","547835","0.0-758.0","s90ueqos","2560","1440","","","","","","","","","","","null","+","Fixation - short","","null","","","","","","","","","","","","","","","","",""
"","html-keyboard-response","441","548872","0.0-759.0","s90ueqos","","","","","","","","","","","","","1036","sjn","Diagnostic trial","","f","","11","5","5","true","false","false","both pre & post","RIGHT","LEFT","f","1","false","","","",""
"","html-keyboard-response","442","549632","0.0-762.0","s90ueqos","2560","1440","","","","","","","","","","","null","+","Fixation - short","","null","","","","","","","","","","","","","","","","",""
"","html-keyboard-response","443","550636","0.0-763.0","s90ueqos","","","","","","","","","","","","","1003","sjn","Inducer trial","","j","","11","","","","true","","","","","j","1","","false","RIGHT","",""
"","html-keyboard-response","444","551401","0.0-766.0","s90ueqos","2560","1440","","","","","","","","","","","null","+","Fixation - short","","null","","","","","","","","","","","","","","","","",""
"","html-keyboard-response","445","554618","0.0-767.0","s90ueqos","","","","","","","","","","","","","3216","If cer press RIGHT | If ila press LEFT","Inducer instructions",""," ","","12","","","","","","","","","","","","","","",""
"","html-keyboard-response","446","555373","0.0-768.0","s90ueqos","2560","1440","","","","","","","","","","","null","+","Fixation - short","","null","","","","","","","","","","","","","","","","",""
"","html-keyboard-response","447","555998","0.0-769.0","s90ueqos","","","","","","","","","","","","","624","ila","Diagnostic trial","","j","","12","0","7","false","false","true","both pre & post","LEFT","RIGHT","j","1","false","","","",""
"","html-keyboard-response","448","556764","0.0-772.0","s90ueqos","2560","1440","","","","","","","","","","","null","+","Fixation - short","","null","","","","","","","","","","","","","","","","",""
"","html-keyboard-response","449","557213","0.0-773.0","s90ueqos","","","","","","","","","","","","","448","ila","Diagnostic trial","","j","","12","1","7","false","false","true","both pre & post","LEFT","RIGHT","j","1","false","","","",""
"","html-keyboard-response","450","557967","0.0-776.0","s90ueqos","2560","1440","","","","","","","","","","","null","+","Fixation - short","","null","","","","","","","","","","","","","","","","",""
"","html-keyboard-response","451","558528","0.0-777.0","s90ueqos","","","","","","","","","","","","","560","cer","Diagnostic trial","","f","","12","2","7","false","false","false","both pre & post","RIGHT","LEFT","f","1","false","","","",""
"","html-keyboard-response","452","559285","0.0-780.0","s90ueqos","2560","1440","","","","","","","","","","","null","+","Fixation - short","","null","","","","","","","","","","","","","","","","",""
"","html-keyboard-response","453","559775","0.0-781.0","s90ueqos","","","","","","","","","","","","","489","ila","Diagnostic trial","","j","","12","3","7","false","false","true","both pre & post","LEFT","RIGHT","j","1","false","","","",""
"","html-keyboard-response","454","560533","0.0-784.0","s90ueqos","2560","1440","","","","","","","","","","","null","+","Fixation - short","","null","","","","","","","","","","","","","","","","",""
"","html-keyboard-response","455","560992","0.0-785.0","s90ueqos","","","","","","","","","","","","","458","ila","Diagnostic trial","","j","","12","4","7","false","false","true","both pre & post","LEFT","RIGHT","j","1","false","","","",""
"","html-keyboard-response","456","561755","0.0-788.0","s90ueqos","2560","1440","","","","","","","","","","","null","+","Fixation - short","","null","","","","","","","","","","","","","","","","",""
