"value","trial_type","trial_index","time_elapsed","internal_node_id","id","width","height","webaudio","browser","browser_version","mobile","os","fullscreen","vsync_rate","webcam","microphone","view_history","rt","stimulus","trial_info","success","response","exp_parameters","inducer_run","diagnostic_run","cue_num","post_cue","inducer_trial","italic","forced_equal_run","correct_inducer_response_side","correct_diag_response_side","correct_response_key","correct_response","congruent","force_equal","correct_indu_response_side","accuracy","interactive"
"","call-function","0","8","0.0-0.0","ytanbwko","","","","","","","","","","","","","","","","","","","","","","","","","","","","","","","","","",""
"","browser-check","1","258","0.0-1.0","ytanbwko","2048","1037","true","firefox","124.0.0","false","Windows 10","true","244.9","true","false","","","","","","","","","","","","","","","","","","","","","","",""
"","instructions","2","26411","0.0-2.0","ytanbwko","","","","","","","","","","","","[{""page_index"":0,""viewing_time"":19706},{""page_index"":1,""viewing_time"":3748},{""page_index"":2,""viewing_time"":2698}]","26152","The experiment and consent","The experiment and consent","","","","","","","","","","","","","","","","","","",""
"","fullscreen","3","1961956","0.0-3.0","ytanbwko","","","","","","","","","","","","","1934533","","Full screen","true","","","","","","","","","","","","","","","","","",""
"","instructions","4","1979535","0.0-4.0","ytanbwko","","","","","","","","","","","","[{""page_index"":0,""viewing_time"":10707},{""page_index"":1,""viewing_time"":6870}]","17578","Instructions","Basic overview explanation","","","","","","","","","","","","","","","","","","",""
"","html-keyboard-response","5","1987270","0.0-5.0","ytanbwko","","","","","","","","","","","","","6223","If italic press RIGHT | If upright press LEFT","Diagnostic instructions",""," ","{""debug"":false,""skip_instructions"":false,""skip_practice"":false,""save_local_data"":false,""studu_name"":""exp2"",""default_background_colour"":""#cccccc"",""wrong_response_colour"":""#d22d2d"",""instruction_delay"":20000,""trial_duration"":2000,""short_fixation"":750,""long_fixation"":1500,""wrong_response_delay"":300,""too_slow_delay"":300,""instruction_font_size"":""24px"",""general_font_size"":""42px"",""fixation_size"":""48px"",""allowed_responses"":[""f"",""j""],""cue_min_length"":0,""cue_max_length"":4,""tot_post_cue_len"":72,""cue_colour"":""red"",""cue_shape"":""Triangle"",""cue_size"":70,""cue_duration"":1250,""avg_number_of_cues"":3,""inducer_colour"":""blue"",""number_of_inducers"":24,""pre_cue_italic_forced_equal"":true,""post_cue_italic_forced_equal"":true,""prac_diagnostic_rounds"":16,""prac_inducer_rounds"":6,""prac_cue_rounds"":16,""prac_post_cue_num"":3}","","","","","","","","","","","","","","","",""
"","html-keyboard-response","6","1988033","0.0-6.0","ytanbwko","2048","1152","","","","","","","","","","","null","+","Fixation - short","","null","","","","","","","","","","","","","","","","",""
"","html-keyboard-response","7","1989201","0.0-7.0","ytanbwko","","","","","","","","","","","","","1168","kho","Diagnostic practice","","j","","Diagnostic practice","0","-84","true","false","true","prac equal","LEFT","RIGHT","j","1","false","","","",""
"","html-keyboard-response","8","1989954","0.0-10.0","ytanbwko","2048","1152","","","","","","","","","","","null","+","Fixation - short","","null","","","","","","","","","","","","","","","","",""
"","html-keyboard-response","9","1990489","0.0-11.0","ytanbwko","","","","","","","","","","","","","533","kho","Diagnostic practice","","f","","Diagnostic practice","1","-84","true","false","false","prac equal","LEFT","LEFT","f","1","true","","","",""
"","html-keyboard-response","10","1991244","0.0-14.0","ytanbwko","2048","1152","","","","","","","","","","","null","+","Fixation - short","","null","","","","","","","","","","","","","","","","",""
"","html-keyboard-response","11","1991841","0.0-15.0","ytanbwko","","","","","","","","","","","","","595","bgi","Diagnostic practice","","f","","Diagnostic practice","2","-84","true","false","false","prac equal","RIGHT","LEFT","f","1","false","","","",""
"","html-keyboard-response","12","1992592","0.0-18.0","ytanbwko","2048","1152","","","","","","","","","","","null","+","Fixation - short","","null","","","","","","","","","","","","","","","","",""
"","html-keyboard-response","13","1992947","0.0-19.0","ytanbwko","","","","","","","","","","","","","355","kho","Diagnostic practice","","f","","Diagnostic practice","3","-84","true","false","false","prac equal","LEFT","LEFT","f","1","true","","","",""
"","html-keyboard-response","14","1993703","0.0-22.0","ytanbwko","2048","1152","","","","","","","","","","","null","+","Fixation - short","","null","","","","","","","","","","","","","","","","",""
"","html-keyboard-response","15","1994016","0.0-23.0","ytanbwko","","","","","","","","","","","","","311","kho","Diagnostic practice","","f","","Diagnostic practice","4","-84","true","false","false","prac equal","LEFT","LEFT","f","1","true","","","",""
"","html-keyboard-response","16","1994775","0.0-26.0","ytanbwko","2048","1152","","","","","","","","","","","null","+","Fixation - short","","null","","","","","","","","","","","","","","","","",""
"","html-keyboard-response","17","1995165","0.0-27.0","ytanbwko","","","","","","","","","","","","","388","bgi","Diagnostic practice","","j","","Diagnostic practice","5","-84","true","false","true","prac equal","RIGHT","RIGHT","j","1","true","","","",""
"","html-keyboard-response","18","1995941","0.0-30.0","ytanbwko","2048","1152","","","","","","","","","","","null","+","Fixation - short","","null","","","","","","","","","","","","","","","","",""
"","html-keyboard-response","19","1996341","0.0-31.0","ytanbwko","","","","","","","","","","","","","400","bgi","Diagnostic practice","","j","","Diagnostic practice","6","-84","true","false","false","prac equal","RIGHT","LEFT","f","0","false","","","",""
"","call-function","20","1996342","0.0-33.0-0.0","ytanbwko","","","","","","","","","","","","","","","","","","","","","","","","","","","","","","","","","",""
"","html-keyboard-response","21","1996653","0.0-33.0-1.0","ytanbwko","2048","1152","","","","","","","","","","","null","Wrong","Feedback","","null","","","","","","","","","","","","","","","","",""
"","call-function","22","1996653","0.0-33.0-2.0","ytanbwko","","","","","","","","","","","","","","","","","","","","","","","","","","","","","","","","","",""
"","html-keyboard-response","23","1997407","0.0-34.0","ytanbwko","2048","1152","","","","","","","","","","","null","+","Fixation - short","","null","","","","","","","","","","","","","","","","",""
"","html-keyboard-response","24","1997913","0.0-35.0","ytanbwko","","","","","","","","","","","","","505","kho","Diagnostic practice","","j","","Diagnostic practice","7","-84","true","false","true","prac equal","LEFT","RIGHT","j","1","false","","","",""
"","html-keyboard-response","25","1998673","0.0-38.0","ytanbwko","2048","1152","","","","","","","","","","","null","+","Fixation - short","","null","","","","","","","","","","","","","","","","",""
"","html-keyboard-response","26","1999038","0.0-39.0","ytanbwko","","","","","","","","","","","","","365","bgi","Diagnostic practice","","j","","Diagnostic practice","8","-84","true","false","true","prac equal","RIGHT","RIGHT","j","1","true","","","",""
"","html-keyboard-response","27","1999802","0.0-42.0","ytanbwko","2048","1152","","","","","","","","","","","null","+","Fixation - short","","null","","","","","","","","","","","","","","","","",""
"","html-keyboard-response","28","2000137","0.0-43.0","ytanbwko","","","","","","","","","","","","","334","bgi","Diagnostic practice","","j","","Diagnostic practice","9","-84","true","false","true","prac equal","RIGHT","RIGHT","j","1","true","","","",""
"","html-keyboard-response","29","2000901","0.0-46.0","ytanbwko","2048","1152","","","","","","","","","","","null","+","Fixation - short","","null","","","","","","","","","","","","","","","","",""
"","html-keyboard-response","30","2001258","0.0-47.0","ytanbwko","","","","","","","","","","","","","356","kho","Diagnostic practice","","f","","Diagnostic practice","10","-84","true","false","false","prac equal","LEFT","LEFT","f","1","true","","","",""
"","html-keyboard-response","31","2002018","0.0-50.0","ytanbwko","2048","1152","","","","","","","","","","","null","+","Fixation - short","","null","","","","","","","","","","","","","","","","",""
"","html-keyboard-response","32","2002417","0.0-51.0","ytanbwko","","","","","","","","","","","","","399","bgi","Diagnostic practice","","j","","Diagnostic practice","11","-84","true","false","true","prac equal","RIGHT","RIGHT","j","1","true","","","",""
"","html-keyboard-response","33","2003182","0.0-54.0","ytanbwko","2048","1152","","","","","","","","","","","null","+","Fixation - short","","null","","","","","","","","","","","","","","","","",""
"","html-keyboard-response","34","2003740","0.0-55.0","ytanbwko","","","","","","","","","","","","","558","kho","Diagnostic practice","","j","","Diagnostic practice","12","-84","true","false","true","prac equal","LEFT","RIGHT","j","1","false","","","",""
"","html-keyboard-response","35","2004492","0.0-58.0","ytanbwko","2048","1152","","","","","","","","","","","null","+","Fixation - short","","null","","","","","","","","","","","","","","","","",""
"","html-keyboard-response","36","2004929","0.0-59.0","ytanbwko","","","","","","","","","","","","","437","kho","Diagnostic practice","","f","","Diagnostic practice","13","-84","true","false","false","prac equal","LEFT","LEFT","f","1","true","","","",""
"","html-keyboard-response","37","2005688","0.0-62.0","ytanbwko","2048","1152","","","","","","","","","","","null","+","Fixation - short","","null","","","","","","","","","","","","","","","","",""
"","html-keyboard-response","38","2006320","0.0-63.0","ytanbwko","","","","","","","","","","","","","631","bgi","Diagnostic practice","","f","","Diagnostic practice","14","-84","true","false","false","prac equal","RIGHT","LEFT","f","1","false","","","",""
"","html-keyboard-response","39","2007083","0.0-66.0","ytanbwko","2048","1152","","","","","","","","","","","null","+","Fixation - short","","null","","","","","","","","","","","","","","","","",""
"","html-keyboard-response","40","2007450","0.0-67.0","ytanbwko","","","","","","","","","","","","","365","bgi","Diagnostic practice","","f","","Diagnostic practice","15","-84","true","false","true","prac equal","RIGHT","RIGHT","j","0","true","","","",""
"","call-function","41","2007450","0.0-69.0-0.0","ytanbwko","","","","","","","","","","","","","","","","","","","","","","","","","","","","","","","","","",""
"","html-keyboard-response","42","2007766","0.0-69.0-1.0","ytanbwko","2048","1152","","","","","","","","","","","null","Wrong","Feedback","","null","","","","","","","","","","","","","","","","",""
"","call-function","43","2007767","0.0-69.0-2.0","ytanbwko","","","","","","","","","","","","","","","","","","","","","","","","","","","","","","","","","",""
"","html-keyboard-response","44","2008530","0.0-70.0","ytanbwko","2048","1152","","","","","","","","","","","null","+","Fixation - short","","null","","","","","","","","","","","","","","","","",""
"","instructions","45","2016207","0.0-71.0","ytanbwko","","","","","","","","","","","","[{""page_index"":0,""viewing_time"":7677}]","7677","Instructions","Final experiment explanation","","","","","","","","","","","","","","","","","","",""
"","html-keyboard-response","46","2021272","0.0-72.0","ytanbwko","","","","","","","","","","","","","3375","If hlb press RIGHT | If ois press LEFT","Inducer practice",""," ","","Practice","","","","","","","","","","","","","","",""
"","html-keyboard-response","47","2022038","0.0-73.0","ytanbwko","2048","1152","","","","","","","","","","","null","+","Fixation - short","","null","","","","","","","","","","","","","","","","",""
"","html-keyboard-response","48","2022537","0.0-74.0","ytanbwko","","","","","","","","","","","","","499","ois","Inducer practice","","f","","Practice","","","","true","","","","","f","1","","true","LEFT","",""
"","html-keyboard-response","49","2023298","0.0-77.0","ytanbwko","2048","1152","","","","","","","","","","","null","+","Fixation - short","","null","","","","","","","","","","","","","","","","",""
"","html-keyboard-response","50","2027395","0.0-78.0","ytanbwko","","","","","","","","","","","","","4096","If ydi press RIGHT | If epy press LEFT","Inducer practice",""," ","","Practice","","","","","","","","","","","","","","",""
"","html-keyboard-response","51","2028157","0.0-79.0","ytanbwko","2048","1152","","","","","","","","","","","null","+","Fixation - short","","null","","","","","","","","","","","","","","","","",""
"","html-keyboard-response","52","2028922","0.0-80.0","ytanbwko","","","","","","","","","","","","","765","epy","Inducer practice","","f","","Practice","","","","true","","","","","f","1","","true","LEFT","",""
"","html-keyboard-response","53","2029686","0.0-83.0","ytanbwko","2048","1152","","","","","","","","","","","null","+","Fixation - short","","null","","","","","","","","","","","","","","","","",""
"","html-keyboard-response","54","2031281","0.0-84.0","ytanbwko","","","","","","","","","","","","","1593","If uus press RIGHT | If jcr press LEFT","Inducer practice",""," ","","Practice","","","","","","","","","","","","","","",""
"","html-keyboard-response","55","2032033","0.0-85.0","ytanbwko","2048","1152","","","","","","","","","","","null","+","Fixation - short","","null","","","","","","","","","","","","","","","","",""
"","html-keyboard-response","56","2032920","0.0-86.0","ytanbwko","","","","","","","","","","","","","887","jcr","Inducer practice","","f","","Practice","","","","true","","","","","f","1","","true","LEFT","",""
"","html-keyboard-response","57","2033679","0.0-89.0","ytanbwko","2048","1152","","","","","","","","","","","null","+","Fixation - short","","null","","","","","","","","","","","","","","","","",""
"","html-keyboard-response","58","2034767","0.0-90.0","ytanbwko","","","","","","","","","","","","","1087","If gdn press RIGHT | If pcm press LEFT","Inducer practice",""," ","","Practice","","","","","","","","","","","","","","",""
"","html-keyboard-response","59","2035527","0.0-91.0","ytanbwko","2048","1152","","","","","","","","","","","null","+","Fixation - short","","null","","","","","","","","","","","","","","","","",""
"","html-keyboard-response","60","2035937","0.0-92.0","ytanbwko","","","","","","","","","","","","","409","gdn","Inducer practice","","j","","Practice","","","","true","","","","","j","1","","true","RIGHT","",""
"","html-keyboard-response","61","2036778","0.0-95.0","ytanbwko","2048","1152","","","","","","","","","","","null","+","Fixation - short","","null","","","","","","","","","","","","","","","","",""
"","html-keyboard-response","62","2037723","0.0-96.0","ytanbwko","","","","","","","","","","","","","945","If lpn press RIGHT | If fuc press LEFT","Inducer practice",""," ","","Practice","","","","","","","","","","","","","","",""
"","html-keyboard-response","63","2038479","0.0-97.0","ytanbwko","2048","1152","","","","","","","","","","","null","+","Fixation - short","","null","","","","","","","","","","","","","","","","",""
"","html-keyboard-response","64","2038876","0.0-98.0","ytanbwko","","","","","","","","","","","","","397","lpn","Inducer practice","","j","","Practice","","","","true","","","","","j","1","","true","RIGHT","",""
"","html-keyboard-response","65","2039627","0.0-101.0","ytanbwko","2048","1152","","","","","","","","","","","null","+","Fixation - short","","null","","","","","","","","","","","","","","","","",""
"","html-keyboard-response","66","2040315","0.0-102.0","ytanbwko","","","","","","","","","","","","","688","If iei press RIGHT | If imm press LEFT","Inducer practice",""," ","","Practice","","","","","","","","","","","","","","",""
"","html-keyboard-response","67","2041070","0.0-103.0","ytanbwko","2048","1152","","","","","","","","","","","null","+","Fixation - short","","null","","","","","","","","","","","","","","","","",""
"","html-keyboard-response","68","2041485","0.0-104.0","ytanbwko","","","","","","","","","","","","","416","iei","Inducer practice","","j","","Practice","","","","true","","","","","j","1","","true","RIGHT","",""
"","html-keyboard-response","69","2042246","0.0-107.0","ytanbwko","2048","1152","","","","","","","","","","","null","+","Fixation - short","","null","","","","","","","","","","","","","","","","",""
"","instructions","70","2054719","0.0-108.0","ytanbwko","","","","","","","","","","","","[{""page_index"":0,""viewing_time"":12474}]","12474","Instructions","Final experiment explanation","","","","","","","","","","","","","","","","","","",""
"","html-keyboard-response","71","2057756","0.0-109.0","ytanbwko","","","","","","","","","","","","","1525","If ccx press RIGHT | If cui press LEFT","Cue practice",""," ","","Practice","","","","","","","","","","","","","","",""
"","html-keyboard-response","72","2058518","0.0-110.0","ytanbwko","2048","1152","","","","","","","","","","","null","+","Fixation - short","","null","","","","","","","","","","","","","","","","",""
"","html-keyboard-response","73","2058881","0.0-111.0","ytanbwko","","","","","","","","","","","","","362","ccx","Cue practice","","j","","Practice","0","13","false","false","true","both pre & post","RIGHT","RIGHT","j","1","true","","","",""
"","html-keyboard-response","74","2059635","0.0-114.0","ytanbwko","2048","1152","","","","","","","","","","","null","+","Fixation - short","","null","","","","","","","","","","","","","","","","",""
"","html-keyboard-response","75","2060579","0.0-115.0","ytanbwko","","","","","","","","","","","","","944","cui","Cue practice","","f","","Practice","1","13","false","false","false","both pre & post","LEFT","LEFT","f","1","true","","","",""
"","html-keyboard-response","76","2061339","0.0-118.0","ytanbwko","2048","1152","","","","","","","","","","","null","+","Fixation - short","","null","","","","","","","","","","","","","","","","",""
"","html-keyboard-response","77","2061874","0.0-119.0","ytanbwko","","","","","","","","","","","","","534","cui","Cue practice","","f","","Practice","2","13","false","false","false","both pre & post","LEFT","LEFT","f","1","true","","","",""
"","html-keyboard-response","78","2062630","0.0-122.0","ytanbwko","2048","1152","","","","","","","","","","","null","+","Fixation - short","","null","","","","","","","","","","","","","","","","",""
"","html-keyboard-response","79","2063022","0.0-123.0","ytanbwko","","","","","","","","","","","","","392","ccx","Cue practice","","j","","Practice","3","13","false","false","true","both pre & post","RIGHT","RIGHT","j","1","true","","","",""
"","html-keyboard-response","80","2063782","0.0-126.0","ytanbwko","2048","1152","","","","","","","","","","","null","+","Fixation - short","","null","","","","","","","","","","","","","","","","",""
"","html-keyboard-response","81","2064236","0.0-127.0","ytanbwko","","","","","","","","","","","","","455","cui","Cue practice","","f","","Practice","4","13","false","false","false","both pre & post","LEFT","LEFT","f","1","true","","","",""
"","html-keyboard-response","82","2064990","0.0-130.0","ytanbwko","2048","1152","","","","","","","","","","","null","+","Fixation - short","","null","","","","","","","","","","","","","","","","",""
"","html-keyboard-response","83","2065355","0.0-131.0","ytanbwko","","","","","","","","","","","","","365","cui","Cue practice","","f","","Practice","5","13","false","false","true","both pre & post","LEFT","RIGHT","j","0","false","","","",""
"","call-function","84","2065355","0.0-133.0-0.0","ytanbwko","","","","","","","","","","","","","","","","","","","","","","","","","","","","","","","","","",""
"","html-keyboard-response","85","2065671","0.0-133.0-1.0","ytanbwko","2048","1152","","","","","","","","","","","null","Wrong","Feedback","","null","","","","","","","","","","","","","","","","",""
"","call-function","86","2065672","0.0-133.0-2.0","ytanbwko","","","","","","","","","","","","","","","","","","","","","","","","","","","","","","","","","",""
"","html-keyboard-response","87","2066434","0.0-134.0","ytanbwko","2048","1152","","","","","","","","","","","null","+","Fixation - short","","null","","","","","","","","","","","","","","","","",""
"","html-keyboard-response","88","2066814","0.0-135.0","ytanbwko","","","","","","","","","","","","","381","ccx","Cue practice","","j","","Practice","6","13","false","false","true","both pre & post","RIGHT","RIGHT","j","1","true","","","",""
"","html-keyboard-response","89","2067567","0.0-138.0","ytanbwko","2048","1152","","","","","","","","","","","null","+","Fixation - short","","null","","","","","","","","","","","","","","","","",""
"","html-keyboard-response","90","2068061","0.0-139.0","ytanbwko","","","","","","","","","","","","","494","cui","Cue practice","","f","","Practice","7","13","false","false","false","both pre & post","LEFT","LEFT","f","1","true","","","",""
"","html-keyboard-response","91","2068828","0.0-142.0","ytanbwko","2048","1152","","","","","","","","","","","null","+","Fixation - short","","null","","","","","","","","","","","","","","","","",""
"","html-keyboard-response","92","2069200","0.0-143.0","ytanbwko","","","","","","","","","","","","","372","cui","Cue practice","","f","","Practice","8","13","false","false","true","both pre & post","LEFT","RIGHT","j","0","false","","","",""
"","call-function","93","2069200","0.0-145.0-0.0","ytanbwko","","","","","","","","","","","","","","","","","","","","","","","","","","","","","","","","","",""
"","html-keyboard-response","94","2069514","0.0-145.0-1.0","ytanbwko","2048","1152","","","","","","","","","","","null","Wrong","Feedback","","null","","","","","","","","","","","","","","","","",""
"","call-function","95","2069514","0.0-145.0-2.0","ytanbwko","","","","","","","","","","","","","","","","","","","","","","","","","","","","","","","","","",""
"","html-keyboard-response","96","2070279","0.0-146.0","ytanbwko","2048","1152","","","","","","","","","","","null","+","Fixation - short","","null","","","","","","","","","","","","","","","","",""
"","html-keyboard-response","97","2070845","0.0-147.0","ytanbwko","","","","","","","","","","","","","566","ccx","Cue practice","","j","","Practice","9","13","false","false","false","both pre & post","RIGHT","LEFT","f","0","false","","","",""
"","call-function","98","2070845","0.0-149.0-0.0","ytanbwko","","","","","","","","","","","","","","","","","","","","","","","","","","","","","","","","","",""
"","html-keyboard-response","99","2071149","0.0-149.0-1.0","ytanbwko","2048","1152","","","","","","","","","","","null","Wrong","Feedback","","null","","","","","","","","","","","","","","","","",""
"","call-function","100","2071150","0.0-149.0-2.0","ytanbwko","","","","","","","","","","","","","","","","","","","","","","","","","","","","","","","","","",""
"","html-keyboard-response","101","2071908","0.0-150.0","ytanbwko","2048","1152","","","","","","","","","","","null","+","Fixation - short","","null","","","","","","","","","","","","","","","","",""
"","html-keyboard-response","102","2072575","0.0-151.0","ytanbwko","","","","","","","","","","","","","666","ccx","Cue practice","","f","","Practice","10","13","false","false","true","both pre & post","RIGHT","RIGHT","j","0","true","","","",""
"","call-function","103","2072575","0.0-153.0-0.0","ytanbwko","","","","","","","","","","","","","","","","","","","","","","","","","","","","","","","","","",""
"","html-keyboard-response","104","2072888","0.0-153.0-1.0","ytanbwko","2048","1152","","","","","","","","","","","null","Wrong","Feedback","","null","","","","","","","","","","","","","","","","",""
"","call-function","105","2072888","0.0-153.0-2.0","ytanbwko","","","","","","","","","","","","","","","","","","","","","","","","","","","","","","","","","",""
"","html-keyboard-response","106","2073654","0.0-154.0","ytanbwko","2048","1152","","","","","","","","","","","null","+","Fixation - short","","null","","","","","","","","","","","","","","","","",""
"","html-keyboard-response","107","2074219","0.0-155.0","ytanbwko","","","","","","","","","","","","","564","ccx","Cue practice","","j","","Practice","11","13","false","false","true","both pre & post","RIGHT","RIGHT","j","1","true","","","",""
"","html-keyboard-response","108","2074973","0.0-158.0","ytanbwko","2048","1152","","","","","","","","","","","null","+","Fixation - short","","null","","","","","","","","","","","","","","","","",""
"","html-keyboard-response","109","2075585","0.0-159.0","ytanbwko","","","","","","","","","","","","","611","cui","Cue practice","","f","","Practice","12","13","false","false","false","both pre & post","LEFT","LEFT","f","1","true","","","",""
"","html-keyboard-response","110","2076339","0.0-162.0","ytanbwko","2048","1152","","","","","","","","","","","null","+","Fixation - short","","null","","","","","","","","","","","","","","","","",""
"","canvas-keyboard-response","111","2077592","0.0-163.0","ytanbwko","","","","","","","","","","","","","null","Cue","Cue","","null","","Practice","12","","","false","","","","","","","","","","",""
"","html-keyboard-response","112","2078356","0.0-164.0","ytanbwko","2048","1152","","","","","","","","","","","null","+","Fixation - short","","null","","","","","","","","","","","","","","","","",""
"","html-keyboard-response","113","2079608","0.0-165.0","ytanbwko","","","","","","","","","","","","","1252","ccx","Cue practice","","j","","Practice","13","13","true","false","true","both pre & post","RIGHT","RIGHT","j","1","true","","","",""
"","html-keyboard-response","114","2080371","0.0-168.0","ytanbwko","2048","1152","","","","","","","","","","","null","+","Fixation - short","","null","","","","","","","","","","","","","","","","",""
"","html-keyboard-response","115","2080960","0.0-169.0","ytanbwko","","","","","","","","","","","","","589","cui","Cue practice","","f","","Practice","14","13","true","false","false","both pre & post","LEFT","LEFT","f","1","true","","","",""
"","html-keyboard-response","116","2081719","0.0-172.0","ytanbwko","2048","1152","","","","","","","","","","","null","+","Fixation - short","","null","","","","","","","","","","","","","","","","",""
"","html-keyboard-response","117","2082493","0.0-173.0","ytanbwko","","","","","","","","","","","","","774","ccx","Cue practice","","j","","Practice","15","13","true","false","true","both pre & post","RIGHT","RIGHT","j","1","true","","","",""
"","html-keyboard-response","118","2083254","0.0-176.0","ytanbwko","2048","1152","","","","","","","","","","","null","+","Fixation - short","","null","","","","","","","","","","","","","","","","",""
"","html-keyboard-response","119","2084470","0.0-177.0","ytanbwko","","","","","","","","","","","","","1215","cui","Inducer practice","","f","","Practice","","","","true","","","","","f","1","","false","LEFT","",""
"","html-keyboard-response","120","2085222","0.0-180.0","ytanbwko","2048","1152","","","","","","","","","","","null","+","Fixation - short","","null","","","","","","","","","","","","","","","","",""
"","instructions","121","2088861","0.0-181.0","ytanbwko","","","","","","","","","","","","[{""page_index"":0,""viewing_time"":3638}]","3638","End practice","End of practice","","","","","","","","","","","","","","","","","","",""
"","html-keyboard-response","122","2091899","0.0-182.0","ytanbwko","2048","1152","","","","","","","","","","","null","+","Fixation - long","","null","","","","","","","","","","","","","","","","",""
"","html-keyboard-response","123","2093827","0.0-183.0","ytanbwko","","","","","","","","","","","","","1929","If wab press RIGHT | If gso press LEFT","Inducer instructions",""," ","","0","","","","","","","","","","","","","","",""
"","html-keyboard-response","124","2094579","0.0-184.0","ytanbwko","2048","1152","","","","","","","","","","","null","+","Fixation - short","","null","","","","","","","","","","","","","","","","",""
"","html-keyboard-response","125","2095205","0.0-185.0","ytanbwko","","","","","","","","","","","","","625","wab","Diagnostic trial","","j","","0","0","4","false","false","true","both pre & post","RIGHT","RIGHT","j","1","true","","","",""
"","html-keyboard-response","126","2095966","0.0-188.0","ytanbwko","2048","1152","","","","","","","","","","","null","+","Fixation - short","","null","","","","","","","","","","","","","","","","",""
"","html-keyboard-response","127","2096547","0.0-189.0","ytanbwko","","","","","","","","","","","","","581","gso","Diagnostic trial","","f","","0","1","4","false","false","false","both pre & post","LEFT","LEFT","f","1","true","","","",""
"","html-keyboard-response","128","2097318","0.0-192.0","ytanbwko","2048","1152","","","","","","","","","","","null","+","Fixation - short","","null","","","","","","","","","","","","","","","","",""
"","html-keyboard-response","129","2097656","0.0-193.0","ytanbwko","","","","","","","","","","","","","338","wab","Diagnostic trial","","j","","0","2","4","false","false","false","both pre & post","RIGHT","LEFT","f","0","false","","","",""
"","call-function","130","2097657","0.0-195.0-0.0","ytanbwko","","","","","","","","","","","","","","","","","","","","","","","","","","","","","","","","","",""
"","html-keyboard-response","131","2097966","0.0-195.0-1.0","ytanbwko","2048","1152","","","","","","","","","","","null","Wrong","Feedback","","null","","","","","","","","","","","","","","","","",""
"","call-function","132","2097967","0.0-195.0-2.0","ytanbwko","","","","","","","","","","","","","","","","","","","","","","","","","","","","","","","","","",""
"","html-keyboard-response","133","2098727","0.0-196.0","ytanbwko","2048","1152","","","","","","","","","","","null","+","Fixation - short","","null","","","","","","","","","","","","","","","","",""
"","html-keyboard-response","134","2099954","0.0-197.0","ytanbwko","","","","","","","","","","","","","1227","gso","Diagnostic trial","","f","","0","3","4","false","false","false","both pre & post","LEFT","LEFT","f","1","true","","","",""
"","html-keyboard-response","135","2100711","0.0-200.0","ytanbwko","2048","1152","","","","","","","","","","","null","+","Fixation - short","","null","","","","","","","","","","","","","","","","",""
"","canvas-keyboard-response","136","2101963","0.0-201.0","ytanbwko","","","","","","","","","","","","","null","Cue","Cue","","null","","0","3","","","false","","","","","","","","","","",""
"","html-keyboard-response","137","2102724","0.0-202.0","ytanbwko","2048","1152","","","","","","","","","","","null","+","Fixation - short","","null","","","","","","","","","","","","","","","","",""
"","html-keyboard-response","138","2103128","0.0-203.0","ytanbwko","","","","","","","","","","","","","404","wab","Diagnostic trial","","j","","0","4","4","true","false","true","both pre & post","RIGHT","RIGHT","j","1","true","","","",""
"","html-keyboard-response","139","2103967","0.0-206.0","ytanbwko","2048","1152","","","","","","","","","","","null","+","Fixation - short","","null","","","","","","","","","","","","","","","","",""
"","html-keyboard-response","140","2104365","0.0-207.0","ytanbwko","","","","","","","","","","","","","398","wab","Diagnostic trial","","j","","0","5","4","true","false","true","both pre & post","RIGHT","RIGHT","j","1","true","","","",""
"","html-keyboard-response","141","2105119","0.0-210.0","ytanbwko","2048","1152","","","","","","","","","","","null","+","Fixation - short","","null","","","","","","","","","","","","","","","","",""
"","html-keyboard-response","142","2105817","0.0-211.0","ytanbwko","","","","","","","","","","","","","698","gso","Diagnostic trial","","f","","0","6","4","true","false","true","both pre & post","LEFT","RIGHT","j","0","false","","","",""
"","call-function","143","2105818","0.0-213.0-0.0","ytanbwko","","","","","","","","","","","","","","","","","","","","","","","","","","","","","","","","","",""
"","html-keyboard-response","144","2106128","0.0-213.0-1.0","ytanbwko","2048","1152","","","","","","","","","","","null","Wrong","Feedback","","null","","","","","","","","","","","","","","","","",""
"","call-function","145","2106128","0.0-213.0-2.0","ytanbwko","","","","","","","","","","","","","","","","","","","","","","","","","","","","","","","","","",""
"","html-keyboard-response","146","2106887","0.0-214.0","ytanbwko","2048","1152","","","","","","","","","","","null","+","Fixation - short","","null","","","","","","","","","","","","","","","","",""
"","html-keyboard-response","147","2108022","0.0-215.0","ytanbwko","","","","","","","","","","","","","1135","wab","Diagnostic trial","","f","","0","7","4","true","false","false","both pre & post","RIGHT","LEFT","f","1","false","","","",""
"","html-keyboard-response","148","2108776","0.0-218.0","ytanbwko","2048","1152","","","","","","","","","","","null","+","Fixation - short","","null","","","","","","","","","","","","","","","","",""
"","html-keyboard-response","149","2110431","0.0-219.0","ytanbwko","","","","","","","","","","","","","1656","gso","Inducer trial","","f","","0","","","","true","","","","","f","1","","false","LEFT","",""
"","html-keyboard-response","150","2111186","0.0-222.0","ytanbwko","2048","1152","","","","","","","","","","","null","+","Fixation - short","","null","","","","","","","","","","","","","","","","",""
"","html-keyboard-response","151","2115325","0.0-223.0","ytanbwko","","","","","","","","","","","","","4137","If hrc press RIGHT | If otr press LEFT","Inducer instructions",""," ","","1","","","","","","","","","","","","","","",""
"","html-keyboard-response","152","2116081","0.0-224.0","ytanbwko","2048","1152","","","","","","","","","","","null","+","Fixation - short","","null","","","","","","","","","","","","","","","","",""
"","html-keyboard-response","153","2116661","0.0-225.0","ytanbwko","","","","","","","","","","","","","580","otr","Diagnostic trial","","j","","1","0","6","false","false","true","both pre & post","LEFT","RIGHT","j","1","false","","","",""
"","html-keyboard-response","154","2117413","0.0-228.0","ytanbwko","2048","1152","","","","","","","","","","","null","+","Fixation - short","","null","","","","","","","","","","","","","","","","",""
"","html-keyboard-response","155","2117990","0.0-229.0","ytanbwko","","","","","","","","","","","","","577","hrc","Diagnostic trial","","f","","1","1","6","false","false","false","both pre & post","RIGHT","LEFT","f","1","false","","","",""
"","html-keyboard-response","156","2118741","0.0-232.0","ytanbwko","2048","1152","","","","","","","","","","","null","+","Fixation - short","","null","","","","","","","","","","","","","","","","",""
"","html-keyboard-response","157","2119395","0.0-233.0","ytanbwko","","","","","","","","","","","","","654","otr","Diagnostic trial","","f","","1","2","6","false","false","false","both pre & post","LEFT","LEFT","f","1","true","","","",""
"","html-keyboard-response","158","2120147","0.0-236.0","ytanbwko","2048","1152","","","","","","","","","","","null","+","Fixation - short","","null","","","","","","","","","","","","","","","","",""
"","html-keyboard-response","159","2121221","0.0-237.0","ytanbwko","","","","","","","","","","","","","1074","otr","Diagnostic trial","","j","","1","3","6","false","false","true","both pre & post","LEFT","RIGHT","j","1","false","","","",""
"","html-keyboard-response","160","2121976","0.0-240.0","ytanbwko","2048","1152","","","","","","","","","","","null","+","Fixation - short","","null","","","","","","","","","","","","","","","","",""
"","html-keyboard-response","161","2122608","0.0-241.0","ytanbwko","","","","","","","","","","","","","632","hrc","Diagnostic trial","","f","","1","4","6","false","false","false","both pre & post","RIGHT","LEFT","f","1","false","","","",""
"","html-keyboard-response","162","2123388","0.0-244.0","ytanbwko","2048","1152","","","","","","","","","","","null","+","Fixation - short","","null","","","","","","","","","","","","","","","","",""
"","html-keyboard-response","163","2123936","0.0-245.0","ytanbwko","","","","","","","","","","","","","548","otr","Diagnostic trial","","j","","1","5","6","false","false","true","both pre & post","LEFT","RIGHT","j","1","false","","","",""
"","html-keyboard-response","164","2124687","0.0-248.0","ytanbwko","2048","1152","","","","","","","","","","","null","+","Fixation - short","","null","","","","","","","","","","","","","","","","",""
"","canvas-keyboard-response","165","2125942","0.0-249.0","ytanbwko","","","","","","","","","","","","","null","Cue","Cue","","null","","1","5","","","false","","","","","","","","","","",""
"","html-keyboard-response","166","2126700","0.0-250.0","ytanbwko","2048","1152","","","","","","","","","","","null","+","Fixation - short","","null","","","","","","","","","","","","","","","","",""
"","html-keyboard-response","167","2128183","0.0-251.0","ytanbwko","","","","","","","","","","","","","1482","otr","Diagnostic trial","","j","","1","6","6","true","false","true","both pre & post","LEFT","RIGHT","j","1","false","","","",""
"","html-keyboard-response","168","2128944","0.0-254.0","ytanbwko","2048","1152","","","","","","","","","","","null","+","Fixation - short","","null","","","","","","","","","","","","","","","","",""
"","html-keyboard-response","169","2129660","0.0-255.0","ytanbwko","","","","","","","","","","","","","716","otr","Diagnostic trial","","f","","1","7","6","true","false","false","both pre & post","LEFT","LEFT","f","1","true","","","",""
"","html-keyboard-response","170","2130415","0.0-258.0","ytanbwko","2048","1152","","","","","","","","","","","null","+","Fixation - short","","null","","","","","","","","","","","","","","","","",""
"","html-keyboard-response","171","2131098","0.0-259.0","ytanbwko","","","","","","","","","","","","","682","otr","Diagnostic trial","","j","","1","8","6","true","false","true","both pre & post","LEFT","RIGHT","j","1","false","","","",""
"","html-keyboard-response","172","2131863","0.0-262.0","ytanbwko","2048","1152","","","","","","","","","","","null","+","Fixation - short","","null","","","","","","","","","","","","","","","","",""
"","html-keyboard-response","173","2132359","0.0-263.0","ytanbwko","","","","","","","","","","","","","495","otr","Diagnostic trial","","f","","1","9","6","true","false","false","both pre & post","LEFT","LEFT","f","1","true","","","",""
"","html-keyboard-response","174","2133122","0.0-266.0","ytanbwko","2048","1152","","","","","","","","","","","null","+","Fixation - short","","null","","","","","","","","","","","","","","","","",""
"","html-keyboard-response","175","2134380","0.0-267.0","ytanbwko","","","","","","","","","","","","","1257","hrc","Inducer trial","","j","","1","","","","true","","","","","j","1","","false","RIGHT","",""
"","html-keyboard-response","176","2135137","0.0-270.0","ytanbwko","2048","1152","","","","","","","","","","","null","+","Fixation - short","","null","","","","","","","","","","","","","","","","",""
"","html-keyboard-response","177","2136390","0.0-271.0","ytanbwko","","","","","","","","","","","","","1253","If ivr press RIGHT | If psl press LEFT","Inducer instructions",""," ","","2","","","","","","","","","","","","","","",""
"","html-keyboard-response","178","2137150","0.0-272.0","ytanbwko","2048","1152","","","","","","","","","","","null","+","Fixation - short","","null","","","","","","","","","","","","","","","","",""
"","html-keyboard-response","179","2137682","0.0-273.0","ytanbwko","","","","","","","","","","","","","531","psl","Diagnostic trial","","j","","2","0","6","false","false","true","both pre & post","LEFT","RIGHT","j","1","false","","","",""
"","html-keyboard-response","180","2138437","0.0-276.0","ytanbwko","2048","1152","","","","","","","","","","","null","+","Fixation - short","","null","","","","","","","","","","","","","","","","",""
"","html-keyboard-response","181","2138858","0.0-277.0","ytanbwko","","","","","","","","","","","","","421","psl","Diagnostic trial","","f","","2","1","6","false","false","false","both pre & post","LEFT","LEFT","f","1","true","","","",""
"","html-keyboard-response","182","2139614","0.0-280.0","ytanbwko","2048","1152","","","","","","","","","","","null","+","Fixation - short","","null","","","","","","","","","","","","","","","","",""
"","html-keyboard-response","183","2140468","0.0-281.0","ytanbwko","","","","","","","","","","","","","853","ivr","Diagnostic trial","","f","","2","2","6","false","false","false","both pre & post","RIGHT","LEFT","f","1","false","","","",""
"","html-keyboard-response","184","2141226","0.0-284.0","ytanbwko","2048","1152","","","","","","","","","","","null","+","Fixation - short","","null","","","","","","","","","","","","","","","","",""
"","html-keyboard-response","185","2141714","0.0-285.0","ytanbwko","","","","","","","","","","","","","488","ivr","Diagnostic trial","","j","","2","3","6","false","false","true","both pre & post","RIGHT","RIGHT","j","1","true","","","",""
"","html-keyboard-response","186","2142494","0.0-288.0","ytanbwko","2048","1152","","","","","","","","","","","null","+","Fixation - short","","null","","","","","","","","","","","","","","","","",""
"","html-keyboard-response","187","2143006","0.0-289.0","ytanbwko","","","","","","","","","","","","","511","psl","Diagnostic trial","","j","","2","4","6","false","false","true","both pre & post","LEFT","RIGHT","j","1","false","","","",""
"","html-keyboard-response","188","2143765","0.0-292.0","ytanbwko","2048","1152","","","","","","","","","","","null","+","Fixation - short","","null","","","","","","","","","","","","","","","","",""
"","html-keyboard-response","189","2144170","0.0-293.0","ytanbwko","","","","","","","","","","","","","405","ivr","Diagnostic trial","","f","","2","5","6","false","false","false","both pre & post","RIGHT","LEFT","f","1","false","","","",""
"","html-keyboard-response","190","2144926","0.0-296.0","ytanbwko","2048","1152","","","","","","","","","","","null","+","Fixation - short","","null","","","","","","","","","","","","","","","","",""
"","canvas-keyboard-response","191","2146180","0.0-297.0","ytanbwko","","","","","","","","","","","","","null","Cue","Cue","","null","","2","5","","","false","","","","","","","","","","",""
"","html-keyboard-response","192","2146939","0.0-298.0","ytanbwko","2048","1152","","","","","","","","","","","null","+","Fixation - short","","null","","","","","","","","","","","","","","","","",""
"","html-keyboard-response","193","2147435","0.0-299.0","ytanbwko","","","","","","","","","","","","","494","ivr","Diagnostic trial","","f","","2","6","6","true","false","false","both pre & post","RIGHT","LEFT","f","1","false","","","",""
"","html-keyboard-response","194","2148193","0.0-302.0","ytanbwko","2048","1152","","","","","","","","","","","null","+","Fixation - short","","null","","","","","","","","","","","","","","","","",""
"","html-keyboard-response","195","2148782","0.0-303.0","ytanbwko","","","","","","","","","","","","","588","ivr","Diagnostic trial","","j","","2","7","6","true","false","true","both pre & post","RIGHT","RIGHT","j","1","true","","","",""
"","html-keyboard-response","196","2149541","0.0-306.0","ytanbwko","2048","1152","","","","","","","","","","","null","+","Fixation - short","","null","","","","","","","","","","","","","","","","",""
"","html-keyboard-response","197","2150143","0.0-307.0","ytanbwko","","","","","","","","","","","","","602","psl","Diagnostic trial","","f","","2","8","6","true","false","false","both pre & post","LEFT","LEFT","f","1","true","","","",""
"","html-keyboard-response","198","2150907","0.0-310.0","ytanbwko","2048","1152","","","","","","","","","","","null","+","Fixation - short","","null","","","","","","","","","","","","","","","","",""
"","html-keyboard-response","199","2151905","0.0-311.0","ytanbwko","","","","","","","","","","","","","999","ivr","Diagnostic trial","","j","","2","9","6","true","false","true","both pre & post","RIGHT","RIGHT","j","1","true","","","",""
"","html-keyboard-response","200","2152670","0.0-314.0","ytanbwko","2048","1152","","","","","","","","","","","null","+","Fixation - short","","null","","","","","","","","","","","","","","","","",""
"","html-keyboard-response","201","2153563","0.0-315.0","ytanbwko","","","","","","","","","","","","","893","psl","Inducer trial","","f","","2","","","","true","","","","","f","1","","false","LEFT","",""
"","html-keyboard-response","202","2154327","0.0-318.0","ytanbwko","2048","1152","","","","","","","","","","","null","+","Fixation - short","","null","","","","","","","","","","","","","","","","",""
"","html-keyboard-response","203","2155597","0.0-319.0","ytanbwko","","","","","","","","","","","","","1269","If aor press RIGHT | If swr press LEFT","Inducer instructions",""," ","","3","","","","","","","","","","","","","","",""
"","html-keyboard-response","204","2156348","0.0-320.0","ytanbwko","2048","1152","","","","","","","","","","","null","+","Fixation - short","","null","","","","","","","","","","","","","","","","",""
"","html-keyboard-response","205","2157101","0.0-321.0","ytanbwko","","","","","","","","","","","","","754","swr","Diagnostic trial","","f","","3","0","12","false","false","false","both pre & post","LEFT","LEFT","f","1","true","","","",""
"","html-keyboard-response","206","2157862","0.0-324.0","ytanbwko","2048","1152","","","","","","","","","","","null","+","Fixation - short","","null","","","","","","","","","","","","","","","","",""
"","html-keyboard-response","207","2158353","0.0-325.0","ytanbwko","","","","","","","","","","","","","491","swr","Diagnostic trial","","j","","3","1","12","false","false","true","both pre & post","LEFT","RIGHT","j","1","false","","","",""
"","html-keyboard-response","208","2159115","0.0-328.0","ytanbwko","2048","1152","","","","","","","","","","","null","+","Fixation - short","","null","","","","","","","","","","","","","","","","",""
"","html-keyboard-response","209","2159437","0.0-329.0","ytanbwko","","","","","","","","","","","","","322","swr","Diagnostic trial","","j","","3","2","12","false","false","true","both pre & post","LEFT","RIGHT","j","1","false","","","",""
"","html-keyboard-response","210","2160200","0.0-332.0","ytanbwko","2048","1152","","","","","","","","","","","null","+","Fixation - short","","null","","","","","","","","","","","","","","","","",""
"","html-keyboard-response","211","2160552","0.0-333.0","ytanbwko","","","","","","","","","","","","","352","aor","Diagnostic trial","","f","","3","3","12","false","false","true","both pre & post","RIGHT","RIGHT","j","0","true","","","",""
"","call-function","212","2160552","0.0-335.0-0.0","ytanbwko","","","","","","","","","","","","","","","","","","","","","","","","","","","","","","","","","",""
"","html-keyboard-response","213","2160866","0.0-335.0-1.0","ytanbwko","2048","1152","","","","","","","","","","","null","Wrong","Feedback","","null","","","","","","","","","","","","","","","","",""
"","call-function","214","2160867","0.0-335.0-2.0","ytanbwko","","","","","","","","","","","","","","","","","","","","","","","","","","","","","","","","","",""
"","html-keyboard-response","215","2161624","0.0-336.0","ytanbwko","2048","1152","","","","","","","","","","","null","+","Fixation - short","","null","","","","","","","","","","","","","","","","",""
"","html-keyboard-response","216","2162066","0.0-337.0","ytanbwko","","","","","","","","","","","","","441","swr","Diagnostic trial","","f","","3","4","12","false","false","false","both pre & post","LEFT","LEFT","f","1","true","","","",""
"","html-keyboard-response","217","2162829","0.0-340.0","ytanbwko","2048","1152","","","","","","","","","","","null","+","Fixation - short","","null","","","","","","","","","","","","","","","","",""
"","html-keyboard-response","218","2163264","0.0-341.0","ytanbwko","","","","","","","","","","","","","435","swr","Diagnostic trial","","f","","3","5","12","false","false","false","both pre & post","LEFT","LEFT","f","1","true","","","",""
"","html-keyboard-response","219","2164026","0.0-344.0","ytanbwko","2048","1152","","","","","","","","","","","null","+","Fixation - short","","null","","","","","","","","","","","","","","","","",""
"","html-keyboard-response","220","2164406","0.0-345.0","ytanbwko","","","","","","","","","","","","","381","aor","Diagnostic trial","","j","","3","6","12","false","false","true","both pre & post","RIGHT","RIGHT","j","1","true","","","",""
"","html-keyboard-response","221","2165159","0.0-348.0","ytanbwko","2048","1152","","","","","","","","","","","null","+","Fixation - short","","null","","","","","","","","","","","","","","","","",""
"","html-keyboard-response","222","2165640","0.0-349.0","ytanbwko","","","","","","","","","","","","","480","swr","Diagnostic trial","","f","","3","7","12","false","false","false","both pre & post","LEFT","LEFT","f","1","true","","","",""
"","html-keyboard-response","223","2166403","0.0-352.0","ytanbwko","2048","1152","","","","","","","","","","","null","+","Fixation - short","","null","","","","","","","","","","","","","","","","",""
"","html-keyboard-response","224","2166905","0.0-353.0","ytanbwko","","","","","","","","","","","","","502","swr","Diagnostic trial","","j","","3","8","12","false","false","true","both pre & post","LEFT","RIGHT","j","1","false","","","",""
"","html-keyboard-response","225","2167657","0.0-356.0","ytanbwko","2048","1152","","","","","","","","","","","null","+","Fixation - short","","null","","","","","","","","","","","","","","","","",""
"","html-keyboard-response","226","2168181","0.0-357.0","ytanbwko","","","","","","","","","","","","","522","aor","Diagnostic trial","","f","","3","9","12","false","false","false","both pre & post","RIGHT","LEFT","f","1","false","","","",""
"","html-keyboard-response","227","2168946","0.0-360.0","ytanbwko","2048","1152","","","","","","","","","","","null","+","Fixation - short","","null","","","","","","","","","","","","","","","","",""
"","html-keyboard-response","228","2169271","0.0-361.0","ytanbwko","","","","","","","","","","","","","324","aor","Diagnostic trial","","f","","3","10","12","false","false","true","both pre & post","RIGHT","RIGHT","j","0","true","","","",""
"","call-function","229","2169271","0.0-363.0-0.0","ytanbwko","","","","","","","","","","","","","","","","","","","","","","","","","","","","","","","","","",""
"","html-keyboard-response","230","2169595","0.0-363.0-1.0","ytanbwko","2048","1152","","","","","","","","","","","null","Wrong","Feedback","","null","","","","","","","","","","","","","","","","",""
"","call-function","231","2169595","0.0-363.0-2.0","ytanbwko","","","","","","","","","","","","","","","","","","","","","","","","","","","","","","","","","",""
"","html-keyboard-response","232","2170350","0.0-364.0","ytanbwko","2048","1152","","","","","","","","","","","null","+","Fixation - short","","null","","","","","","","","","","","","","","","","",""
"","html-keyboard-response","233","2170883","0.0-365.0","ytanbwko","","","","","","","","","","","","","534","swr","Diagnostic trial","","f","","3","11","12","false","false","false","both pre & post","LEFT","LEFT","f","1","true","","","",""
"","html-keyboard-response","234","2171635","0.0-368.0","ytanbwko","2048","1152","","","","","","","","","","","null","+","Fixation - short","","null","","","","","","","","","","","","","","","","",""
"","canvas-keyboard-response","235","2172886","0.0-369.0","ytanbwko","","","","","","","","","","","","","null","Cue","Cue","","null","","3","11","","","false","","","","","","","","","","",""
"","html-keyboard-response","236","2173645","0.0-370.0","ytanbwko","2048","1152","","","","","","","","","","","null","+","Fixation - short","","null","","","","","","","","","","","","","","","","",""
"","html-keyboard-response","237","2174209","0.0-371.0","ytanbwko","","","","","","","","","","","","","563","swr","Diagnostic trial","","j","","3","12","12","true","false","false","both pre & post","LEFT","LEFT","f","0","true","","","",""
"","call-function","238","2174210","0.0-373.0-0.0","ytanbwko","","","","","","","","","","","","","","","","","","","","","","","","","","","","","","","","","",""
"","html-keyboard-response","239","2174512","0.0-373.0-1.0","ytanbwko","2048","1152","","","","","","","","","","","null","Wrong","Feedback","","null","","","","","","","","","","","","","","","","",""
"","call-function","240","2174513","0.0-373.0-2.0","ytanbwko","","","","","","","","","","","","","","","","","","","","","","","","","","","","","","","","","",""
"","html-keyboard-response","241","2175276","0.0-374.0","ytanbwko","2048","1152","","","","","","","","","","","null","+","Fixation - short","","null","","","","","","","","","","","","","","","","",""
"","html-keyboard-response","242","2175772","0.0-375.0","ytanbwko","","","","","","","","","","","","","494","swr","Diagnostic trial","","f","","3","13","12","true","false","false","both pre & post","LEFT","LEFT","f","1","true","","","",""
"","html-keyboard-response","243","2176533","0.0-378.0","ytanbwko","2048","1152","","","","","","","","","","","null","+","Fixation - short","","null","","","","","","","","","","","","","","","","",""
"","html-keyboard-response","244","2178314","0.0-379.0","ytanbwko","","","","","","","","","","","","","1781","swr","Inducer trial","","f","","3","","","","true","","","","","f","1","","false","LEFT","",""
"","html-keyboard-response","245","2179066","0.0-382.0","ytanbwko","2048","1152","","","","","","","","","","","null","+","Fixation - short","","null","","","","","","","","","","","","","","","","",""
"","html-keyboard-response","246","2180524","0.0-383.0","ytanbwko","","","","","","","","","","","","","1457","If lff press RIGHT | If vle press LEFT","Inducer instructions",""," ","","4","","","","","","","","","","","","","","",""
"","html-keyboard-response","247","2181283","0.0-384.0","ytanbwko","2048","1152","","","","","","","","","","","null","+","Fixation - short","","null","","","","","","","","","","","","","","","","",""
"","html-keyboard-response","248","2181678","0.0-385.0","ytanbwko","","","","","","","","","","","","","393","lff","Diagnostic trial","","f","","4","0","10","false","false","false","both pre & post","RIGHT","LEFT","f","1","false","","","",""
"","html-keyboard-response","249","2182429","0.0-388.0","ytanbwko","2048","1152","","","","","","","","","","","null","+","Fixation - short","","null","","","","","","","","","","","","","","","","",""
"","html-keyboard-response","250","2182831","0.0-389.0","ytanbwko","","","","","","","","","","","","","402","vle","Diagnostic trial","","j","","4","1","10","false","false","true","both pre & post","LEFT","RIGHT","j","1","false","","","",""
"","html-keyboard-response","251","2183590","0.0-392.0","ytanbwko","2048","1152","","","","","","","","","","","null","+","Fixation - short","","null","","","","","","","","","","","","","","","","",""
"","html-keyboard-response","252","2183974","0.0-393.0","ytanbwko","","","","","","","","","","","","","384","vle","Diagnostic trial","","j","","4","2","10","false","false","true","both pre & post","LEFT","RIGHT","j","1","false","","","",""
"","html-keyboard-response","253","2184740","0.0-396.0","ytanbwko","2048","1152","","","","","","","","","","","null","+","Fixation - short","","null","","","","","","","","","","","","","","","","",""
"","html-keyboard-response","254","2185187","0.0-397.0","ytanbwko","","","","","","","","","","","","","448","lff","Diagnostic trial","","f","","4","3","10","false","false","false","both pre & post","RIGHT","LEFT","f","1","false","","","",""
"","html-keyboard-response","255","2185975","0.0-400.0","ytanbwko","2048","1152","","","","","","","","","","","null","+","Fixation - short","","null","","","","","","","","","","","","","","","","",""
"","html-keyboard-response","256","2186399","0.0-401.0","ytanbwko","","","","","","","","","","","","","424","lff","Diagnostic trial","","j","","4","4","10","false","false","true","both pre & post","RIGHT","RIGHT","j","1","true","","","",""
"","html-keyboard-response","257","2187159","0.0-404.0","ytanbwko","2048","1152","","","","","","","","","","","null","+","Fixation - short","","null","","","","","","","","","","","","","","","","",""
"","html-keyboard-response","258","2187537","0.0-405.0","ytanbwko","","","","","","","","","","","","","378","lff","Diagnostic trial","","j","","4","5","10","false","false","false","both pre & post","RIGHT","LEFT","f","0","false","","","",""
"","call-function","259","2187538","0.0-407.0-0.0","ytanbwko","","","","","","","","","","","","","","","","","","","","","","","","","","","","","","","","","",""
"","html-keyboard-response","260","2187839","0.0-407.0-1.0","ytanbwko","2048","1152","","","","","","","","","","","null","Wrong","Feedback","","null","","","","","","","","","","","","","","","","",""
"","call-function","261","2187839","0.0-407.0-2.0","ytanbwko","","","","","","","","","","","","","","","","","","","","","","","","","","","","","","","","","",""
"","html-keyboard-response","262","2188604","0.0-408.0","ytanbwko","2048","1152","","","","","","","","","","","null","+","Fixation - short","","null","","","","","","","","","","","","","","","","",""
"","html-keyboard-response","263","2189141","0.0-409.0","ytanbwko","","","","","","","","","","","","","537","vle","Diagnostic trial","","j","","4","6","10","false","false","true","both pre & post","LEFT","RIGHT","j","1","false","","","",""
"","html-keyboard-response","264","2189897","0.0-412.0","ytanbwko","2048","1152","","","","","","","","","","","null","+","Fixation - short","","null","","","","","","","","","","","","","","","","",""
"","html-keyboard-response","265","2190422","0.0-413.0","ytanbwko","","","","","","","","","","","","","526","vle","Diagnostic trial","","f","","4","7","10","false","false","false","both pre & post","LEFT","LEFT","f","1","true","","","",""
"","html-keyboard-response","266","2191180","0.0-416.0","ytanbwko","2048","1152","","","","","","","","","","","null","+","Fixation - short","","null","","","","","","","","","","","","","","","","",""
"","html-keyboard-response","267","2191590","0.0-417.0","ytanbwko","","","","","","","","","","","","","410","vle","Diagnostic trial","","f","","4","8","10","false","false","false","both pre & post","LEFT","LEFT","f","1","true","","","",""
"","html-keyboard-response","268","2192344","0.0-420.0","ytanbwko","2048","1152","","","","","","","","","","","null","+","Fixation - short","","null","","","","","","","","","","","","","","","","",""
"","html-keyboard-response","269","2192730","0.0-421.0","ytanbwko","","","","","","","","","","","","","385","lff","Diagnostic trial","","j","","4","9","10","false","false","true","both pre & post","RIGHT","RIGHT","j","1","true","","","",""
"","html-keyboard-response","270","2193494","0.0-424.0","ytanbwko","2048","1152","","","","","","","","","","","null","+","Fixation - short","","null","","","","","","","","","","","","","","","","",""
"","canvas-keyboard-response","271","2194759","0.0-425.0","ytanbwko","","","","","","","","","","","","","null","Cue","Cue","","null","","4","9","","","false","","","","","","","","","","",""
"","html-keyboard-response","272","2195521","0.0-426.0","ytanbwko","2048","1152","","","","","","","","","","","null","+","Fixation - short","","null","","","","","","","","","","","","","","","","",""
"","html-keyboard-response","273","2196037","0.0-427.0","ytanbwko","","","","","","","","","","","","","515","vle","Diagnostic trial","","j","","4","10","10","true","false","true","both pre & post","LEFT","RIGHT","j","1","false","","","",""
"","html-keyboard-response","274","2196799","0.0-430.0","ytanbwko","2048","1152","","","","","","","","","","","null","+","Fixation - short","","null","","","","","","","","","","","","","","","","",""
"","html-keyboard-response","275","2197205","0.0-431.0","ytanbwko","","","","","","","","","","","","","406","lff","Diagnostic trial","","f","","4","11","10","true","false","false","both pre & post","RIGHT","LEFT","f","1","false","","","",""
"","html-keyboard-response","276","2197965","0.0-434.0","ytanbwko","2048","1152","","","","","","","","","","","null","+","Fixation - short","","null","","","","","","","","","","","","","","","","",""
"","html-keyboard-response","277","2198549","0.0-435.0","ytanbwko","","","","","","","","","","","","","584","lff","Diagnostic trial","","j","","4","12","10","true","false","true","both pre & post","RIGHT","RIGHT","j","1","true","","","",""
"","html-keyboard-response","278","2199315","0.0-438.0","ytanbwko","2048","1152","","","","","","","","","","","null","+","Fixation - short","","null","","","","","","","","","","","","","","","","",""
"","html-keyboard-response","279","2199996","0.0-439.0","ytanbwko","","","","","","","","","","","","","681","vle","Diagnostic trial","","f","","4","13","10","true","false","false","both pre & post","LEFT","LEFT","f","1","true","","","",""
"","html-keyboard-response","280","2200753","0.0-442.0","ytanbwko","2048","1152","","","","","","","","","","","null","+","Fixation - short","","null","","","","","","","","","","","","","","","","",""
"","html-keyboard-response","281","2202768","0.0-443.0","ytanbwko","","","","","","","","","","","","","null","vle","Inducer trial","","null","","4","","","","true","","","","","f","NaN","","false","LEFT","",""
"","call-function","282","2202768","0.0-444.0-0.0","ytanbwko","","","","","","","","","","","","","","","","","","","","","","","","","","","","","","","","","",""
"","html-keyboard-response","283","2203077","0.0-444.0-1.0","ytanbwko","2048","1152","","","","","","","","","","","null","Slow","Feedback","","null","","","","","","","","","","","","","","","","",""
"","call-function","284","2203077","0.0-444.0-2.0","ytanbwko","","","","","","","","","","","","","","","","","","","","","","","","","","","","","","","","","",""
"","html-keyboard-response","285","2203843","0.0-446.0","ytanbwko","2048","1152","","","","","","","","","","","null","+","Fixation - short","","null","","","","","","","","","","","","","","","","",""
"","html-keyboard-response","286","2205279","0.0-447.0","ytanbwko","","","","","","","","","","","","","1436","If adj press RIGHT | If quy press LEFT","Inducer instructions",""," ","","5","","","","","","","","","","","","","","",""
"","html-keyboard-response","287","2206030","0.0-448.0","ytanbwko","2048","1152","","","","","","","","","","","null","+","Fixation - short","","null","","","","","","","","","","","","","","","","",""
"","html-keyboard-response","288","2206542","0.0-449.0","ytanbwko","","","","","","","","","","","","","511","quy","Diagnostic trial","","j","","5","0","6","false","false","true","both pre & post","LEFT","RIGHT","j","1","false","","","",""
"","html-keyboard-response","289","2207299","0.0-452.0","ytanbwko","2048","1152","","","","","","","","","","","null","+","Fixation - short","","null","","","","","","","","","","","","","","","","",""
"","html-keyboard-response","290","2207804","0.0-453.0","ytanbwko","","","","","","","","","","","","","504","quy","Diagnostic trial","","f","","5","1","6","false","false","false","both pre & post","LEFT","LEFT","f","1","true","","","",""
"","html-keyboard-response","291","2208567","0.0-456.0","ytanbwko","2048","1152","","","","","","","","","","","null","+","Fixation - short","","null","","","","","","","","","","","","","","","","",""
"","html-keyboard-response","292","2209075","0.0-457.0","ytanbwko","","","","","","","","","","","","","507","quy","Diagnostic trial","","j","","5","2","6","false","false","true","both pre & post","LEFT","RIGHT","j","1","false","","","",""
"","html-keyboard-response","293","2209832","0.0-460.0","ytanbwko","2048","1152","","","","","","","","","","","null","+","Fixation - short","","null","","","","","","","","","","","","","","","","",""
"","html-keyboard-response","294","2210227","0.0-461.0","ytanbwko","","","","","","","","","","","","","394","quy","Diagnostic trial","","j","","5","3","6","false","false","true","both pre & post","LEFT","RIGHT","j","1","false","","","",""
"","html-keyboard-response","295","2210978","0.0-464.0","ytanbwko","2048","1152","","","","","","","","","","","null","+","Fixation - short","","null","","","","","","","","","","","","","","","","",""
"","html-keyboard-response","296","2211599","0.0-465.0","ytanbwko","","","","","","","","","","","","","620","quy","Diagnostic trial","","j","","5","4","6","false","false","true","both pre & post","LEFT","RIGHT","j","1","false","","","",""
"","html-keyboard-response","297","2212364","0.0-468.0","ytanbwko","2048","1152","","","","","","","","","","","null","+","Fixation - short","","null","","","","","","","","","","","","","","","","",""
"","html-keyboard-response","298","2212796","0.0-469.0","ytanbwko","","","","","","","","","","","","","433","adj","Diagnostic trial","","j","","5","5","6","false","false","true","both pre & post","RIGHT","RIGHT","j","1","true","","","",""
"","html-keyboard-response","299","2213558","0.0-472.0","ytanbwko","2048","1152","","","","","","","","","","","null","+","Fixation - short","","null","","","","","","","","","","","","","","","","",""
"","canvas-keyboard-response","300","2214909","0.0-473.0","ytanbwko","","","","","","","","","","","","","null","Cue","Cue","","null","","5","5","","","false","","","","","","","","","","",""
"","html-keyboard-response","301","2215674","0.0-474.0","ytanbwko","2048","1152","","","","","","","","","","","null","+","Fixation - short","","null","","","","","","","","","","","","","","","","",""
"","html-keyboard-response","302","2216145","0.0-475.0","ytanbwko","","","","","","","","","","","","","472","quy","Diagnostic trial","","j","","5","6","6","true","false","true","both pre & post","LEFT","RIGHT","j","1","false","","","",""
"","html-keyboard-response","303","2216933","0.0-478.0","ytanbwko","2048","1152","","","","","","","","","","","null","+","Fixation - short","","null","","","","","","","","","","","","","","","","",""
"","html-keyboard-response","304","2217467","0.0-479.0","ytanbwko","","","","","","","","","","","","","533","quy","Diagnostic trial","","j","","5","7","6","true","false","true","both pre & post","LEFT","RIGHT","j","1","false","","","",""
"","html-keyboard-response","305","2218219","0.0-482.0","ytanbwko","2048","1152","","","","","","","","","","","null","+","Fixation - short","","null","","","","","","","","","","","","","","","","",""
"","html-keyboard-response","306","2218673","0.0-483.0","ytanbwko","","","","","","","","","","","","","454","adj","Diagnostic trial","","j","","5","8","6","true","false","true","both pre & post","RIGHT","RIGHT","j","1","true","","","",""
"","html-keyboard-response","307","2219428","0.0-486.0","ytanbwko","2048","1152","","","","","","","","","","","null","+","Fixation - short","","null","","","","","","","","","","","","","","","","",""
"","html-keyboard-response","308","2219925","0.0-487.0","ytanbwko","","","","","","","","","","","","","497","quy","Diagnostic trial","","j","","5","9","6","true","false","true","both pre & post","LEFT","RIGHT","j","1","false","","","",""
"","html-keyboard-response","309","2220690","0.0-490.0","ytanbwko","2048","1152","","","","","","","","","","","null","+","Fixation - short","","null","","","","","","","","","","","","","","","","",""
"","html-keyboard-response","310","2221265","0.0-491.0","ytanbwko","","","","","","","","","","","","","574","adj","Inducer trial","","j","","5","","","","true","","","","","j","1","","false","RIGHT","",""
"","html-keyboard-response","311","2222019","0.0-494.0","ytanbwko","2048","1152","","","","","","","","","","","null","+","Fixation - short","","null","","","","","","","","","","","","","","","","",""
"","html-keyboard-response","312","2223006","0.0-495.0","ytanbwko","","","","","","","","","","","","","987","If vib press RIGHT | If cnl press LEFT","Inducer instructions",""," ","","6","","","","","","","","","","","","","","",""
"","html-keyboard-response","313","2223760","0.0-496.0","ytanbwko","2048","1152","","","","","","","","","","","null","+","Fixation - short","","null","","","","","","","","","","","","","","","","",""
"","html-keyboard-response","314","2224305","0.0-497.0","ytanbwko","","","","","","","","","","","","","543","cnl","Diagnostic trial","","f","","6","0","6","false","false","false","both pre & post","LEFT","LEFT","f","1","true","","","",""
"","html-keyboard-response","315","2225060","0.0-500.0","ytanbwko","2048","1152","","","","","","","","","","","null","+","Fixation - short","","null","","","","","","","","","","","","","","","","",""
"","html-keyboard-response","316","2225407","0.0-501.0","ytanbwko","","","","","","","","","","","","","346","cnl","Diagnostic trial","","f","","6","1","6","false","false","false","both pre & post","LEFT","LEFT","f","1","true","","","",""
"","html-keyboard-response","317","2226164","0.0-504.0","ytanbwko","2048","1152","","","","","","","","","","","null","+","Fixation - short","","null","","","","","","","","","","","","","","","","",""
"","html-keyboard-response","318","2226494","0.0-505.0","ytanbwko","","","","","","","","","","","","","330","cnl","Diagnostic trial","","f","","6","2","6","false","false","true","both pre & post","LEFT","RIGHT","j","0","false","","","",""
"","call-function","319","2226494","0.0-507.0-0.0","ytanbwko","","","","","","","","","","","","","","","","","","","","","","","","","","","","","","","","","",""
"","html-keyboard-response","320","2226800","0.0-507.0-1.0","ytanbwko","2048","1152","","","","","","","","","","","null","Wrong","Feedback","","null","","","","","","","","","","","","","","","","",""
"","call-function","321","2226800","0.0-507.0-2.0","ytanbwko","","","","","","","","","","","","","","","","","","","","","","","","","","","","","","","","","",""
"","html-keyboard-response","322","2227562","0.0-508.0","ytanbwko","2048","1152","","","","","","","","","","","null","+","Fixation - short","","null","","","","","","","","","","","","","","","","",""
"","html-keyboard-response","323","2228105","0.0-509.0","ytanbwko","","","","","","","","","","","","","542","vib","Diagnostic trial","","f","","6","3","6","false","false","false","both pre & post","RIGHT","LEFT","f","1","false","","","",""
"","html-keyboard-response","324","2228861","0.0-512.0","ytanbwko","2048","1152","","","","","","","","","","","null","+","Fixation - short","","null","","","","","","","","","","","","","","","","",""
"","html-keyboard-response","325","2229325","0.0-513.0","ytanbwko","","","","","","","","","","","","","464","vib","Diagnostic trial","","j","","6","4","6","false","false","true","both pre & post","RIGHT","RIGHT","j","1","true","","","",""
"","html-keyboard-response","326","2230083","0.0-516.0","ytanbwko","2048","1152","","","","","","","","","","","null","+","Fixation - short","","null","","","","","","","","","","","","","","","","",""
"","html-keyboard-response","327","2230423","0.0-517.0","ytanbwko","","","","","","","","","","","","","340","vib","Diagnostic trial","","j","","6","5","6","false","false","true","both pre & post","RIGHT","RIGHT","j","1","true","","","",""
"","html-keyboard-response","328","2231180","0.0-520.0","ytanbwko","2048","1152","","","","","","","","","","","null","+","Fixation - short","","null","","","","","","","","","","","","","","","","",""
"","canvas-keyboard-response","329","2232574","0.0-521.0","ytanbwko","","","","","","","","","","","","","null","Cue","Cue","","null","","6","5","","","false","","","","","","","","","","",""
"","html-keyboard-response","330","2233328","0.0-522.0","ytanbwko","2048","1152","","","","","","","","","","","null","+","Fixation - short","","null","","","","","","","","","","","","","","","","",""
"","html-keyboard-response","331","2233717","0.0-523.0","ytanbwko","","","","","","","","","","","","","388","vib","Diagnostic trial","","f","","6","6","6","true","false","false","both pre & post","RIGHT","LEFT","f","1","false","","","",""
"","html-keyboard-response","332","2234477","0.0-526.0","ytanbwko","2048","1152","","","","","","","","","","","null","+","Fixation - short","","null","","","","","","","","","","","","","","","","",""
"","html-keyboard-response","333","2235000","0.0-527.0","ytanbwko","","","","","","","","","","","","","522","vib","Diagnostic trial","","j","","6","7","6","true","false","true","both pre & post","RIGHT","RIGHT","j","1","true","","","",""
"","html-keyboard-response","334","2235760","0.0-530.0","ytanbwko","2048","1152","","","","","","","","","","","null","+","Fixation - short","","null","","","","","","","","","","","","","","","","",""
"","html-keyboard-response","335","2236386","0.0-531.0","ytanbwko","","","","","","","","","","","","","625","cnl","Diagnostic trial","","j","","6","8","6","true","false","true","both pre & post","LEFT","RIGHT","j","1","false","","","",""
"","html-keyboard-response","336","2237157","0.0-534.0","ytanbwko","2048","1152","","","","","","","","","","","null","+","Fixation - short","","null","","","","","","","","","","","","","","","","",""
"","html-keyboard-response","337","2237673","0.0-535.0","ytanbwko","","","","","","","","","","","","","515","vib","Inducer trial","","f","","6","","","","true","","","","","j","0","","false","RIGHT","",""
"","call-function","338","2237674","0.0-537.0-0.0","ytanbwko","","","","","","","","","","","","","","","","","","","","","","","","","","","","","","","","","",""
"","html-keyboard-response","339","2237980","0.0-537.0-1.0","ytanbwko","2048","1152","","","","","","","","","","","null","Wrong","Feedback","","null","","","","","","","","","","","","","","","","",""
"","call-function","340","2237981","0.0-537.0-2.0","ytanbwko","","","","","","","","","","","","","","","","","","","","","","","","","","","","","","","","","",""
"","html-keyboard-response","341","2238736","0.0-538.0","ytanbwko","2048","1152","","","","","","","","","","","null","+","Fixation - short","","null","","","","","","","","","","","","","","","","",""
"","html-keyboard-response","342","2239731","0.0-539.0","ytanbwko","","","","","","","","","","","","","994","If rrd press RIGHT | If dnc press LEFT","Inducer instructions",""," ","","7","","","","","","","","","","","","","","",""
"","html-keyboard-response","343","2240493","0.0-540.0","ytanbwko","2048","1152","","","","","","","","","","","null","+","Fixation - short","","null","","","","","","","","","","","","","","","","",""
"","html-keyboard-response","344","2241786","0.0-541.0","ytanbwko","","","","","","","","","","","","","1293","dnc","Diagnostic trial","","f","","7","0","4","false","false","false","both pre & post","LEFT","LEFT","f","1","true","","","",""
"","html-keyboard-response","345","2242586","0.0-544.0","ytanbwko","2048","1152","","","","","","","","","","","null","+","Fixation - short","","null","","","","","","","","","","","","","","","","",""
"","html-keyboard-response","346","2243239","0.0-545.0","ytanbwko","","","","","","","","","","","","","653","dnc","Diagnostic trial","","j","","7","1","4","false","false","true","both pre & post","LEFT","RIGHT","j","1","false","","","",""
"","html-keyboard-response","347","2243995","0.0-548.0","ytanbwko","2048","1152","","","","","","","","","","","null","+","Fixation - short","","null","","","","","","","","","","","","","","","","",""
"","html-keyboard-response","348","2244679","0.0-549.0","ytanbwko","","","","","","","","","","","","","684","dnc","Diagnostic trial","","f","","7","2","4","false","false","false","both pre & post","LEFT","LEFT","f","1","true","","","",""
"","html-keyboard-response","349","2245440","0.0-552.0","ytanbwko","2048","1152","","","","","","","","","","","null","+","Fixation - short","","null","","","","","","","","","","","","","","","","",""
"","html-keyboard-response","350","2246243","0.0-553.0","ytanbwko","","","","","","","","","","","","","801","rrd","Diagnostic trial","","f","","7","3","4","false","false","false","both pre & post","RIGHT","LEFT","f","1","false","","","",""
"","html-keyboard-response","351","2246999","0.0-556.0","ytanbwko","2048","1152","","","","","","","","","","","null","+","Fixation - short","","null","","","","","","","","","","","","","","","","",""
"","canvas-keyboard-response","352","2248250","0.0-557.0","ytanbwko","","","","","","","","","","","","","null","Cue","Cue","","null","","7","3","","","false","","","","","","","","","","",""
"","html-keyboard-response","353","2249006","0.0-558.0","ytanbwko","2048","1152","","","","","","","","","","","null","+","Fixation - short","","null","","","","","","","","","","","","","","","","",""
"","html-keyboard-response","354","2249565","0.0-559.0","ytanbwko","","","","","","","","","","","","","557","rrd","Diagnostic trial","","j","","7","4","4","true","false","false","both pre & post","RIGHT","LEFT","f","0","false","","","",""
"","call-function","355","2249565","0.0-561.0-0.0","ytanbwko","","","","","","","","","","","","","","","","","","","","","","","","","","","","","","","","","",""
"","html-keyboard-response","356","2249871","0.0-561.0-1.0","ytanbwko","2048","1152","","","","","","","","","","","null","Wrong","Feedback","","null","","","","","","","","","","","","","","","","",""
"","call-function","357","2249872","0.0-561.0-2.0","ytanbwko","","","","","","","","","","","","","","","","","","","","","","","","","","","","","","","","","",""
"","html-keyboard-response","358","2250627","0.0-562.0","ytanbwko","2048","1152","","","","","","","","","","","null","+","Fixation - short","","null","","","","","","","","","","","","","","","","",""
"","html-keyboard-response","359","2251195","0.0-563.0","ytanbwko","","","","","","","","","","","","","568","dnc","Diagnostic trial","","j","","7","5","4","true","false","true","both pre & post","LEFT","RIGHT","j","1","false","","","",""
"","html-keyboard-response","360","2251948","0.0-566.0","ytanbwko","2048","1152","","","","","","","","","","","null","+","Fixation - short","","null","","","","","","","","","","","","","","","","",""
"","html-keyboard-response","361","2253295","0.0-567.0","ytanbwko","","","","","","","","","","","","","1346","rrd","Diagnostic trial","","j","","7","6","4","true","false","true","both pre & post","RIGHT","RIGHT","j","1","true","","","",""
"","html-keyboard-response","362","2254050","0.0-570.0","ytanbwko","2048","1152","","","","","","","","","","","null","+","Fixation - short","","null","","","","","","","","","","","","","","","","",""
"","html-keyboard-response","363","2254790","0.0-571.0","ytanbwko","","","","","","","","","","","","","740","dnc","Diagnostic trial","","j","","7","7","4","true","false","true","both pre & post","LEFT","RIGHT","j","1","false","","","",""
"","html-keyboard-response","364","2255543","0.0-574.0","ytanbwko","2048","1152","","","","","","","","","","","null","+","Fixation - short","","null","","","","","","","","","","","","","","","","",""
"","html-keyboard-response","365","2256414","0.0-575.0","ytanbwko","","","","","","","","","","","","","869","dnc","Inducer trial","","f","","7","","","","true","","","","","f","1","","false","LEFT","",""
"","html-keyboard-response","366","2257171","0.0-578.0","ytanbwko","2048","1152","","","","","","","","","","","null","+","Fixation - short","","null","","","","","","","","","","","","","","","","",""
"","html-keyboard-response","367","2258051","0.0-579.0","ytanbwko","","","","","","","","","","","","","878","If ecl press RIGHT | If jup press LEFT","Inducer instructions",""," ","","8","","","","","","","","","","","","","","",""
"","html-keyboard-response","368","2258815","0.0-580.0","ytanbwko","2048","1152","","","","","","","","","","","null","+","Fixation - short","","null","","","","","","","","","","","","","","","","",""
"","html-keyboard-response","369","2259433","0.0-581.0","ytanbwko","","","","","","","","","","","","","618","jup","Diagnostic trial","","f","","8","0","8","false","false","false","both pre & post","LEFT","LEFT","f","1","true","","","",""
"","html-keyboard-response","370","2260193","0.0-584.0","ytanbwko","2048","1152","","","","","","","","","","","null","+","Fixation - short","","null","","","","","","","","","","","","","","","","",""
"","html-keyboard-response","371","2260552","0.0-585.0","ytanbwko","","","","","","","","","","","","","359","jup","Diagnostic trial","","f","","8","1","8","false","false","false","both pre & post","LEFT","LEFT","f","1","true","","","",""
"","html-keyboard-response","372","2261307","0.0-588.0","ytanbwko","2048","1152","","","","","","","","","","","null","+","Fixation - short","","null","","","","","","","","","","","","","","","","",""
"","html-keyboard-response","373","2261620","0.0-589.0","ytanbwko","","","","","","","","","","","","","313","jup","Diagnostic trial","","f","","8","2","8","false","false","false","both pre & post","LEFT","LEFT","f","1","true","","","",""
"","html-keyboard-response","374","2262375","0.0-592.0","ytanbwko","2048","1152","","","","","","","","","","","null","+","Fixation - short","","null","","","","","","","","","","","","","","","","",""
"","html-keyboard-response","375","2262932","0.0-593.0","ytanbwko","","","","","","","","","","","","","556","ecl","Diagnostic trial","","f","","8","3","8","false","false","false","both pre & post","RIGHT","LEFT","f","1","false","","","",""
"","html-keyboard-response","376","2263690","0.0-596.0","ytanbwko","2048","1152","","","","","","","","","","","null","+","Fixation - short","","null","","","","","","","","","","","","","","","","",""
"","html-keyboard-response","377","2264070","0.0-597.0","ytanbwko","","","","","","","","","","","","","380","jup","Diagnostic trial","","f","","8","4","8","false","false","false","both pre & post","LEFT","LEFT","f","1","true","","","",""
"","html-keyboard-response","378","2264835","0.0-600.0","ytanbwko","2048","1152","","","","","","","","","","","null","+","Fixation - short","","null","","","","","","","","","","","","","","","","",""
"","html-keyboard-response","379","2265276","0.0-601.0","ytanbwko","","","","","","","","","","","","","441","ecl","Diagnostic trial","","j","","8","5","8","false","false","true","both pre & post","RIGHT","RIGHT","j","1","true","","","",""
"","html-keyboard-response","380","2266027","0.0-604.0","ytanbwko","2048","1152","","","","","","","","","","","null","+","Fixation - short","","null","","","","","","","","","","","","","","","","",""
"","html-keyboard-response","381","2266411","0.0-605.0","ytanbwko","","","","","","","","","","","","","384","jup","Diagnostic trial","","f","","8","6","8","false","false","false","both pre & post","LEFT","LEFT","f","1","true","","","",""
"","html-keyboard-response","382","2267172","0.0-608.0","ytanbwko","2048","1152","","","","","","","","","","","null","+","Fixation - short","","null","","","","","","","","","","","","","","","","",""
"","html-keyboard-response","383","2267506","0.0-609.0","ytanbwko","","","","","","","","","","","","","333","jup","Diagnostic trial","","f","","8","7","8","false","false","false","both pre & post","LEFT","LEFT","f","1","true","","","",""
"","html-keyboard-response","384","2268259","0.0-612.0","ytanbwko","2048","1152","","","","","","","","","","","null","+","Fixation - short","","null","","","","","","","","","","","","","","","","",""
"","canvas-keyboard-response","385","2269515","0.0-613.0","ytanbwko","","","","","","","","","","","","","null","Cue","Cue","","null","","8","7","","","false","","","","","","","","","","",""
"","html-keyboard-response","386","2270276","0.0-614.0","ytanbwko","2048","1152","","","","","","","","","","","null","+","Fixation - short","","null","","","","","","","","","","","","","","","","",""
"","html-keyboard-response","387","2271254","0.0-615.0","ytanbwko","","","","","","","","","","","","","977","ecl","Inducer trial","","j","","8","","","","true","","","","","j","1","","false","RIGHT","",""
"","html-keyboard-response","388","2272005","0.0-618.0","ytanbwko","2048","1152","","","","","","","","","","","null","+","Fixation - short","","null","","","","","","","","","","","","","","","","",""
"","html-keyboard-response","389","2272798","0.0-619.0","ytanbwko","","","","","","","","","","","","","793","If jft press RIGHT | If bwe press LEFT","Inducer instructions",""," ","","9","","","","","","","","","","","","","","",""
"","html-keyboard-response","390","2273557","0.0-620.0","ytanbwko","2048","1152","","","","","","","","","","","null","+","Fixation - short","","null","","","","","","","","","","","","","","","","",""
"","html-keyboard-response","391","2273940","0.0-621.0","ytanbwko","","","","","","","","","","","","","383","bwe","Diagnostic trial","","j","","9","0","4","false","false","false","both pre & post","LEFT","LEFT","f","0","true","","","",""
"","call-function","392","2273940","0.0-623.0-0.0","ytanbwko","","","","","","","","","","","","","","","","","","","","","","","","","","","","","","","","","",""
"","html-keyboard-response","393","2274256","0.0-623.0-1.0","ytanbwko","2048","1152","","","","","","","","","","","null","Wrong","Feedback","","null","","","","","","","","","","","","","","","","",""
"","call-function","394","2274256","0.0-623.0-2.0","ytanbwko","","","","","","","","","","","","","","","","","","","","","","","","","","","","","","","","","",""
"","html-keyboard-response","395","2275011","0.0-624.0","ytanbwko","2048","1152","","","","","","","","","","","null","+","Fixation - short","","null","","","","","","","","","","","","","","","","",""
"","html-keyboard-response","396","2275464","0.0-625.0","ytanbwko","","","","","","","","","","","","","452","bwe","Diagnostic trial","","j","","9","1","4","false","false","true","both pre & post","LEFT","RIGHT","j","1","false","","","",""
"","html-keyboard-response","397","2276221","0.0-628.0","ytanbwko","2048","1152","","","","","","","","","","","null","+","Fixation - short","","null","","","","","","","","","","","","","","","","",""
"","html-keyboard-response","398","2276611","0.0-629.0","ytanbwko","","","","","","","","","","","","","389","jft","Diagnostic trial","","j","","9","2","4","false","false","true","both pre & post","RIGHT","RIGHT","j","1","true","","","",""
"","html-keyboard-response","399","2277368","0.0-632.0","ytanbwko","2048","1152","","","","","","","","","","","null","+","Fixation - short","","null","","","","","","","","","","","","","","","","",""
"","html-keyboard-response","400","2277704","0.0-633.0","ytanbwko","","","","","","","","","","","","","334","bwe","Diagnostic trial","","j","","9","3","4","false","false","true","both pre & post","LEFT","RIGHT","j","1","false","","","",""
"","html-keyboard-response","401","2278466","0.0-636.0","ytanbwko","2048","1152","","","","","","","","","","","null","+","Fixation - short","","null","","","","","","","","","","","","","","","","",""
"","canvas-keyboard-response","402","2279720","0.0-637.0","ytanbwko","","","","","","","","","","","","","null","Cue","Cue","","null","","9","3","","","false","","","","","","","","","","",""
"","html-keyboard-response","403","2280479","0.0-638.0","ytanbwko","2048","1152","","","","","","","","","","","null","+","Fixation - short","","null","","","","","","","","","","","","","","","","",""
"","html-keyboard-response","404","2281075","0.0-639.0","ytanbwko","","","","","","","","","","","","","595","jft","Diagnostic trial","","j","","9","4","4","true","false","true","both pre & post","RIGHT","RIGHT","j","1","true","","","",""
"","html-keyboard-response","405","2281831","0.0-642.0","ytanbwko","2048","1152","","","","","","","","","","","null","+","Fixation - short","","null","","","","","","","","","","","","","","","","",""
"","html-keyboard-response","406","2282434","0.0-643.0","ytanbwko","","","","","","","","","","","","","604","jft","Inducer trial","","j","","9","","","","true","","","","","j","1","","false","RIGHT","",""
"","html-keyboard-response","407","2283243","0.0-646.0","ytanbwko","2048","1152","","","","","","","","","","","null","+","Fixation - short","","null","","","","","","","","","","","","","","","","",""
"","html-keyboard-response","408","2284112","0.0-647.0","ytanbwko","","","","","","","","","","","","","868","If ndm press RIGHT | If kmh press LEFT","Inducer instructions",""," ","","10","","","","","","","","","","","","","","",""
"","html-keyboard-response","409","2284870","0.0-648.0","ytanbwko","2048","1152","","","","","","","","","","","null","+","Fixation - short","","null","","","","","","","","","","","","","","","","",""
"","html-keyboard-response","410","2285269","0.0-649.0","ytanbwko","","","","","","","","","","","","","398","ndm","Diagnostic trial","","j","","10","0","8","false","false","false","both pre & post","RIGHT","LEFT","f","0","false","","","",""
"","call-function","411","2285269","0.0-651.0-0.0","ytanbwko","","","","","","","","","","","","","","","","","","","","","","","","","","","","","","","","","",""
"","html-keyboard-response","412","2285585","0.0-651.0-1.0","ytanbwko","2048","1152","","","","","","","","","","","null","Wrong","Feedback","","null","","","","","","","","","","","","","","","","",""
"","call-function","413","2285585","0.0-651.0-2.0","ytanbwko","","","","","","","","","","","","","","","","","","","","","","","","","","","","","","","","","",""
"","html-keyboard-response","414","2286341","0.0-652.0","ytanbwko","2048","1152","","","","","","","","","","","null","+","Fixation - short","","null","","","","","","","","","","","","","","","","",""
"","html-keyboard-response","415","2286935","0.0-653.0","ytanbwko","","","","","","","","","","","","","594","ndm","Diagnostic trial","","f","","10","1","8","false","false","false","both pre & post","RIGHT","LEFT","f","1","false","","","",""
"","html-keyboard-response","416","2287686","0.0-656.0","ytanbwko","2048","1152","","","","","","","","","","","null","+","Fixation - short","","null","","","","","","","","","","","","","","","","",""
"","html-keyboard-response","417","2288106","0.0-657.0","ytanbwko","","","","","","","","","","","","","420","kmh","Diagnostic trial","","j","","10","2","8","false","false","true","both pre & post","LEFT","RIGHT","j","1","false","","","",""
"","html-keyboard-response","418","2288937","0.0-660.0","ytanbwko","2048","1152","","","","","","","","","","","null","+","Fixation - short","","null","","","","","","","","","","","","","","","","",""
"","html-keyboard-response","419","2289349","0.0-661.0","ytanbwko","","","","","","","","","","","","","411","kmh","Diagnostic trial","","j","","10","3","8","false","false","true","both pre & post","LEFT","RIGHT","j","1","false","","","",""
"","html-keyboard-response","420","2290112","0.0-664.0","ytanbwko","2048","1152","","","","","","","","","","","null","+","Fixation - short","","null","","","","","","","","","","","","","","","","",""
"","html-keyboard-response","421","2290568","0.0-665.0","ytanbwko","","","","","","","","","","","","","456","ndm","Diagnostic trial","","f","","10","4","8","false","false","false","both pre & post","RIGHT","LEFT","f","1","false","","","",""
"","html-keyboard-response","422","2291323","0.0-668.0","ytanbwko","2048","1152","","","","","","","","","","","null","+","Fixation - short","","null","","","","","","","","","","","","","","","","",""
"","html-keyboard-response","423","2291788","0.0-669.0","ytanbwko","","","","","","","","","","","","","464","kmh","Diagnostic trial","","j","","10","5","8","false","false","true","both pre & post","LEFT","RIGHT","j","1","false","","","",""
"","html-keyboard-response","424","2292548","0.0-672.0","ytanbwko","2048","1152","","","","","","","","","","","null","+","Fixation - short","","null","","","","","","","","","","","","","","","","",""
"","html-keyboard-response","425","2293194","0.0-673.0","ytanbwko","","","","","","","","","","","","","645","ndm","Diagnostic trial","","j","","10","6","8","false","false","true","both pre & post","RIGHT","RIGHT","j","1","true","","","",""
"","html-keyboard-response","426","2293949","0.0-676.0","ytanbwko","2048","1152","","","","","","","","","","","null","+","Fixation - short","","null","","","","","","","","","","","","","","","","",""
"","html-keyboard-response","427","2294450","0.0-677.0","ytanbwko","","","","","","","","","","","","","499","kmh","Diagnostic trial","","f","","10","7","8","false","false","false","both pre & post","LEFT","LEFT","f","1","true","","","",""
"","html-keyboard-response","428","2295203","0.0-680.0","ytanbwko","2048","1152","","","","","","","","","","","null","+","Fixation - short","","null","","","","","","","","","","","","","","","","",""
"","canvas-keyboard-response","429","2296456","0.0-681.0","ytanbwko","","","","","","","","","","","","","null","Cue","Cue","","null","","10","7","","","false","","","","","","","","","","",""
"","html-keyboard-response","430","2297215","0.0-682.0","ytanbwko","2048","1152","","","","","","","","","","","null","+","Fixation - short","","null","","","","","","","","","","","","","","","","",""
"","html-keyboard-response","431","2298519","0.0-683.0","ytanbwko","","","","","","","","","","","","","1304","ndm","Diagnostic trial","","f","","10","8","8","true","false","false","both pre & post","RIGHT","LEFT","f","1","false","","","",""
"","html-keyboard-response","432","2299275","0.0-686.0","ytanbwko","2048","1152","","","","","","","","","","","null","+","Fixation - short","","null","","","","","","","","","","","","","","","","",""
"","html-keyboard-response","433","2299815","0.0-687.0","ytanbwko","","","","","","","","","","","","","540","ndm","Diagnostic trial","","f","","10","9","8","true","false","false","both pre & post","RIGHT","LEFT","f","1","false","","","",""
"","html-keyboard-response","434","2300569","0.0-690.0","ytanbwko","2048","1152","","","","","","","","","","","null","+","Fixation - short","","null","","","","","","","","","","","","","","","","",""
"","html-keyboard-response","435","2301193","0.0-691.0","ytanbwko","","","","","","","","","","","","","624","ndm","Diagnostic trial","","f","","10","10","8","true","false","false","both pre & post","RIGHT","LEFT","f","1","false","","","",""
"","html-keyboard-response","436","2301957","0.0-694.0","ytanbwko","2048","1152","","","","","","","","","","","null","+","Fixation - short","","null","","","","","","","","","","","","","","","","",""
"","html-keyboard-response","437","2302552","0.0-695.0","ytanbwko","","","","","","","","","","","","","596","kmh","Diagnostic trial","","j","","10","11","8","true","false","true","both pre & post","LEFT","RIGHT","j","1","false","","","",""
"","html-keyboard-response","438","2303338","0.0-698.0","ytanbwko","2048","1152","","","","","","","","","","","null","+","Fixation - short","","null","","","","","","","","","","","","","","","","",""
"","html-keyboard-response","439","2303922","0.0-699.0","ytanbwko","","","","","","","","","","","","","584","ndm","Inducer trial","","j","","10","","","","true","","","","","j","1","","false","RIGHT","",""
"","html-keyboard-response","440","2304684","0.0-702.0","ytanbwko","2048","1152","","","","","","","","","","","null","+","Fixation - short","","null","","","","","","","","","","","","","","","","",""
"","html-keyboard-response","441","2305535","0.0-703.0","ytanbwko","","","","","","","","","","","","","851","If anz press RIGHT | If geb press LEFT","Inducer instructions",""," ","","11","","","","","","","","","","","","","","",""
"","html-keyboard-response","442","2306298","0.0-704.0","ytanbwko","2048","1152","","","","","","","","","","","null","+","Fixation - short","","null","","","","","","","","","","","","","","","","",""
"","html-keyboard-response","443","2306620","0.0-705.0","ytanbwko","","","","","","","","","","","","","322","anz","Diagnostic trial","","f","","11","0","5","false","false","false","both pre & post","RIGHT","LEFT","f","1","false","","","",""
"","html-keyboard-response","444","2307384","0.0-708.0","ytanbwko","2048","1152","","","","","","","","","","","null","+","Fixation - short","","null","","","","","","","","","","","","","","","","",""
"","html-keyboard-response","445","2307876","0.0-709.0","ytanbwko","","","","","","","","","","","","","491","anz","Diagnostic trial","","j","","11","1","5","false","false","true","both pre & post","RIGHT","RIGHT","j","1","true","","","",""
"","html-keyboard-response","446","2308637","0.0-712.0","ytanbwko","2048","1152","","","","","","","","","","","null","+","Fixation - short","","null","","","","","","","","","","","","","","","","",""
"","html-keyboard-response","447","2309195","0.0-713.0","ytanbwko","","","","","","","","","","","","","559","anz","Diagnostic trial","","f","","11","2","5","false","false","false","both pre & post","RIGHT","LEFT","f","1","false","","","",""
"","html-keyboard-response","448","2309968","0.0-716.0","ytanbwko","2048","1152","","","","","","","","","","","null","+","Fixation - short","","null","","","","","","","","","","","","","","","","",""
"","html-keyboard-response","449","2310480","0.0-717.0","ytanbwko","","","","","","","","","","","","","511","anz","Diagnostic trial","","j","","11","3","5","false","false","true","both pre & post","RIGHT","RIGHT","j","1","true","","","",""
"","html-keyboard-response","450","2311244","0.0-720.0","ytanbwko","2048","1152","","","","","","","","","","","null","+","Fixation - short","","null","","","","","","","","","","","","","","","","",""
"","html-keyboard-response","451","2311720","0.0-721.0","ytanbwko","","","","","","","","","","","","","474","anz","Diagnostic trial","","f","","11","4","5","false","false","false","both pre & post","RIGHT","LEFT","f","1","false","","","",""
"","html-keyboard-response","452","2312473","0.0-724.0","ytanbwko","2048","1152","","","","","","","","","","","null","+","Fixation - short","","null","","","","","","","","","","","","","","","","",""
"","canvas-keyboard-response","453","2313730","0.0-725.0","ytanbwko","","","","","","","","","","","","","null","Cue","Cue","","null","","11","4","","","false","","","","","","","","","","",""
"","html-keyboard-response","454","2314490","0.0-726.0","ytanbwko","2048","1152","","","","","","","","","","","null","+","Fixation - short","","null","","","","","","","","","","","","","","","","",""
"","html-keyboard-response","455","2315133","0.0-727.0","ytanbwko","","","","","","","","","","","","","643","anz","Diagnostic trial","","f","","11","5","5","true","false","false","both pre & post","RIGHT","LEFT","f","1","false","","","",""
"","html-keyboard-response","456","2315899","0.0-730.0","ytanbwko","2048","1152","","","","","","","","","","","null","+","Fixation - short","","null","","","","","","","","","","","","","","","","",""
"","html-keyboard-response","457","2316563","0.0-731.0","ytanbwko","","","","","","","","","","","","","666","geb","Diagnostic trial","","j","","11","6","5","true","false","true","both pre & post","LEFT","RIGHT","j","1","false","","","",""
"","html-keyboard-response","458","2317325","0.0-734.0","ytanbwko","2048","1152","","","","","","","","","","","null","+","Fixation - short","","null","","","","","","","","","","","","","","","","",""
"","html-keyboard-response","459","2317933","0.0-735.0","ytanbwko","","","","","","","","","","","","","607","anz","Diagnostic trial","","j","","11","7","5","true","false","true","both pre & post","RIGHT","RIGHT","j","1","true","","","",""
"","html-keyboard-response","460","2318739","0.0-738.0","ytanbwko","2048","1152","","","","","","","","","","","null","+","Fixation - short","","null","","","","","","","","","","","","","","","","",""
