"value","trial_type","trial_index","time_elapsed","internal_node_id","id","width","height","webaudio","browser","browser_version","mobile","os","fullscreen","vsync_rate","webcam","microphone","view_history","rt","stimulus","trial_info","success","response","exp_parameters","inducer_run","diagnostic_run","cue_num","post_cue","inducer_trial","italic","forced_equal_run","correct_inducer_response_side","correct_diag_response_side","correct_response_key","correct_response","congruent","force_equal","correct_indu_response_side","accuracy","interactive"
"","call-function","0","2","0.0-0.0","32c05fch","","","","","","","","","","","","","","","","","","","","","","","","","","","","","","","","","",""
"","browser-check","1","4562","0.0-1.0","32c05fch","1280","559","true","chrome","123.0.0","false","Windows 10","true","13.17","true","true","","","","","","","","","","","","","","","","","","","","","","",""
"","instructions","2","67807","0.0-2.0","32c05fch","","","","","","","","","","","","[{""page_index"":0,""viewing_time"":20484},{""page_index"":1,""viewing_time"":34168},{""page_index"":2,""viewing_time"":8592}]","63245","The experiment and consent","The experiment and consent","","","","","","","","","","","","","","","","","","",""
"","fullscreen","3","72970","0.0-3.0","32c05fch","","","","","","","","","","","","","4151","","Full screen","true","","","","","","","","","","","","","","","","","",""
"","instructions","4","103824","0.0-4.0","32c05fch","","","","","","","","","","","","[{""page_index"":0,""viewing_time"":16754},{""page_index"":1,""viewing_time"":14096}]","30851","Instructions","Basic overview explanation","","","","","","","","","","","","","","","","","","",""
"","html-keyboard-response","5","115906","0.0-5.0","32c05fch","","","","","","","","","","","","","10565","If italic press LEFT | If upright press RIGHT","Diagnostic instructions",""," ","{""debug"":false,""skip_instructions"":false,""skip_practice"":false,""save_local_data"":false,""studu_name"":""exp2"",""default_background_colour"":""#cccccc"",""wrong_response_colour"":""#d22d2d"",""instruction_delay"":20000,""trial_duration"":2000,""short_fixation"":750,""long_fixation"":1500,""wrong_response_delay"":300,""too_slow_delay"":300,""instruction_font_size"":""24px"",""general_font_size"":""42px"",""fixation_size"":""48px"",""allowed_responses"":[""f"",""j""],""cue_min_length"":0,""cue_max_length"":4,""tot_post_cue_len"":72,""cue_colour"":""blue"",""cue_shape"":""Square"",""cue_size"":70,""cue_duration"":1250,""avg_number_of_cues"":3,""inducer_colour"":""yellow"",""number_of_inducers"":24,""pre_cue_italic_forced_equal"":true,""post_cue_italic_forced_equal"":true,""prac_diagnostic_rounds"":16,""prac_inducer_rounds"":6,""prac_cue_rounds"":16,""prac_post_cue_num"":3}","","","","","","","","","","","","","","","",""
"","html-keyboard-response","6","116666","0.0-6.0","32c05fch","1280","720","","","","","","","","","","","null","+","Fixation - short","","null","","","","","","","","","","","","","","","","",""
"","html-keyboard-response","7","117346","0.0-7.0","32c05fch","","","","","","","","","","","","","678","dnc","Diagnostic practice","","f","","Diagnostic practice","0","-84","true","false","true","prac equal","RIGHT","LEFT","f","1","false","","","",""
"","html-keyboard-response","8","118104","0.0-10.0","32c05fch","1280","720","","","","","","","","","","","null","+","Fixation - short","","null","","","","","","","","","","","","","","","","",""
"","html-keyboard-response","9","118687","0.0-11.0","32c05fch","","","","","","","","","","","","","581","vsc","Diagnostic practice","","j","","Diagnostic practice","1","-84","true","false","false","prac equal","LEFT","RIGHT","j","1","false","","","",""
"","html-keyboard-response","10","119446","0.0-14.0","32c05fch","1280","720","","","","","","","","","","","null","+","Fixation - short","","null","","","","","","","","","","","","","","","","",""
"","html-keyboard-response","11","121545","0.0-15.0","32c05fch","","","","","","","","","","","","","2099","vsc","Diagnostic practice","","j","","Diagnostic practice","2","-84","true","false","false","prac equal","LEFT","RIGHT","j","1","false","","","",""
"","html-keyboard-response","12","122304","0.0-18.0","32c05fch","1280","720","","","","","","","","","","","null","+","Fixation - short","","null","","","","","","","","","","","","","","","","",""
"","html-keyboard-response","13","123019","0.0-19.0","32c05fch","","","","","","","","","","","","","714","dnc","Diagnostic practice","","j","","Diagnostic practice","3","-84","true","false","false","prac equal","RIGHT","RIGHT","j","1","true","","","",""
"","html-keyboard-response","14","123784","0.0-22.0","32c05fch","1280","720","","","","","","","","","","","null","+","Fixation - short","","null","","","","","","","","","","","","","","","","",""
"","html-keyboard-response","15","124279","0.0-23.0","32c05fch","","","","","","","","","","","","","493","vsc","Diagnostic practice","","j","","Diagnostic practice","4","-84","true","false","false","prac equal","LEFT","RIGHT","j","1","false","","","",""
"","html-keyboard-response","16","125035","0.0-26.0","32c05fch","1280","720","","","","","","","","","","","null","+","Fixation - short","","null","","","","","","","","","","","","","","","","",""
"","html-keyboard-response","17","125692","0.0-27.0","32c05fch","","","","","","","","","","","","","656","dnc","Diagnostic practice","","j","","Diagnostic practice","5","-84","true","false","true","prac equal","RIGHT","LEFT","f","0","false","","","",""
"","call-function","18","125692","0.0-29.0-0.0","32c05fch","","","","","","","","","","","","","","","","","","","","","","","","","","","","","","","","","",""
"","html-keyboard-response","19","126002","0.0-29.0-1.0","32c05fch","1280","720","","","","","","","","","","","null","Wrong","Feedback","","null","","","","","","","","","","","","","","","","",""
"","call-function","20","126003","0.0-29.0-2.0","32c05fch","","","","","","","","","","","","","","","","","","","","","","","","","","","","","","","","","",""
"","html-keyboard-response","21","126756","0.0-30.0","32c05fch","1280","720","","","","","","","","","","","null","+","Fixation - short","","null","","","","","","","","","","","","","","","","",""
"","html-keyboard-response","22","127155","0.0-31.0","32c05fch","","","","","","","","","","","","","399","dnc","Diagnostic practice","","j","","Diagnostic practice","6","-84","true","false","true","prac equal","RIGHT","LEFT","f","0","false","","","",""
"","call-function","23","127156","0.0-33.0-0.0","32c05fch","","","","","","","","","","","","","","","","","","","","","","","","","","","","","","","","","",""
"","html-keyboard-response","24","127464","0.0-33.0-1.0","32c05fch","1280","720","","","","","","","","","","","null","Wrong","Feedback","","null","","","","","","","","","","","","","","","","",""
"","call-function","25","127465","0.0-33.0-2.0","32c05fch","","","","","","","","","","","","","","","","","","","","","","","","","","","","","","","","","",""
"","html-keyboard-response","26","128230","0.0-34.0","32c05fch","1280","720","","","","","","","","","","","null","+","Fixation - short","","null","","","","","","","","","","","","","","","","",""
"","html-keyboard-response","27","128640","0.0-35.0","32c05fch","","","","","","","","","","","","","409","vsc","Diagnostic practice","","j","","Diagnostic practice","7","-84","true","false","false","prac equal","LEFT","RIGHT","j","1","false","","","",""
"","html-keyboard-response","28","129393","0.0-38.0","32c05fch","1280","720","","","","","","","","","","","null","+","Fixation - short","","null","","","","","","","","","","","","","","","","",""
"","html-keyboard-response","29","129811","0.0-39.0","32c05fch","","","","","","","","","","","","","417","vsc","Diagnostic practice","","j","","Diagnostic practice","8","-84","true","false","false","prac equal","LEFT","RIGHT","j","1","false","","","",""
"","html-keyboard-response","30","130573","0.0-42.0","32c05fch","1280","720","","","","","","","","","","","null","+","Fixation - short","","null","","","","","","","","","","","","","","","","",""
"","html-keyboard-response","31","130976","0.0-43.0","32c05fch","","","","","","","","","","","","","402","dnc","Diagnostic practice","","j","","Diagnostic practice","9","-84","true","false","false","prac equal","RIGHT","RIGHT","j","1","true","","","",""
"","html-keyboard-response","32","131728","0.0-46.0","32c05fch","1280","720","","","","","","","","","","","null","+","Fixation - short","","null","","","","","","","","","","","","","","","","",""
"","html-keyboard-response","33","132262","0.0-47.0","32c05fch","","","","","","","","","","","","","534","dnc","Diagnostic practice","","f","","Diagnostic practice","10","-84","true","false","true","prac equal","RIGHT","LEFT","f","1","false","","","",""
"","html-keyboard-response","34","133025","0.0-50.0","32c05fch","1280","720","","","","","","","","","","","null","+","Fixation - short","","null","","","","","","","","","","","","","","","","",""
"","html-keyboard-response","35","133435","0.0-51.0","32c05fch","","","","","","","","","","","","","409","dnc","Diagnostic practice","","f","","Diagnostic practice","11","-84","true","false","true","prac equal","RIGHT","LEFT","f","1","false","","","",""
"","html-keyboard-response","36","134197","0.0-54.0","32c05fch","1280","720","","","","","","","","","","","null","+","Fixation - short","","null","","","","","","","","","","","","","","","","",""
"","html-keyboard-response","37","134535","0.0-55.0","32c05fch","","","","","","","","","","","","","337","vsc","Diagnostic practice","","j","","Diagnostic practice","12","-84","true","false","true","prac equal","LEFT","LEFT","f","0","true","","","",""
"","call-function","38","134535","0.0-57.0-0.0","32c05fch","","","","","","","","","","","","","","","","","","","","","","","","","","","","","","","","","",""
"","html-keyboard-response","39","134838","0.0-57.0-1.0","32c05fch","1280","720","","","","","","","","","","","null","Wrong","Feedback","","null","","","","","","","","","","","","","","","","",""
"","call-function","40","134838","0.0-57.0-2.0","32c05fch","","","","","","","","","","","","","","","","","","","","","","","","","","","","","","","","","",""
"","html-keyboard-response","41","135599","0.0-58.0","32c05fch","1280","720","","","","","","","","","","","null","+","Fixation - short","","null","","","","","","","","","","","","","","","","",""
"","html-keyboard-response","42","136136","0.0-59.0","32c05fch","","","","","","","","","","","","","536","dnc","Diagnostic practice","","j","","Diagnostic practice","13","-84","true","false","true","prac equal","RIGHT","LEFT","f","0","false","","","",""
"","call-function","43","136136","0.0-61.0-0.0","32c05fch","","","","","","","","","","","","","","","","","","","","","","","","","","","","","","","","","",""
"","html-keyboard-response","44","136446","0.0-61.0-1.0","32c05fch","1280","720","","","","","","","","","","","null","Wrong","Feedback","","null","","","","","","","","","","","","","","","","",""
"","call-function","45","136446","0.0-61.0-2.0","32c05fch","","","","","","","","","","","","","","","","","","","","","","","","","","","","","","","","","",""
"","html-keyboard-response","46","137198","0.0-62.0","32c05fch","1280","720","","","","","","","","","","","null","+","Fixation - short","","null","","","","","","","","","","","","","","","","",""
"","html-keyboard-response","47","137847","0.0-63.0","32c05fch","","","","","","","","","","","","","647","dnc","Diagnostic practice","","f","","Diagnostic practice","14","-84","true","false","true","prac equal","RIGHT","LEFT","f","1","false","","","",""
"","html-keyboard-response","48","138609","0.0-66.0","32c05fch","1280","720","","","","","","","","","","","null","+","Fixation - short","","null","","","","","","","","","","","","","","","","",""
"","html-keyboard-response","49","139344","0.0-67.0","32c05fch","","","","","","","","","","","","","734","vsc","Diagnostic practice","","j","","Diagnostic practice","15","-84","true","false","false","prac equal","LEFT","RIGHT","j","1","false","","","",""
"","html-keyboard-response","50","140109","0.0-70.0","32c05fch","1280","720","","","","","","","","","","","null","+","Fixation - short","","null","","","","","","","","","","","","","","","","",""
"","instructions","51","151687","0.0-71.0","32c05fch","","","","","","","","","","","","[{""page_index"":0,""viewing_time"":11576}]","11576","Instructions","Final experiment explanation","","","","","","","","","","","","","","","","","","",""
"","html-keyboard-response","52","160464","0.0-72.0","32c05fch","","","","","","","","","","","","","7268","If vib press LEFT | If vrm press RIGHT","Inducer practice",""," ","","Practice","","","","","","","","","","","","","","",""
"","html-keyboard-response","53","161227","0.0-73.0","32c05fch","1280","720","","","","","","","","","","","null","+","Fixation - short","","null","","","","","","","","","","","","","","","","",""
"","html-keyboard-response","54","161743","0.0-74.0","32c05fch","","","","","","","","","","","","","516","vrm","Inducer practice","","j","","Practice","","","","true","","","","","j","1","","true","RIGHT","",""
"","html-keyboard-response","55","162496","0.0-77.0","32c05fch","1280","720","","","","","","","","","","","null","+","Fixation - short","","null","","","","","","","","","","","","","","","","",""
"","html-keyboard-response","56","167023","0.0-78.0","32c05fch","","","","","","","","","","","","","4526","If tgf press LEFT | If vbt press RIGHT","Inducer practice",""," ","","Practice","","","","","","","","","","","","","","",""
"","html-keyboard-response","57","167780","0.0-79.0","32c05fch","1280","720","","","","","","","","","","","null","+","Fixation - short","","null","","","","","","","","","","","","","","","","",""
"","html-keyboard-response","58","168347","0.0-80.0","32c05fch","","","","","","","","","","","","","567","tgf","Inducer practice","","f","","Practice","","","","true","","","","","f","1","","true","LEFT","",""
"","html-keyboard-response","59","169108","0.0-83.0","32c05fch","1280","720","","","","","","","","","","","null","+","Fixation - short","","null","","","","","","","","","","","","","","","","",""
"","html-keyboard-response","60","175209","0.0-84.0","32c05fch","","","","","","","","","","","","","6100","If jup press LEFT | If rpw press RIGHT","Inducer practice",""," ","","Practice","","","","","","","","","","","","","","",""
"","html-keyboard-response","61","175967","0.0-85.0","32c05fch","1280","720","","","","","","","","","","","null","+","Fixation - short","","null","","","","","","","","","","","","","","","","",""
"","html-keyboard-response","62","176348","0.0-86.0","32c05fch","","","","","","","","","","","","","380","rpw","Inducer practice","","j","","Practice","","","","true","","","","","j","1","","true","RIGHT","",""
"","html-keyboard-response","63","177112","0.0-89.0","32c05fch","1280","720","","","","","","","","","","","null","+","Fixation - short","","null","","","","","","","","","","","","","","","","",""
"","html-keyboard-response","64","182333","0.0-90.0","32c05fch","","","","","","","","","","","","","5221","If feg press LEFT | If slu press RIGHT","Inducer practice",""," ","","Practice","","","","","","","","","","","","","","",""
"","html-keyboard-response","65","183089","0.0-91.0","32c05fch","1280","720","","","","","","","","","","","null","+","Fixation - short","","null","","","","","","","","","","","","","","","","",""
"","html-keyboard-response","66","183564","0.0-92.0","32c05fch","","","","","","","","","","","","","474","slu","Inducer practice","","j","","Practice","","","","true","","","","","j","1","","true","RIGHT","",""
"","html-keyboard-response","67","184326","0.0-95.0","32c05fch","1280","720","","","","","","","","","","","null","+","Fixation - short","","null","","","","","","","","","","","","","","","","",""
"","html-keyboard-response","68","188733","0.0-96.0","32c05fch","","","","","","","","","","","","","4405","If lct press LEFT | If ibg press RIGHT","Inducer practice",""," ","","Practice","","","","","","","","","","","","","","",""
"","html-keyboard-response","69","189491","0.0-97.0","32c05fch","1280","720","","","","","","","","","","","null","+","Fixation - short","","null","","","","","","","","","","","","","","","","",""
"","html-keyboard-response","70","190070","0.0-98.0","32c05fch","","","","","","","","","","","","","578","lct","Inducer practice","","f","","Practice","","","","true","","","","","f","1","","true","LEFT","",""
"","html-keyboard-response","71","190831","0.0-101.0","32c05fch","1280","720","","","","","","","","","","","null","+","Fixation - short","","null","","","","","","","","","","","","","","","","",""
"","html-keyboard-response","72","192606","0.0-102.0","32c05fch","","","","","","","","","","","","","1774","If wab press LEFT | If ume press RIGHT","Inducer practice",""," ","","Practice","","","","","","","","","","","","","","",""
"","html-keyboard-response","73","193360","0.0-103.0","32c05fch","1280","720","","","","","","","","","","","null","+","Fixation - short","","null","","","","","","","","","","","","","","","","",""
"","html-keyboard-response","74","193803","0.0-104.0","32c05fch","","","","","","","","","","","","","442","wab","Inducer practice","","f","","Practice","","","","true","","","","","f","1","","true","LEFT","",""
"","html-keyboard-response","75","194565","0.0-107.0","32c05fch","1280","720","","","","","","","","","","","null","+","Fixation - short","","null","","","","","","","","","","","","","","","","",""
"","instructions","76","221791","0.0-108.0","32c05fch","","","","","","","","","","","","[{""page_index"":0,""viewing_time"":27225}]","27225","Instructions","Final experiment explanation","","","","","","","","","","","","","","","","","","",""
"","html-keyboard-response","77","226367","0.0-109.0","32c05fch","","","","","","","","","","","","","3067","If prg press LEFT | If rbc press RIGHT","Cue practice",""," ","","Practice","","","","","","","","","","","","","","",""
"","html-keyboard-response","78","227129","0.0-110.0","32c05fch","1280","720","","","","","","","","","","","null","+","Fixation - short","","null","","","","","","","","","","","","","","","","",""
"","html-keyboard-response","79","227840","0.0-111.0","32c05fch","","","","","","","","","","","","","711","rbc","Cue practice","","j","","Practice","0","13","false","false","false","both pre & post","RIGHT","RIGHT","j","1","true","","","",""
"","html-keyboard-response","80","228596","0.0-114.0","32c05fch","1280","720","","","","","","","","","","","null","+","Fixation - short","","null","","","","","","","","","","","","","","","","",""
"","html-keyboard-response","81","229538","0.0-115.0","32c05fch","","","","","","","","","","","","","941","rbc","Cue practice","","j","","Practice","1","13","false","false","true","both pre & post","RIGHT","LEFT","f","0","false","","","",""
"","call-function","82","229538","0.0-117.0-0.0","32c05fch","","","","","","","","","","","","","","","","","","","","","","","","","","","","","","","","","",""
"","html-keyboard-response","83","229847","0.0-117.0-1.0","32c05fch","1280","720","","","","","","","","","","","null","Wrong","Feedback","","null","","","","","","","","","","","","","","","","",""
"","call-function","84","229848","0.0-117.0-2.0","32c05fch","","","","","","","","","","","","","","","","","","","","","","","","","","","","","","","","","",""
"","html-keyboard-response","85","230608","0.0-118.0","32c05fch","1280","720","","","","","","","","","","","null","+","Fixation - short","","null","","","","","","","","","","","","","","","","",""
"","html-keyboard-response","86","231267","0.0-119.0","32c05fch","","","","","","","","","","","","","658","rbc","Cue practice","","j","","Practice","2","13","false","false","false","both pre & post","RIGHT","RIGHT","j","1","true","","","",""
"","html-keyboard-response","87","232027","0.0-122.0","32c05fch","1280","720","","","","","","","","","","","null","+","Fixation - short","","null","","","","","","","","","","","","","","","","",""
"","html-keyboard-response","88","232696","0.0-123.0","32c05fch","","","","","","","","","","","","","668","prg","Cue practice","","j","","Practice","3","13","false","false","false","both pre & post","LEFT","RIGHT","j","1","false","","","",""
"","html-keyboard-response","89","233448","0.0-126.0","32c05fch","1280","720","","","","","","","","","","","null","+","Fixation - short","","null","","","","","","","","","","","","","","","","",""
"","html-keyboard-response","90","234049","0.0-127.0","32c05fch","","","","","","","","","","","","","600","rbc","Cue practice","","f","","Practice","4","13","false","false","true","both pre & post","RIGHT","LEFT","f","1","false","","","",""
"","html-keyboard-response","91","234806","0.0-130.0","32c05fch","1280","720","","","","","","","","","","","null","+","Fixation - short","","null","","","","","","","","","","","","","","","","",""
"","html-keyboard-response","92","235428","0.0-131.0","32c05fch","","","","","","","","","","","","","621","prg","Cue practice","","f","","Practice","5","13","false","false","true","both pre & post","LEFT","LEFT","f","1","true","","","",""
"","html-keyboard-response","93","236181","0.0-134.0","32c05fch","1280","720","","","","","","","","","","","null","+","Fixation - short","","null","","","","","","","","","","","","","","","","",""
"","html-keyboard-response","94","236824","0.0-135.0","32c05fch","","","","","","","","","","","","","643","prg","Cue practice","","j","","Practice","6","13","false","false","false","both pre & post","LEFT","RIGHT","j","1","false","","","",""
"","html-keyboard-response","95","237591","0.0-138.0","32c05fch","1280","720","","","","","","","","","","","null","+","Fixation - short","","null","","","","","","","","","","","","","","","","",""
"","html-keyboard-response","96","238239","0.0-139.0","32c05fch","","","","","","","","","","","","","647","rbc","Cue practice","","f","","Practice","7","13","false","false","true","both pre & post","RIGHT","LEFT","f","1","false","","","",""
"","html-keyboard-response","97","238997","0.0-142.0","32c05fch","1280","720","","","","","","","","","","","null","+","Fixation - short","","null","","","","","","","","","","","","","","","","",""
"","html-keyboard-response","98","239704","0.0-143.0","32c05fch","","","","","","","","","","","","","706","rbc","Cue practice","","f","","Practice","8","13","false","false","true","both pre & post","RIGHT","LEFT","f","1","false","","","",""
"","html-keyboard-response","99","240463","0.0-146.0","32c05fch","1280","720","","","","","","","","","","","null","+","Fixation - short","","null","","","","","","","","","","","","","","","","",""
"","html-keyboard-response","100","241046","0.0-147.0","32c05fch","","","","","","","","","","","","","582","rbc","Cue practice","","j","","Practice","9","13","false","false","false","both pre & post","RIGHT","RIGHT","j","1","true","","","",""
"","html-keyboard-response","101","241806","0.0-150.0","32c05fch","1280","720","","","","","","","","","","","null","+","Fixation - short","","null","","","","","","","","","","","","","","","","",""
"","html-keyboard-response","102","242484","0.0-151.0","32c05fch","","","","","","","","","","","","","678","prg","Cue practice","","f","","Practice","10","13","false","false","true","both pre & post","LEFT","LEFT","f","1","true","","","",""
"","html-keyboard-response","103","243240","0.0-154.0","32c05fch","1280","720","","","","","","","","","","","null","+","Fixation - short","","null","","","","","","","","","","","","","","","","",""
"","html-keyboard-response","104","243909","0.0-155.0","32c05fch","","","","","","","","","","","","","668","rbc","Cue practice","","j","","Practice","11","13","false","false","true","both pre & post","RIGHT","LEFT","f","0","false","","","",""
"","call-function","105","243909","0.0-157.0-0.0","32c05fch","","","","","","","","","","","","","","","","","","","","","","","","","","","","","","","","","",""
"","html-keyboard-response","106","244213","0.0-157.0-1.0","32c05fch","1280","720","","","","","","","","","","","null","Wrong","Feedback","","null","","","","","","","","","","","","","","","","",""
"","call-function","107","244214","0.0-157.0-2.0","32c05fch","","","","","","","","","","","","","","","","","","","","","","","","","","","","","","","","","",""
"","html-keyboard-response","108","244976","0.0-158.0","32c05fch","1280","720","","","","","","","","","","","null","+","Fixation - short","","null","","","","","","","","","","","","","","","","",""
"","html-keyboard-response","109","245456","0.0-159.0","32c05fch","","","","","","","","","","","","","479","prg","Cue practice","","f","","Practice","12","13","false","false","false","both pre & post","LEFT","RIGHT","j","0","false","","","",""
"","call-function","110","245457","0.0-161.0-0.0","32c05fch","","","","","","","","","","","","","","","","","","","","","","","","","","","","","","","","","",""
"","html-keyboard-response","111","245772","0.0-161.0-1.0","32c05fch","1280","720","","","","","","","","","","","null","Wrong","Feedback","","null","","","","","","","","","","","","","","","","",""
"","call-function","112","245772","0.0-161.0-2.0","32c05fch","","","","","","","","","","","","","","","","","","","","","","","","","","","","","","","","","",""
"","html-keyboard-response","113","246536","0.0-162.0","32c05fch","1280","720","","","","","","","","","","","null","+","Fixation - short","","null","","","","","","","","","","","","","","","","",""
"","canvas-keyboard-response","114","247800","0.0-163.0","32c05fch","","","","","","","","","","","","","null","Cue","Cue","","null","","Practice","12","","","false","","","","","","","","","","",""
"","html-keyboard-response","115","248567","0.0-164.0","32c05fch","1280","720","","","","","","","","","","","null","+","Fixation - short","","null","","","","","","","","","","","","","","","","",""
"","html-keyboard-response","116","249201","0.0-165.0","32c05fch","","","","","","","","","","","","","633","rbc","Cue practice","","f","","Practice","13","13","true","false","true","both pre & post","RIGHT","LEFT","f","1","false","","","",""
"","html-keyboard-response","117","249963","0.0-168.0","32c05fch","1280","720","","","","","","","","","","","null","+","Fixation - short","","null","","","","","","","","","","","","","","","","",""
"","html-keyboard-response","118","250622","0.0-169.0","32c05fch","","","","","","","","","","","","","658","prg","Cue practice","","f","","Practice","14","13","true","false","true","both pre & post","LEFT","LEFT","f","1","true","","","",""
"","html-keyboard-response","119","251380","0.0-172.0","32c05fch","1280","720","","","","","","","","","","","null","+","Fixation - short","","null","","","","","","","","","","","","","","","","",""
"","html-keyboard-response","120","251924","0.0-173.0","32c05fch","","","","","","","","","","","","","543","prg","Cue practice","","j","","Practice","15","13","true","false","false","both pre & post","LEFT","RIGHT","j","1","false","","","",""
"","html-keyboard-response","121","252677","0.0-176.0","32c05fch","1280","720","","","","","","","","","","","null","+","Fixation - short","","null","","","","","","","","","","","","","","","","",""
"","html-keyboard-response","122","253478","0.0-177.0","32c05fch","","","","","","","","","","","","","800","prg","Inducer practice","","j","","Practice","","","","true","","","","","f","0","","false","LEFT","",""
"","call-function","123","253479","0.0-179.0-0.0","32c05fch","","","","","","","","","","","","","","","","","","","","","","","","","","","","","","","","","",""
"","html-keyboard-response","124","253786","0.0-179.0-1.0","32c05fch","1280","720","","","","","","","","","","","null","Wrong","Feedback","","null","","","","","","","","","","","","","","","","",""
"","call-function","125","253787","0.0-179.0-2.0","32c05fch","","","","","","","","","","","","","","","","","","","","","","","","","","","","","","","","","",""
"","html-keyboard-response","126","254552","0.0-180.0","32c05fch","1280","720","","","","","","","","","","","null","+","Fixation - short","","null","","","","","","","","","","","","","","","","",""
"","instructions","127","262863","0.0-181.0","32c05fch","","","","","","","","","","","","[{""page_index"":0,""viewing_time"":8309}]","8309","End practice","End of practice","","","","","","","","","","","","","","","","","","",""
"","html-keyboard-response","128","265868","0.0-182.0","32c05fch","1280","720","","","","","","","","","","","null","+","Fixation - long","","null","","","","","","","","","","","","","","","","",""
"","html-keyboard-response","129","269725","0.0-183.0","32c05fch","","","","","","","","","","","","","3855","If jlm press LEFT | If mda press RIGHT","Inducer instructions",""," ","","0","","","","","","","","","","","","","","",""
"","html-keyboard-response","130","270479","0.0-184.0","32c05fch","1280","720","","","","","","","","","","","null","+","Fixation - short","","null","","","","","","","","","","","","","","","","",""
"","html-keyboard-response","131","271139","0.0-185.0","32c05fch","","","","","","","","","","","","","659","jlm","Diagnostic trial","","f","","0","0","8","false","false","false","both pre & post","LEFT","RIGHT","j","0","false","","","",""
"","call-function","132","271140","0.0-187.0-0.0","32c05fch","","","","","","","","","","","","","","","","","","","","","","","","","","","","","","","","","",""
"","html-keyboard-response","133","271453","0.0-187.0-1.0","32c05fch","1280","720","","","","","","","","","","","null","Wrong","Feedback","","null","","","","","","","","","","","","","","","","",""
"","call-function","134","271453","0.0-187.0-2.0","32c05fch","","","","","","","","","","","","","","","","","","","","","","","","","","","","","","","","","",""
"","html-keyboard-response","135","272219","0.0-188.0","32c05fch","1280","720","","","","","","","","","","","null","+","Fixation - short","","null","","","","","","","","","","","","","","","","",""
"","html-keyboard-response","136","272979","0.0-189.0","32c05fch","","","","","","","","","","","","","759","mda","Diagnostic trial","","j","","0","1","8","false","false","false","both pre & post","RIGHT","RIGHT","j","1","true","","","",""
"","html-keyboard-response","137","273738","0.0-192.0","32c05fch","1280","720","","","","","","","","","","","null","+","Fixation - short","","null","","","","","","","","","","","","","","","","",""
"","html-keyboard-response","138","274352","0.0-193.0","32c05fch","","","","","","","","","","","","","613","jlm","Diagnostic trial","","j","","0","2","8","false","false","false","both pre & post","LEFT","RIGHT","j","1","false","","","",""
"","html-keyboard-response","139","275108","0.0-196.0","32c05fch","1280","720","","","","","","","","","","","null","+","Fixation - short","","null","","","","","","","","","","","","","","","","",""
"","html-keyboard-response","140","275771","0.0-197.0","32c05fch","","","","","","","","","","","","","663","jlm","Diagnostic trial","","f","","0","3","8","false","false","false","both pre & post","LEFT","RIGHT","j","0","false","","","",""
"","call-function","141","275772","0.0-199.0-0.0","32c05fch","","","","","","","","","","","","","","","","","","","","","","","","","","","","","","","","","",""
"","html-keyboard-response","142","276078","0.0-199.0-1.0","32c05fch","1280","720","","","","","","","","","","","null","Wrong","Feedback","","null","","","","","","","","","","","","","","","","",""
"","call-function","143","276079","0.0-199.0-2.0","32c05fch","","","","","","","","","","","","","","","","","","","","","","","","","","","","","","","","","",""
"","html-keyboard-response","144","276841","0.0-200.0","32c05fch","1280","720","","","","","","","","","","","null","+","Fixation - short","","null","","","","","","","","","","","","","","","","",""
"","html-keyboard-response","145","277312","0.0-201.0","32c05fch","","","","","","","","","","","","","470","mda","Diagnostic trial","","j","","0","4","8","false","false","false","both pre & post","RIGHT","RIGHT","j","1","true","","","",""
"","html-keyboard-response","146","278074","0.0-204.0","32c05fch","1280","720","","","","","","","","","","","null","+","Fixation - short","","null","","","","","","","","","","","","","","","","",""
"","html-keyboard-response","147","278616","0.0-205.0","32c05fch","","","","","","","","","","","","","541","jlm","Diagnostic trial","","j","","0","5","8","false","false","false","both pre & post","LEFT","RIGHT","j","1","false","","","",""
"","html-keyboard-response","148","279367","0.0-208.0","32c05fch","1280","720","","","","","","","","","","","null","+","Fixation - short","","null","","","","","","","","","","","","","","","","",""
"","html-keyboard-response","149","279801","0.0-209.0","32c05fch","","","","","","","","","","","","","433","jlm","Diagnostic trial","","j","","0","6","8","false","false","false","both pre & post","LEFT","RIGHT","j","1","false","","","",""
"","html-keyboard-response","150","280557","0.0-212.0","32c05fch","1280","720","","","","","","","","","","","null","+","Fixation - short","","null","","","","","","","","","","","","","","","","",""
"","html-keyboard-response","151","281089","0.0-213.0","32c05fch","","","","","","","","","","","","","531","jlm","Diagnostic trial","","f","","0","7","8","false","false","true","both pre & post","LEFT","LEFT","f","1","true","","","",""
"","html-keyboard-response","152","281852","0.0-216.0","32c05fch","1280","720","","","","","","","","","","","null","+","Fixation - short","","null","","","","","","","","","","","","","","","","",""
"","canvas-keyboard-response","153","283115","0.0-217.0","32c05fch","","","","","","","","","","","","","null","Cue","Cue","","null","","0","7","","","false","","","","","","","","","","",""
"","html-keyboard-response","154","283880","0.0-218.0","32c05fch","1280","720","","","","","","","","","","","null","+","Fixation - short","","null","","","","","","","","","","","","","","","","",""
"","html-keyboard-response","155","284523","0.0-219.0","32c05fch","","","","","","","","","","","","","642","jlm","Diagnostic trial","","f","","0","8","8","true","false","true","both pre & post","LEFT","LEFT","f","1","true","","","",""
"","html-keyboard-response","156","285287","0.0-222.0","32c05fch","1280","720","","","","","","","","","","","null","+","Fixation - short","","null","","","","","","","","","","","","","","","","",""
"","html-keyboard-response","157","285994","0.0-223.0","32c05fch","","","","","","","","","","","","","706","mda","Diagnostic trial","","f","","0","9","8","true","false","true","both pre & post","RIGHT","LEFT","f","1","false","","","",""
"","html-keyboard-response","158","286757","0.0-226.0","32c05fch","1280","720","","","","","","","","","","","null","+","Fixation - short","","null","","","","","","","","","","","","","","","","",""
"","html-keyboard-response","159","287508","0.0-227.0","32c05fch","","","","","","","","","","","","","750","jlm","Diagnostic trial","","f","","0","10","8","true","false","false","both pre & post","LEFT","RIGHT","j","0","false","","","",""
"","call-function","160","287509","0.0-229.0-0.0","32c05fch","","","","","","","","","","","","","","","","","","","","","","","","","","","","","","","","","",""
"","html-keyboard-response","161","287822","0.0-229.0-1.0","32c05fch","1280","720","","","","","","","","","","","null","Wrong","Feedback","","null","","","","","","","","","","","","","","","","",""
"","call-function","162","287822","0.0-229.0-2.0","32c05fch","","","","","","","","","","","","","","","","","","","","","","","","","","","","","","","","","",""
"","html-keyboard-response","163","288583","0.0-230.0","32c05fch","1280","720","","","","","","","","","","","null","+","Fixation - short","","null","","","","","","","","","","","","","","","","",""
"","html-keyboard-response","164","289238","0.0-231.0","32c05fch","","","","","","","","","","","","","654","jlm","Diagnostic trial","","f","","0","11","8","true","false","true","both pre & post","LEFT","LEFT","f","1","true","","","",""
"","html-keyboard-response","165","290003","0.0-234.0","32c05fch","1280","720","","","","","","","","","","","null","+","Fixation - short","","null","","","","","","","","","","","","","","","","",""
"","html-keyboard-response","166","290834","0.0-235.0","32c05fch","","","","","","","","","","","","","830","mda","Inducer trial","","j","","0","","","","true","","","","","j","1","","false","RIGHT","",""
"","html-keyboard-response","167","291598","0.0-238.0","32c05fch","1280","720","","","","","","","","","","","null","+","Fixation - short","","null","","","","","","","","","","","","","","","","",""
"","html-keyboard-response","168","297139","0.0-239.0","32c05fch","","","","","","","","","","","","","5540","If amb press LEFT | If ivr press RIGHT","Inducer instructions",""," ","","1","","","","","","","","","","","","","","",""
"","html-keyboard-response","169","297902","0.0-240.0","32c05fch","1280","720","","","","","","","","","","","null","+","Fixation - short","","null","","","","","","","","","","","","","","","","",""
"","html-keyboard-response","170","298777","0.0-241.0","32c05fch","","","","","","","","","","","","","873","amb","Diagnostic trial","","f","","1","0","8","false","false","true","both pre & post","LEFT","LEFT","f","1","true","","","",""
"","html-keyboard-response","171","299532","0.0-244.0","32c05fch","1280","720","","","","","","","","","","","null","+","Fixation - short","","null","","","","","","","","","","","","","","","","",""
"","html-keyboard-response","172","300503","0.0-245.0","32c05fch","","","","","","","","","","","","","970","ivr","Diagnostic trial","","j","","1","1","8","false","false","true","both pre & post","RIGHT","LEFT","f","0","false","","","",""
"","call-function","173","300504","0.0-247.0-0.0","32c05fch","","","","","","","","","","","","","","","","","","","","","","","","","","","","","","","","","",""
"","html-keyboard-response","174","300811","0.0-247.0-1.0","32c05fch","1280","720","","","","","","","","","","","null","Wrong","Feedback","","null","","","","","","","","","","","","","","","","",""
"","call-function","175","300812","0.0-247.0-2.0","32c05fch","","","","","","","","","","","","","","","","","","","","","","","","","","","","","","","","","",""
"","html-keyboard-response","176","301563","0.0-248.0","32c05fch","1280","720","","","","","","","","","","","null","+","Fixation - short","","null","","","","","","","","","","","","","","","","",""
"","html-keyboard-response","177","302495","0.0-249.0","32c05fch","","","","","","","","","","","","","931","amb","Diagnostic trial","","j","","1","2","8","false","false","false","both pre & post","LEFT","RIGHT","j","1","false","","","",""
"","html-keyboard-response","178","303260","0.0-252.0","32c05fch","1280","720","","","","","","","","","","","null","+","Fixation - short","","null","","","","","","","","","","","","","","","","",""
"","html-keyboard-response","179","304000","0.0-253.0","32c05fch","","","","","","","","","","","","","739","ivr","Diagnostic trial","","f","","1","3","8","false","false","true","both pre & post","RIGHT","LEFT","f","1","false","","","",""
"","html-keyboard-response","180","304762","0.0-256.0","32c05fch","1280","720","","","","","","","","","","","null","+","Fixation - short","","null","","","","","","","","","","","","","","","","",""
"","html-keyboard-response","181","305562","0.0-257.0","32c05fch","","","","","","","","","","","","","799","amb","Diagnostic trial","","f","","1","4","8","false","false","true","both pre & post","LEFT","LEFT","f","1","true","","","",""
"","html-keyboard-response","182","306322","0.0-260.0","32c05fch","1280","720","","","","","","","","","","","null","+","Fixation - short","","null","","","","","","","","","","","","","","","","",""
"","html-keyboard-response","183","307031","0.0-261.0","32c05fch","","","","","","","","","","","","","708","amb","Diagnostic trial","","j","","1","5","8","false","false","false","both pre & post","LEFT","RIGHT","j","1","false","","","",""
"","html-keyboard-response","184","307792","0.0-264.0","32c05fch","1280","720","","","","","","","","","","","null","+","Fixation - short","","null","","","","","","","","","","","","","","","","",""
"","html-keyboard-response","185","308520","0.0-265.0","32c05fch","","","","","","","","","","","","","727","amb","Diagnostic trial","","f","","1","6","8","false","false","true","both pre & post","LEFT","LEFT","f","1","true","","","",""
"","html-keyboard-response","186","309284","0.0-268.0","32c05fch","1280","720","","","","","","","","","","","null","+","Fixation - short","","null","","","","","","","","","","","","","","","","",""
"","html-keyboard-response","187","309921","0.0-269.0","32c05fch","","","","","","","","","","","","","636","ivr","Diagnostic trial","","f","","1","7","8","false","false","true","both pre & post","RIGHT","LEFT","f","1","false","","","",""
"","html-keyboard-response","188","310682","0.0-272.0","32c05fch","1280","720","","","","","","","","","","","null","+","Fixation - short","","null","","","","","","","","","","","","","","","","",""
"","canvas-keyboard-response","189","311938","0.0-273.0","32c05fch","","","","","","","","","","","","","null","Cue","Cue","","null","","1","7","","","false","","","","","","","","","","",""
"","html-keyboard-response","190","312701","0.0-274.0","32c05fch","1280","720","","","","","","","","","","","null","+","Fixation - short","","null","","","","","","","","","","","","","","","","",""
"","html-keyboard-response","191","313486","0.0-275.0","32c05fch","","","","","","","","","","","","","784","amb","Diagnostic trial","","j","","1","8","8","true","false","false","both pre & post","LEFT","RIGHT","j","1","false","","","",""
"","html-keyboard-response","192","314250","0.0-278.0","32c05fch","1280","720","","","","","","","","","","","null","+","Fixation - short","","null","","","","","","","","","","","","","","","","",""
"","html-keyboard-response","193","314918","0.0-279.0","32c05fch","","","","","","","","","","","","","667","amb","Diagnostic trial","","j","","1","9","8","true","false","false","both pre & post","LEFT","RIGHT","j","1","false","","","",""
"","html-keyboard-response","194","315685","0.0-282.0","32c05fch","1280","720","","","","","","","","","","","null","+","Fixation - short","","null","","","","","","","","","","","","","","","","",""
"","html-keyboard-response","195","316831","0.0-283.0","32c05fch","","","","","","","","","","","","","1146","ivr","Inducer trial","","j","","1","","","","true","","","","","j","1","","false","RIGHT","",""
"","html-keyboard-response","196","317583","0.0-286.0","32c05fch","1280","720","","","","","","","","","","","null","+","Fixation - short","","null","","","","","","","","","","","","","","","","",""
"","html-keyboard-response","197","319659","0.0-287.0","32c05fch","","","","","","","","","","","","","2074","If faq press LEFT | If pbz press RIGHT","Inducer instructions",""," ","","2","","","","","","","","","","","","","","",""
"","html-keyboard-response","198","320412","0.0-288.0","32c05fch","1280","720","","","","","","","","","","","null","+","Fixation - short","","null","","","","","","","","","","","","","","","","",""
"","html-keyboard-response","199","321392","0.0-289.0","32c05fch","","","","","","","","","","","","","979","faq","Diagnostic trial","","j","","2","0","8","false","false","true","both pre & post","LEFT","LEFT","f","0","true","","","",""
"","call-function","200","321393","0.0-291.0-0.0","32c05fch","","","","","","","","","","","","","","","","","","","","","","","","","","","","","","","","","",""
"","html-keyboard-response","201","321695","0.0-291.0-1.0","32c05fch","1280","720","","","","","","","","","","","null","Wrong","Feedback","","null","","","","","","","","","","","","","","","","",""
"","call-function","202","321696","0.0-291.0-2.0","32c05fch","","","","","","","","","","","","","","","","","","","","","","","","","","","","","","","","","",""
"","html-keyboard-response","203","322461","0.0-292.0","32c05fch","1280","720","","","","","","","","","","","null","+","Fixation - short","","null","","","","","","","","","","","","","","","","",""
"","html-keyboard-response","204","323001","0.0-293.0","32c05fch","","","","","","","","","","","","","539","pbz","Diagnostic trial","","f","","2","1","8","false","false","true","both pre & post","RIGHT","LEFT","f","1","false","","","",""
"","html-keyboard-response","205","323760","0.0-296.0","32c05fch","1280","720","","","","","","","","","","","null","+","Fixation - short","","null","","","","","","","","","","","","","","","","",""
"","html-keyboard-response","206","324396","0.0-297.0","32c05fch","","","","","","","","","","","","","635","faq","Diagnostic trial","","f","","2","2","8","false","false","true","both pre & post","LEFT","LEFT","f","1","true","","","",""
"","html-keyboard-response","207","325152","0.0-300.0","32c05fch","1280","720","","","","","","","","","","","null","+","Fixation - short","","null","","","","","","","","","","","","","","","","",""
"","html-keyboard-response","208","325948","0.0-301.0","32c05fch","","","","","","","","","","","","","796","faq","Diagnostic trial","","j","","2","3","8","false","false","false","both pre & post","LEFT","RIGHT","j","1","false","","","",""
"","html-keyboard-response","209","326710","0.0-304.0","32c05fch","1280","720","","","","","","","","","","","null","+","Fixation - short","","null","","","","","","","","","","","","","","","","",""
"","html-keyboard-response","210","327837","0.0-305.0","32c05fch","","","","","","","","","","","","","1127","pbz","Diagnostic trial","","j","","2","4","8","false","false","false","both pre & post","RIGHT","RIGHT","j","1","true","","","",""
"","html-keyboard-response","211","328597","0.0-308.0","32c05fch","1280","720","","","","","","","","","","","null","+","Fixation - short","","null","","","","","","","","","","","","","","","","",""
"","html-keyboard-response","212","329736","0.0-309.0","32c05fch","","","","","","","","","","","","","1138","faq","Diagnostic trial","","f","","2","5","8","false","false","true","both pre & post","LEFT","LEFT","f","1","true","","","",""
"","html-keyboard-response","213","330501","0.0-312.0","32c05fch","1280","720","","","","","","","","","","","null","+","Fixation - short","","null","","","","","","","","","","","","","","","","",""
"","html-keyboard-response","214","331425","0.0-313.0","32c05fch","","","","","","","","","","","","","924","faq","Diagnostic trial","","j","","2","6","8","false","false","false","both pre & post","LEFT","RIGHT","j","1","false","","","",""
"","html-keyboard-response","215","332179","0.0-316.0","32c05fch","1280","720","","","","","","","","","","","null","+","Fixation - short","","null","","","","","","","","","","","","","","","","",""
"","html-keyboard-response","216","332834","0.0-317.0","32c05fch","","","","","","","","","","","","","653","pbz","Diagnostic trial","","f","","2","7","8","false","false","true","both pre & post","RIGHT","LEFT","f","1","false","","","",""
"","html-keyboard-response","217","333600","0.0-320.0","32c05fch","1280","720","","","","","","","","","","","null","+","Fixation - short","","null","","","","","","","","","","","","","","","","",""
"","canvas-keyboard-response","218","334864","0.0-321.0","32c05fch","","","","","","","","","","","","","null","Cue","Cue","","null","","2","7","","","false","","","","","","","","","","",""
"","html-keyboard-response","219","335618","0.0-322.0","32c05fch","1280","720","","","","","","","","","","","null","+","Fixation - short","","null","","","","","","","","","","","","","","","","",""
"","html-keyboard-response","220","336319","0.0-323.0","32c05fch","","","","","","","","","","","","","700","pbz","Diagnostic trial","","f","","2","8","8","true","false","true","both pre & post","RIGHT","LEFT","f","1","false","","","",""
"","html-keyboard-response","221","337081","0.0-326.0","32c05fch","1280","720","","","","","","","","","","","null","+","Fixation - short","","null","","","","","","","","","","","","","","","","",""
"","html-keyboard-response","222","338250","0.0-327.0","32c05fch","","","","","","","","","","","","","1168","faq","Diagnostic trial","","j","","2","9","8","true","false","false","both pre & post","LEFT","RIGHT","j","1","false","","","",""
"","html-keyboard-response","223","339004","0.0-330.0","32c05fch","1280","720","","","","","","","","","","","null","+","Fixation - short","","null","","","","","","","","","","","","","","","","",""
"","html-keyboard-response","224","340190","0.0-331.0","32c05fch","","","","","","","","","","","","","1185","faq","Inducer trial","","f","","2","","","","true","","","","","f","1","","false","LEFT","",""
"","html-keyboard-response","225","340955","0.0-334.0","32c05fch","1280","720","","","","","","","","","","","null","+","Fixation - short","","null","","","","","","","","","","","","","","","","",""
"","html-keyboard-response","226","342399","0.0-335.0","32c05fch","","","","","","","","","","","","","1442","If kmh press LEFT | If anz press RIGHT","Inducer instructions",""," ","","3","","","","","","","","","","","","","","",""
"","html-keyboard-response","227","343157","0.0-336.0","32c05fch","1280","720","","","","","","","","","","","null","+","Fixation - short","","null","","","","","","","","","","","","","","","","",""
"","html-keyboard-response","228","343964","0.0-337.0","32c05fch","","","","","","","","","","","","","806","kmh","Diagnostic trial","","f","","3","0","5","false","false","true","both pre & post","LEFT","LEFT","f","1","true","","","",""
"","html-keyboard-response","229","344723","0.0-340.0","32c05fch","1280","720","","","","","","","","","","","null","+","Fixation - short","","null","","","","","","","","","","","","","","","","",""
"","html-keyboard-response","230","345341","0.0-341.0","32c05fch","","","","","","","","","","","","","617","anz","Diagnostic trial","","f","","3","1","5","false","false","true","both pre & post","RIGHT","LEFT","f","1","false","","","",""
"","html-keyboard-response","231","346098","0.0-344.0","32c05fch","1280","720","","","","","","","","","","","null","+","Fixation - short","","null","","","","","","","","","","","","","","","","",""
"","html-keyboard-response","232","346856","0.0-345.0","32c05fch","","","","","","","","","","","","","757","kmh","Diagnostic trial","","j","","3","2","5","false","false","false","both pre & post","LEFT","RIGHT","j","1","false","","","",""
"","html-keyboard-response","233","347617","0.0-348.0","32c05fch","1280","720","","","","","","","","","","","null","+","Fixation - short","","null","","","","","","","","","","","","","","","","",""
"","html-keyboard-response","234","348162","0.0-349.0","32c05fch","","","","","","","","","","","","","544","anz","Diagnostic trial","","j","","3","3","5","false","false","false","both pre & post","RIGHT","RIGHT","j","1","true","","","",""
"","html-keyboard-response","235","348919","0.0-352.0","32c05fch","1280","720","","","","","","","","","","","null","+","Fixation - short","","null","","","","","","","","","","","","","","","","",""
"","html-keyboard-response","236","349739","0.0-353.0","32c05fch","","","","","","","","","","","","","819","anz","Diagnostic trial","","f","","3","4","5","false","false","true","both pre & post","RIGHT","LEFT","f","1","false","","","",""
"","html-keyboard-response","237","350494","0.0-356.0","32c05fch","1280","720","","","","","","","","","","","null","+","Fixation - short","","null","","","","","","","","","","","","","","","","",""
"","canvas-keyboard-response","238","351746","0.0-357.0","32c05fch","","","","","","","","","","","","","null","Cue","Cue","","null","","3","4","","","false","","","","","","","","","","",""
"","html-keyboard-response","239","352511","0.0-358.0","32c05fch","1280","720","","","","","","","","","","","null","+","Fixation - short","","null","","","","","","","","","","","","","","","","",""
"","html-keyboard-response","240","353395","0.0-359.0","32c05fch","","","","","","","","","","","","","882","kmh","Diagnostic trial","","f","","3","5","5","true","false","true","both pre & post","LEFT","LEFT","f","1","true","","","",""
"","html-keyboard-response","241","354149","0.0-362.0","32c05fch","1280","720","","","","","","","","","","","null","+","Fixation - short","","null","","","","","","","","","","","","","","","","",""
"","html-keyboard-response","242","354860","0.0-363.0","32c05fch","","","","","","","","","","","","","710","anz","Diagnostic trial","","f","","3","6","5","true","false","true","both pre & post","RIGHT","LEFT","f","1","false","","","",""
"","html-keyboard-response","243","355619","0.0-366.0","32c05fch","1280","720","","","","","","","","","","","null","+","Fixation - short","","null","","","","","","","","","","","","","","","","",""
"","html-keyboard-response","244","356192","0.0-367.0","32c05fch","","","","","","","","","","","","","572","kmh","Diagnostic trial","","f","","3","7","5","true","false","true","both pre & post","LEFT","LEFT","f","1","true","","","",""
"","html-keyboard-response","245","356944","0.0-370.0","32c05fch","1280","720","","","","","","","","","","","null","+","Fixation - short","","null","","","","","","","","","","","","","","","","",""
"","html-keyboard-response","246","357592","0.0-371.0","32c05fch","","","","","","","","","","","","","647","kmh","Inducer trial","","f","","3","","","","true","","","","","f","1","","false","LEFT","",""
"","html-keyboard-response","247","358351","0.0-374.0","32c05fch","1280","720","","","","","","","","","","","null","+","Fixation - short","","null","","","","","","","","","","","","","","","","",""
"","html-keyboard-response","248","360963","0.0-375.0","32c05fch","","","","","","","","","","","","","2612","If flh press LEFT | If rrd press RIGHT","Inducer instructions",""," ","","4","","","","","","","","","","","","","","",""
"","html-keyboard-response","249","361728","0.0-376.0","32c05fch","1280","720","","","","","","","","","","","null","+","Fixation - short","","null","","","","","","","","","","","","","","","","",""
"","html-keyboard-response","250","362850","0.0-377.0","32c05fch","","","","","","","","","","","","","1121","rrd","Diagnostic trial","","j","","4","0","4","false","false","false","both pre & post","RIGHT","RIGHT","j","1","true","","","",""
"","html-keyboard-response","251","363615","0.0-380.0","32c05fch","1280","720","","","","","","","","","","","null","+","Fixation - short","","null","","","","","","","","","","","","","","","","",""
"","html-keyboard-response","252","364205","0.0-381.0","32c05fch","","","","","","","","","","","","","590","flh","Diagnostic trial","","f","","4","1","4","false","false","true","both pre & post","LEFT","LEFT","f","1","true","","","",""
"","html-keyboard-response","253","364958","0.0-384.0","32c05fch","1280","720","","","","","","","","","","","null","+","Fixation - short","","null","","","","","","","","","","","","","","","","",""
"","html-keyboard-response","254","365940","0.0-385.0","32c05fch","","","","","","","","","","","","","981","flh","Diagnostic trial","","j","","4","2","4","false","false","false","both pre & post","LEFT","RIGHT","j","1","false","","","",""
"","html-keyboard-response","255","366703","0.0-388.0","32c05fch","1280","720","","","","","","","","","","","null","+","Fixation - short","","null","","","","","","","","","","","","","","","","",""
"","html-keyboard-response","256","367359","0.0-389.0","32c05fch","","","","","","","","","","","","","655","rrd","Diagnostic trial","","j","","4","3","4","false","false","false","both pre & post","RIGHT","RIGHT","j","1","true","","","",""
"","html-keyboard-response","257","368125","0.0-392.0","32c05fch","1280","720","","","","","","","","","","","null","+","Fixation - short","","null","","","","","","","","","","","","","","","","",""
"","canvas-keyboard-response","258","369377","0.0-393.0","32c05fch","","","","","","","","","","","","","null","Cue","Cue","","null","","4","3","","","false","","","","","","","","","","",""
"","html-keyboard-response","259","370130","0.0-394.0","32c05fch","1280","720","","","","","","","","","","","null","+","Fixation - short","","null","","","","","","","","","","","","","","","","",""
"","html-keyboard-response","260","371396","0.0-395.0","32c05fch","","","","","","","","","","","","","1265","flh","Diagnostic trial","","f","","4","4","4","true","false","true","both pre & post","LEFT","LEFT","f","1","true","","","",""
"","html-keyboard-response","261","372152","0.0-398.0","32c05fch","1280","720","","","","","","","","","","","null","+","Fixation - short","","null","","","","","","","","","","","","","","","","",""
"","html-keyboard-response","262","372756","0.0-399.0","32c05fch","","","","","","","","","","","","","603","flh","Diagnostic trial","","f","","4","5","4","true","false","true","both pre & post","LEFT","LEFT","f","1","true","","","",""
"","html-keyboard-response","263","373510","0.0-402.0","32c05fch","1280","720","","","","","","","","","","","null","+","Fixation - short","","null","","","","","","","","","","","","","","","","",""
"","html-keyboard-response","264","374173","0.0-403.0","32c05fch","","","","","","","","","","","","","662","rrd","Diagnostic trial","","j","","4","6","4","true","false","false","both pre & post","RIGHT","RIGHT","j","1","true","","","",""
"","html-keyboard-response","265","374926","0.0-406.0","32c05fch","1280","720","","","","","","","","","","","null","+","Fixation - short","","null","","","","","","","","","","","","","","","","",""
"","html-keyboard-response","266","375502","0.0-407.0","32c05fch","","","","","","","","","","","","","576","flh","Diagnostic trial","","f","","4","7","4","true","false","true","both pre & post","LEFT","LEFT","f","1","true","","","",""
"","html-keyboard-response","267","376255","0.0-410.0","32c05fch","1280","720","","","","","","","","","","","null","+","Fixation - short","","null","","","","","","","","","","","","","","","","",""
"","html-keyboard-response","268","377339","0.0-411.0","32c05fch","","","","","","","","","","","","","1084","flh","Inducer trial","","f","","4","","","","true","","","","","f","1","","false","LEFT","",""
"","html-keyboard-response","269","378100","0.0-414.0","32c05fch","1280","720","","","","","","","","","","","null","+","Fixation - short","","null","","","","","","","","","","","","","","","","",""
"","html-keyboard-response","270","379755","0.0-415.0","32c05fch","","","","","","","","","","","","","1654","If kue press LEFT | If imm press RIGHT","Inducer instructions",""," ","","5","","","","","","","","","","","","","","",""
"","html-keyboard-response","271","380507","0.0-416.0","32c05fch","1280","720","","","","","","","","","","","null","+","Fixation - short","","null","","","","","","","","","","","","","","","","",""
"","html-keyboard-response","272","381242","0.0-417.0","32c05fch","","","","","","","","","","","","","735","kue","Diagnostic trial","","f","","5","0","8","false","false","false","both pre & post","LEFT","RIGHT","j","0","false","","","",""
"","call-function","273","381243","0.0-419.0-0.0","32c05fch","","","","","","","","","","","","","","","","","","","","","","","","","","","","","","","","","",""
"","html-keyboard-response","274","381557","0.0-419.0-1.0","32c05fch","1280","720","","","","","","","","","","","null","Wrong","Feedback","","null","","","","","","","","","","","","","","","","",""
"","call-function","275","381558","0.0-419.0-2.0","32c05fch","","","","","","","","","","","","","","","","","","","","","","","","","","","","","","","","","",""
"","html-keyboard-response","276","382324","0.0-420.0","32c05fch","1280","720","","","","","","","","","","","null","+","Fixation - short","","null","","","","","","","","","","","","","","","","",""
"","html-keyboard-response","277","382962","0.0-421.0","32c05fch","","","","","","","","","","","","","637","imm","Diagnostic trial","","f","","5","1","8","false","false","true","both pre & post","RIGHT","LEFT","f","1","false","","","",""
"","html-keyboard-response","278","383717","0.0-424.0","32c05fch","1280","720","","","","","","","","","","","null","+","Fixation - short","","null","","","","","","","","","","","","","","","","",""
"","html-keyboard-response","279","384248","0.0-425.0","32c05fch","","","","","","","","","","","","","530","kue","Diagnostic trial","","f","","5","2","8","false","false","true","both pre & post","LEFT","LEFT","f","1","true","","","",""
"","html-keyboard-response","280","385013","0.0-428.0","32c05fch","1280","720","","","","","","","","","","","null","+","Fixation - short","","null","","","","","","","","","","","","","","","","",""
"","html-keyboard-response","281","385453","0.0-429.0","32c05fch","","","","","","","","","","","","","439","kue","Diagnostic trial","","f","","5","3","8","false","false","true","both pre & post","LEFT","LEFT","f","1","true","","","",""
"","html-keyboard-response","282","386214","0.0-432.0","32c05fch","1280","720","","","","","","","","","","","null","+","Fixation - short","","null","","","","","","","","","","","","","","","","",""
"","html-keyboard-response","283","386660","0.0-433.0","32c05fch","","","","","","","","","","","","","445","kue","Diagnostic trial","","f","","5","4","8","false","false","true","both pre & post","LEFT","LEFT","f","1","true","","","",""
"","html-keyboard-response","284","387417","0.0-436.0","32c05fch","1280","720","","","","","","","","","","","null","+","Fixation - short","","null","","","","","","","","","","","","","","","","",""
"","html-keyboard-response","285","387983","0.0-437.0","32c05fch","","","","","","","","","","","","","566","kue","Diagnostic trial","","j","","5","5","8","false","false","false","both pre & post","LEFT","RIGHT","j","1","false","","","",""
"","html-keyboard-response","286","388745","0.0-440.0","32c05fch","1280","720","","","","","","","","","","","null","+","Fixation - short","","null","","","","","","","","","","","","","","","","",""
"","html-keyboard-response","287","389259","0.0-441.0","32c05fch","","","","","","","","","","","","","513","imm","Diagnostic trial","","j","","5","6","8","false","false","false","both pre & post","RIGHT","RIGHT","j","1","true","","","",""
"","html-keyboard-response","288","390011","0.0-444.0","32c05fch","1280","720","","","","","","","","","","","null","+","Fixation - short","","null","","","","","","","","","","","","","","","","",""
"","html-keyboard-response","289","390487","0.0-445.0","32c05fch","","","","","","","","","","","","","476","imm","Diagnostic trial","","j","","5","7","8","false","false","false","both pre & post","RIGHT","RIGHT","j","1","true","","","",""
"","html-keyboard-response","290","391243","0.0-448.0","32c05fch","1280","720","","","","","","","","","","","null","+","Fixation - short","","null","","","","","","","","","","","","","","","","",""
"","canvas-keyboard-response","291","392506","0.0-449.0","32c05fch","","","","","","","","","","","","","null","Cue","Cue","","null","","5","7","","","false","","","","","","","","","","",""
"","html-keyboard-response","292","393266","0.0-450.0","32c05fch","1280","720","","","","","","","","","","","null","+","Fixation - short","","null","","","","","","","","","","","","","","","","",""
"","html-keyboard-response","293","394150","0.0-451.0","32c05fch","","","","","","","","","","","","","883","kue","Diagnostic trial","","f","","5","8","8","true","false","true","both pre & post","LEFT","LEFT","f","1","true","","","",""
"","html-keyboard-response","294","394909","0.0-454.0","32c05fch","1280","720","","","","","","","","","","","null","+","Fixation - short","","null","","","","","","","","","","","","","","","","",""
"","html-keyboard-response","295","396154","0.0-455.0","32c05fch","","","","","","","","","","","","","1245","kue","Diagnostic trial","","j","","5","9","8","true","false","false","both pre & post","LEFT","RIGHT","j","1","false","","","",""
"","html-keyboard-response","296","396908","0.0-458.0","32c05fch","1280","720","","","","","","","","","","","null","+","Fixation - short","","null","","","","","","","","","","","","","","","","",""
"","html-keyboard-response","297","398241","0.0-459.0","32c05fch","","","","","","","","","","","","","1333","imm","Diagnostic trial","","f","","5","10","8","true","false","true","both pre & post","RIGHT","LEFT","f","1","false","","","",""
"","html-keyboard-response","298","398999","0.0-462.0","32c05fch","1280","720","","","","","","","","","","","null","+","Fixation - short","","null","","","","","","","","","","","","","","","","",""
"","html-keyboard-response","299","400063","0.0-463.0","32c05fch","","","","","","","","","","","","","1064","imm","Inducer trial","","j","","5","","","","true","","","","","j","1","","false","RIGHT","",""
"","html-keyboard-response","300","400819","0.0-466.0","32c05fch","1280","720","","","","","","","","","","","null","+","Fixation - short","","null","","","","","","","","","","","","","","","","",""
"","html-keyboard-response","301","402237","0.0-467.0","32c05fch","","","","","","","","","","","","","1417","If eht press LEFT | If kho press RIGHT","Inducer instructions",""," ","","6","","","","","","","","","","","","","","",""
"","html-keyboard-response","302","402995","0.0-468.0","32c05fch","1280","720","","","","","","","","","","","null","+","Fixation - short","","null","","","","","","","","","","","","","","","","",""
"","html-keyboard-response","303","404181","0.0-469.0","32c05fch","","","","","","","","","","","","","1184","kho","Diagnostic trial","","f","","6","0","7","false","false","true","both pre & post","RIGHT","LEFT","f","1","false","","","",""
"","html-keyboard-response","304","404935","0.0-472.0","32c05fch","1280","720","","","","","","","","","","","null","+","Fixation - short","","null","","","","","","","","","","","","","","","","",""
"","html-keyboard-response","305","405542","0.0-473.0","32c05fch","","","","","","","","","","","","","605","eht","Diagnostic trial","","f","","6","1","7","false","false","true","both pre & post","LEFT","LEFT","f","1","true","","","",""
"","html-keyboard-response","306","406299","0.0-476.0","32c05fch","1280","720","","","","","","","","","","","null","+","Fixation - short","","null","","","","","","","","","","","","","","","","",""
"","html-keyboard-response","307","406966","0.0-477.0","32c05fch","","","","","","","","","","","","","666","kho","Diagnostic trial","","j","","6","2","7","false","false","false","both pre & post","RIGHT","RIGHT","j","1","true","","","",""
"","html-keyboard-response","308","407720","0.0-480.0","32c05fch","1280","720","","","","","","","","","","","null","+","Fixation - short","","null","","","","","","","","","","","","","","","","",""
"","html-keyboard-response","309","408154","0.0-481.0","32c05fch","","","","","","","","","","","","","433","kho","Diagnostic trial","","j","","6","3","7","false","false","true","both pre & post","RIGHT","LEFT","f","0","false","","","",""
"","call-function","310","408154","0.0-483.0-0.0","32c05fch","","","","","","","","","","","","","","","","","","","","","","","","","","","","","","","","","",""
"","html-keyboard-response","311","408469","0.0-483.0-1.0","32c05fch","1280","720","","","","","","","","","","","null","Wrong","Feedback","","null","","","","","","","","","","","","","","","","",""
"","call-function","312","408469","0.0-483.0-2.0","32c05fch","","","","","","","","","","","","","","","","","","","","","","","","","","","","","","","","","",""
"","html-keyboard-response","313","409234","0.0-484.0","32c05fch","1280","720","","","","","","","","","","","null","+","Fixation - short","","null","","","","","","","","","","","","","","","","",""
"","html-keyboard-response","314","409764","0.0-485.0","32c05fch","","","","","","","","","","","","","529","kho","Diagnostic trial","","f","","6","4","7","false","false","true","both pre & post","RIGHT","LEFT","f","1","false","","","",""
"","html-keyboard-response","315","410520","0.0-488.0","32c05fch","1280","720","","","","","","","","","","","null","+","Fixation - short","","null","","","","","","","","","","","","","","","","",""
"","html-keyboard-response","316","411237","0.0-489.0","32c05fch","","","","","","","","","","","","","716","eht","Diagnostic trial","","f","","6","5","7","false","false","true","both pre & post","LEFT","LEFT","f","1","true","","","",""
"","html-keyboard-response","317","412005","0.0-492.0","32c05fch","1280","720","","","","","","","","","","","null","+","Fixation - short","","null","","","","","","","","","","","","","","","","",""
"","html-keyboard-response","318","412684","0.0-493.0","32c05fch","","","","","","","","","","","","","679","eht","Diagnostic trial","","j","","6","6","7","false","false","false","both pre & post","LEFT","RIGHT","j","1","false","","","",""
"","html-keyboard-response","319","413441","0.0-496.0","32c05fch","1280","720","","","","","","","","","","","null","+","Fixation - short","","null","","","","","","","","","","","","","","","","",""
"","canvas-keyboard-response","320","414707","0.0-497.0","32c05fch","","","","","","","","","","","","","null","Cue","Cue","","null","","6","6","","","false","","","","","","","","","","",""
"","html-keyboard-response","321","415470","0.0-498.0","32c05fch","1280","720","","","","","","","","","","","null","+","Fixation - short","","null","","","","","","","","","","","","","","","","",""
"","html-keyboard-response","322","416181","0.0-499.0","32c05fch","","","","","","","","","","","","","710","kho","Diagnostic trial","","f","","6","7","7","true","false","true","both pre & post","RIGHT","LEFT","f","1","false","","","",""
"","html-keyboard-response","323","416936","0.0-502.0","32c05fch","1280","720","","","","","","","","","","","null","+","Fixation - short","","null","","","","","","","","","","","","","","","","",""
"","html-keyboard-response","324","418101","0.0-503.0","32c05fch","","","","","","","","","","","","","1164","eht","Diagnostic trial","","f","","6","8","7","true","false","true","both pre & post","LEFT","LEFT","f","1","true","","","",""
"","html-keyboard-response","325","418866","0.0-506.0","32c05fch","1280","720","","","","","","","","","","","null","+","Fixation - short","","null","","","","","","","","","","","","","","","","",""
"","html-keyboard-response","326","419731","0.0-507.0","32c05fch","","","","","","","","","","","","","864","kho","Diagnostic trial","","j","","6","9","7","true","false","false","both pre & post","RIGHT","RIGHT","j","1","true","","","",""
"","html-keyboard-response","327","420486","0.0-510.0","32c05fch","1280","720","","","","","","","","","","","null","+","Fixation - short","","null","","","","","","","","","","","","","","","","",""
"","html-keyboard-response","328","421168","0.0-511.0","32c05fch","","","","","","","","","","","","","681","eht","Diagnostic trial","","j","","6","10","7","true","false","false","both pre & post","LEFT","RIGHT","j","1","false","","","",""
"","html-keyboard-response","329","421922","0.0-514.0","32c05fch","1280","720","","","","","","","","","","","null","+","Fixation - short","","null","","","","","","","","","","","","","","","","",""
"","html-keyboard-response","330","422623","0.0-515.0","32c05fch","","","","","","","","","","","","","700","eht","Inducer trial","","j","","6","","","","true","","","","","f","0","","false","LEFT","",""
"","call-function","331","422624","0.0-517.0-0.0","32c05fch","","","","","","","","","","","","","","","","","","","","","","","","","","","","","","","","","",""
"","html-keyboard-response","332","422929","0.0-517.0-1.0","32c05fch","1280","720","","","","","","","","","","","null","Wrong","Feedback","","null","","","","","","","","","","","","","","","","",""
"","call-function","333","422930","0.0-517.0-2.0","32c05fch","","","","","","","","","","","","","","","","","","","","","","","","","","","","","","","","","",""
"","html-keyboard-response","334","423695","0.0-518.0","32c05fch","1280","720","","","","","","","","","","","null","+","Fixation - short","","null","","","","","","","","","","","","","","","","",""
"","html-keyboard-response","335","425241","0.0-519.0","32c05fch","","","","","","","","","","","","","1545","If pph press LEFT | If adj press RIGHT","Inducer instructions",""," ","","7","","","","","","","","","","","","","","",""
"","html-keyboard-response","336","426007","0.0-520.0","32c05fch","1280","720","","","","","","","","","","","null","+","Fixation - short","","null","","","","","","","","","","","","","","","","",""
"","html-keyboard-response","337","426784","0.0-521.0","32c05fch","","","","","","","","","","","","","777","pph","Diagnostic trial","","f","","7","0","9","false","false","false","both pre & post","LEFT","RIGHT","j","0","false","","","",""
"","call-function","338","426785","0.0-523.0-0.0","32c05fch","","","","","","","","","","","","","","","","","","","","","","","","","","","","","","","","","",""
"","html-keyboard-response","339","427088","0.0-523.0-1.0","32c05fch","1280","720","","","","","","","","","","","null","Wrong","Feedback","","null","","","","","","","","","","","","","","","","",""
"","call-function","340","427089","0.0-523.0-2.0","32c05fch","","","","","","","","","","","","","","","","","","","","","","","","","","","","","","","","","",""
"","html-keyboard-response","341","427852","0.0-524.0","32c05fch","1280","720","","","","","","","","","","","null","+","Fixation - short","","null","","","","","","","","","","","","","","","","",""
"","html-keyboard-response","342","428495","0.0-525.0","32c05fch","","","","","","","","","","","","","643","pph","Diagnostic trial","","j","","7","1","9","false","false","false","both pre & post","LEFT","RIGHT","j","1","false","","","",""
"","html-keyboard-response","343","429253","0.0-528.0","32c05fch","1280","720","","","","","","","","","","","null","+","Fixation - short","","null","","","","","","","","","","","","","","","","",""
"","html-keyboard-response","344","429775","0.0-529.0","32c05fch","","","","","","","","","","","","","521","pph","Diagnostic trial","","f","","7","2","9","false","false","true","both pre & post","LEFT","LEFT","f","1","true","","","",""
"","html-keyboard-response","345","430539","0.0-532.0","32c05fch","1280","720","","","","","","","","","","","null","+","Fixation - short","","null","","","","","","","","","","","","","","","","",""
"","html-keyboard-response","346","431126","0.0-533.0","32c05fch","","","","","","","","","","","","","586","adj","Diagnostic trial","","f","","7","3","9","false","false","true","both pre & post","RIGHT","LEFT","f","1","false","","","",""
"","html-keyboard-response","347","431883","0.0-536.0","32c05fch","1280","720","","","","","","","","","","","null","+","Fixation - short","","null","","","","","","","","","","","","","","","","",""
"","html-keyboard-response","348","432579","0.0-537.0","32c05fch","","","","","","","","","","","","","695","pph","Diagnostic trial","","f","","7","4","9","false","false","true","both pre & post","LEFT","LEFT","f","1","true","","","",""
"","html-keyboard-response","349","433335","0.0-540.0","32c05fch","1280","720","","","","","","","","","","","null","+","Fixation - short","","null","","","","","","","","","","","","","","","","",""
"","html-keyboard-response","350","433818","0.0-541.0","32c05fch","","","","","","","","","","","","","482","pph","Diagnostic trial","","f","","7","5","9","false","false","true","both pre & post","LEFT","LEFT","f","1","true","","","",""
"","html-keyboard-response","351","434584","0.0-544.0","32c05fch","1280","720","","","","","","","","","","","null","+","Fixation - short","","null","","","","","","","","","","","","","","","","",""
"","html-keyboard-response","352","435005","0.0-545.0","32c05fch","","","","","","","","","","","","","420","pph","Diagnostic trial","","f","","7","6","9","false","false","true","both pre & post","LEFT","LEFT","f","1","true","","","",""
"","html-keyboard-response","353","435770","0.0-548.0","32c05fch","1280","720","","","","","","","","","","","null","+","Fixation - short","","null","","","","","","","","","","","","","","","","",""
"","html-keyboard-response","354","436288","0.0-549.0","32c05fch","","","","","","","","","","","","","517","pph","Diagnostic trial","","f","","7","7","9","false","false","true","both pre & post","LEFT","LEFT","f","1","true","","","",""
"","html-keyboard-response","355","437054","0.0-552.0","32c05fch","1280","720","","","","","","","","","","","null","+","Fixation - short","","null","","","","","","","","","","","","","","","","",""
"","html-keyboard-response","356","437706","0.0-553.0","32c05fch","","","","","","","","","","","","","652","adj","Diagnostic trial","","j","","7","8","9","false","false","false","both pre & post","RIGHT","RIGHT","j","1","true","","","",""
"","html-keyboard-response","357","438464","0.0-556.0","32c05fch","1280","720","","","","","","","","","","","null","+","Fixation - short","","null","","","","","","","","","","","","","","","","",""
"","canvas-keyboard-response","358","439730","0.0-557.0","32c05fch","","","","","","","","","","","","","null","Cue","Cue","","null","","7","8","","","false","","","","","","","","","","",""
"","html-keyboard-response","359","440483","0.0-558.0","32c05fch","1280","720","","","","","","","","","","","null","+","Fixation - short","","null","","","","","","","","","","","","","","","","",""
"","html-keyboard-response","360","441350","0.0-559.0","32c05fch","","","","","","","","","","","","","865","adj","Diagnostic trial","","j","","7","9","9","true","false","true","both pre & post","RIGHT","LEFT","f","0","false","","","",""
"","call-function","361","441351","0.0-561.0-0.0","32c05fch","","","","","","","","","","","","","","","","","","","","","","","","","","","","","","","","","",""
"","html-keyboard-response","362","441655","0.0-561.0-1.0","32c05fch","1280","720","","","","","","","","","","","null","Wrong","Feedback","","null","","","","","","","","","","","","","","","","",""
"","call-function","363","441655","0.0-561.0-2.0","32c05fch","","","","","","","","","","","","","","","","","","","","","","","","","","","","","","","","","",""
"","html-keyboard-response","364","442418","0.0-562.0","32c05fch","1280","720","","","","","","","","","","","null","+","Fixation - short","","null","","","","","","","","","","","","","","","","",""
"","html-keyboard-response","365","442995","0.0-563.0","32c05fch","","","","","","","","","","","","","576","pph","Diagnostic trial","","f","","7","10","9","true","false","true","both pre & post","LEFT","LEFT","f","1","true","","","",""
"","html-keyboard-response","366","443756","0.0-566.0","32c05fch","1280","720","","","","","","","","","","","null","+","Fixation - short","","null","","","","","","","","","","","","","","","","",""
"","html-keyboard-response","367","444488","0.0-567.0","32c05fch","","","","","","","","","","","","","730","pph","Diagnostic trial","","j","","7","11","9","true","false","false","both pre & post","LEFT","RIGHT","j","1","false","","","",""
"","html-keyboard-response","368","445254","0.0-570.0","32c05fch","1280","720","","","","","","","","","","","null","+","Fixation - short","","null","","","","","","","","","","","","","","","","",""
"","html-keyboard-response","369","446004","0.0-571.0","32c05fch","","","","","","","","","","","","","749","pph","Diagnostic trial","","j","","7","12","9","true","false","false","both pre & post","LEFT","RIGHT","j","1","false","","","",""
"","html-keyboard-response","370","446770","0.0-574.0","32c05fch","1280","720","","","","","","","","","","","null","+","Fixation - short","","null","","","","","","","","","","","","","","","","",""
"","html-keyboard-response","371","447880","0.0-575.0","32c05fch","","","","","","","","","","","","","1109","pph","Inducer trial","","f","","7","","","","true","","","","","f","1","","false","LEFT","",""
"","html-keyboard-response","372","448639","0.0-578.0","32c05fch","1280","720","","","","","","","","","","","null","+","Fixation - short","","null","","","","","","","","","","","","","","","","",""
"","html-keyboard-response","373","451439","0.0-579.0","32c05fch","","","","","","","","","","","","","2799","If frn press LEFT | If xlv press RIGHT","Inducer instructions",""," ","","8","","","","","","","","","","","","","","",""
"","html-keyboard-response","374","452195","0.0-580.0","32c05fch","1280","720","","","","","","","","","","","null","+","Fixation - short","","null","","","","","","","","","","","","","","","","",""
"","html-keyboard-response","375","453343","0.0-581.0","32c05fch","","","","","","","","","","","","","1148","xlv","Diagnostic trial","","j","","8","0","4","false","false","false","both pre & post","RIGHT","RIGHT","j","1","true","","","",""
"","html-keyboard-response","376","454098","0.0-584.0","32c05fch","1280","720","","","","","","","","","","","null","+","Fixation - short","","null","","","","","","","","","","","","","","","","",""
"","html-keyboard-response","377","454592","0.0-585.0","32c05fch","","","","","","","","","","","","","493","frn","Diagnostic trial","","j","","8","1","4","false","false","false","both pre & post","LEFT","RIGHT","j","1","false","","","",""
"","html-keyboard-response","378","455347","0.0-588.0","32c05fch","1280","720","","","","","","","","","","","null","+","Fixation - short","","null","","","","","","","","","","","","","","","","",""
"","html-keyboard-response","379","455966","0.0-589.0","32c05fch","","","","","","","","","","","","","619","frn","Diagnostic trial","","f","","8","2","4","false","false","true","both pre & post","LEFT","LEFT","f","1","true","","","",""
"","html-keyboard-response","380","456731","0.0-592.0","32c05fch","1280","720","","","","","","","","","","","null","+","Fixation - short","","null","","","","","","","","","","","","","","","","",""
"","html-keyboard-response","381","457187","0.0-593.0","32c05fch","","","","","","","","","","","","","455","frn","Diagnostic trial","","f","","8","3","4","false","false","true","both pre & post","LEFT","LEFT","f","1","true","","","",""
"","html-keyboard-response","382","457943","0.0-596.0","32c05fch","1280","720","","","","","","","","","","","null","+","Fixation - short","","null","","","","","","","","","","","","","","","","",""
"","canvas-keyboard-response","383","459202","0.0-597.0","32c05fch","","","","","","","","","","","","","null","Cue","Cue","","null","","8","3","","","false","","","","","","","","","","",""
"","html-keyboard-response","384","459956","0.0-598.0","32c05fch","1280","720","","","","","","","","","","","null","+","Fixation - short","","null","","","","","","","","","","","","","","","","",""
"","html-keyboard-response","385","460651","0.0-599.0","32c05fch","","","","","","","","","","","","","694","xlv","Diagnostic trial","","f","","8","4","4","true","false","true","both pre & post","RIGHT","LEFT","f","1","false","","","",""
"","html-keyboard-response","386","461406","0.0-602.0","32c05fch","1280","720","","","","","","","","","","","null","+","Fixation - short","","null","","","","","","","","","","","","","","","","",""
"","html-keyboard-response","387","462302","0.0-603.0","32c05fch","","","","","","","","","","","","","896","frn","Diagnostic trial","","j","","8","5","4","true","false","false","both pre & post","LEFT","RIGHT","j","1","false","","","",""
"","html-keyboard-response","388","463068","0.0-606.0","32c05fch","1280","720","","","","","","","","","","","null","+","Fixation - short","","null","","","","","","","","","","","","","","","","",""
"","html-keyboard-response","389","464152","0.0-607.0","32c05fch","","","","","","","","","","","","","1084","frn","Inducer trial","","f","","8","","","","true","","","","","f","1","","false","LEFT","",""
"","html-keyboard-response","390","464903","0.0-610.0","32c05fch","1280","720","","","","","","","","","","","null","+","Fixation - short","","null","","","","","","","","","","","","","","","","",""
"","html-keyboard-response","391","466203","0.0-611.0","32c05fch","","","","","","","","","","","","","1299","If fja press LEFT | If iei press RIGHT","Inducer instructions",""," ","","9","","","","","","","","","","","","","","",""
"","html-keyboard-response","392","466957","0.0-612.0","32c05fch","1280","720","","","","","","","","","","","null","+","Fixation - short","","null","","","","","","","","","","","","","","","","",""
"","html-keyboard-response","393","467731","0.0-613.0","32c05fch","","","","","","","","","","","","","772","fja","Diagnostic trial","","f","","9","0","4","false","false","false","both pre & post","LEFT","RIGHT","j","0","false","","","",""
"","call-function","394","467731","0.0-615.0-0.0","32c05fch","","","","","","","","","","","","","","","","","","","","","","","","","","","","","","","","","",""
"","html-keyboard-response","395","468041","0.0-615.0-1.0","32c05fch","1280","720","","","","","","","","","","","null","Wrong","Feedback","","null","","","","","","","","","","","","","","","","",""
"","call-function","396","468041","0.0-615.0-2.0","32c05fch","","","","","","","","","","","","","","","","","","","","","","","","","","","","","","","","","",""
"","html-keyboard-response","397","468797","0.0-616.0","32c05fch","1280","720","","","","","","","","","","","null","+","Fixation - short","","null","","","","","","","","","","","","","","","","",""
"","html-keyboard-response","398","469375","0.0-617.0","32c05fch","","","","","","","","","","","","","578","iei","Diagnostic trial","","j","","9","1","4","false","false","false","both pre & post","RIGHT","RIGHT","j","1","true","","","",""
"","html-keyboard-response","399","470141","0.0-620.0","32c05fch","1280","720","","","","","","","","","","","null","+","Fixation - short","","null","","","","","","","","","","","","","","","","",""
"","html-keyboard-response","400","471735","0.0-621.0","32c05fch","","","","","","","","","","","","","1594","fja","Diagnostic trial","","j","","9","2","4","false","false","false","both pre & post","LEFT","RIGHT","j","1","false","","","",""
"","html-keyboard-response","401","472486","0.0-624.0","32c05fch","1280","720","","","","","","","","","","","null","+","Fixation - short","","null","","","","","","","","","","","","","","","","",""
"","html-keyboard-response","402","473289","0.0-625.0","32c05fch","","","","","","","","","","","","","802","fja","Diagnostic trial","","j","","9","3","4","false","false","true","both pre & post","LEFT","LEFT","f","0","true","","","",""
"","call-function","403","473289","0.0-627.0-0.0","32c05fch","","","","","","","","","","","","","","","","","","","","","","","","","","","","","","","","","",""
"","html-keyboard-response","404","473592","0.0-627.0-1.0","32c05fch","1280","720","","","","","","","","","","","null","Wrong","Feedback","","null","","","","","","","","","","","","","","","","",""
"","call-function","405","473592","0.0-627.0-2.0","32c05fch","","","","","","","","","","","","","","","","","","","","","","","","","","","","","","","","","",""
"","html-keyboard-response","406","474352","0.0-628.0","32c05fch","1280","720","","","","","","","","","","","null","+","Fixation - short","","null","","","","","","","","","","","","","","","","",""
"","canvas-keyboard-response","407","475619","0.0-629.0","32c05fch","","","","","","","","","","","","","null","Cue","Cue","","null","","9","3","","","false","","","","","","","","","","",""
"","html-keyboard-response","408","476378","0.0-630.0","32c05fch","1280","720","","","","","","","","","","","null","+","Fixation - short","","null","","","","","","","","","","","","","","","","",""
"","html-keyboard-response","409","477728","0.0-631.0","32c05fch","","","","","","","","","","","","","1349","fja","Diagnostic trial","","j","","9","4","4","true","false","false","both pre & post","LEFT","RIGHT","j","1","false","","","",""
"","html-keyboard-response","410","478486","0.0-634.0","32c05fch","1280","720","","","","","","","","","","","null","+","Fixation - short","","null","","","","","","","","","","","","","","","","",""
"","html-keyboard-response","411","479230","0.0-635.0","32c05fch","","","","","","","","","","","","","744","fja","Diagnostic trial","","j","","9","5","4","true","false","false","both pre & post","LEFT","RIGHT","j","1","false","","","",""
"","html-keyboard-response","412","479993","0.0-638.0","32c05fch","1280","720","","","","","","","","","","","null","+","Fixation - short","","null","","","","","","","","","","","","","","","","",""
"","html-keyboard-response","413","480912","0.0-639.0","32c05fch","","","","","","","","","","","","","918","fja","Inducer trial","","f","","9","","","","true","","","","","f","1","","false","LEFT","",""
"","html-keyboard-response","414","481670","0.0-642.0","32c05fch","1280","720","","","","","","","","","","","null","+","Fixation - short","","null","","","","","","","","","","","","","","","","",""
"","html-keyboard-response","415","483020","0.0-643.0","32c05fch","","","","","","","","","","","","","1350","If mik press LEFT | If eeu press RIGHT","Inducer instructions",""," ","","10","","","","","","","","","","","","","","",""
"","html-keyboard-response","416","483785","0.0-644.0","32c05fch","1280","720","","","","","","","","","","","null","+","Fixation - short","","null","","","","","","","","","","","","","","","","",""
"","html-keyboard-response","417","484981","0.0-645.0","32c05fch","","","","","","","","","","","","","1195","mik","Diagnostic trial","","f","","10","0","4","false","false","true","both pre & post","LEFT","LEFT","f","1","true","","","",""
"","html-keyboard-response","418","485735","0.0-648.0","32c05fch","1280","720","","","","","","","","","","","null","+","Fixation - short","","null","","","","","","","","","","","","","","","","",""
"","html-keyboard-response","419","486446","0.0-649.0","32c05fch","","","","","","","","","","","","","710","mik","Diagnostic trial","","j","","10","1","4","false","false","false","both pre & post","LEFT","RIGHT","j","1","false","","","",""
"","html-keyboard-response","420","487209","0.0-652.0","32c05fch","1280","720","","","","","","","","","","","null","+","Fixation - short","","null","","","","","","","","","","","","","","","","",""
"","html-keyboard-response","421","487748","0.0-653.0","32c05fch","","","","","","","","","","","","","539","eeu","Diagnostic trial","","f","","10","2","4","false","false","true","both pre & post","RIGHT","LEFT","f","1","false","","","",""
"","html-keyboard-response","422","488505","0.0-656.0","32c05fch","1280","720","","","","","","","","","","","null","+","Fixation - short","","null","","","","","","","","","","","","","","","","",""
"","html-keyboard-response","423","489198","0.0-657.0","32c05fch","","","","","","","","","","","","","693","mik","Diagnostic trial","","f","","10","3","4","false","false","true","both pre & post","LEFT","LEFT","f","1","true","","","",""
"","html-keyboard-response","424","489957","0.0-660.0","32c05fch","1280","720","","","","","","","","","","","null","+","Fixation - short","","null","","","","","","","","","","","","","","","","",""
"","canvas-keyboard-response","425","491211","0.0-661.0","32c05fch","","","","","","","","","","","","","null","Cue","Cue","","null","","10","3","","","false","","","","","","","","","","",""
"","html-keyboard-response","426","491977","0.0-662.0","32c05fch","1280","720","","","","","","","","","","","null","+","Fixation - short","","null","","","","","","","","","","","","","","","","",""
"","html-keyboard-response","427","492944","0.0-663.0","32c05fch","","","","","","","","","","","","","966","eeu","Diagnostic trial","","j","","10","4","4","true","false","false","both pre & post","RIGHT","RIGHT","j","1","true","","","",""
"","html-keyboard-response","428","493701","0.0-666.0","32c05fch","1280","720","","","","","","","","","","","null","+","Fixation - short","","null","","","","","","","","","","","","","","","","",""
"","html-keyboard-response","429","494157","0.0-667.0","32c05fch","","","","","","","","","","","","","455","eeu","Diagnostic trial","","j","","10","5","4","true","false","false","both pre & post","RIGHT","RIGHT","j","1","true","","","",""
"","html-keyboard-response","430","494923","0.0-670.0","32c05fch","1280","720","","","","","","","","","","","null","+","Fixation - short","","null","","","","","","","","","","","","","","","","",""
"","html-keyboard-response","431","495462","0.0-671.0","32c05fch","","","","","","","","","","","","","538","mik","Diagnostic trial","","f","","10","6","4","true","false","true","both pre & post","LEFT","LEFT","f","1","true","","","",""
"","html-keyboard-response","432","496225","0.0-674.0","32c05fch","1280","720","","","","","","","","","","","null","+","Fixation - short","","null","","","","","","","","","","","","","","","","",""
"","html-keyboard-response","433","496848","0.0-675.0","32c05fch","","","","","","","","","","","","","622","eeu","Diagnostic trial","","j","","10","7","4","true","false","false","both pre & post","RIGHT","RIGHT","j","1","true","","","",""
"","html-keyboard-response","434","497607","0.0-678.0","32c05fch","1280","720","","","","","","","","","","","null","+","Fixation - short","","null","","","","","","","","","","","","","","","","",""
"","html-keyboard-response","435","498448","0.0-679.0","32c05fch","","","","","","","","","","","","","840","eeu","Inducer trial","","j","","10","","","","true","","","","","j","1","","false","RIGHT","",""
"","html-keyboard-response","436","499209","0.0-682.0","32c05fch","1280","720","","","","","","","","","","","null","+","Fixation - short","","null","","","","","","","","","","","","","","","","",""
"","html-keyboard-response","437","500791","0.0-683.0","32c05fch","","","","","","","","","","","","","1581","If geb press LEFT | If fuc press RIGHT","Inducer instructions",""," ","","11","","","","","","","","","","","","","","",""
"","html-keyboard-response","438","501545","0.0-684.0","32c05fch","1280","720","","","","","","","","","","","null","+","Fixation - short","","null","","","","","","","","","","","","","","","","",""
"","html-keyboard-response","439","502169","0.0-685.0","32c05fch","","","","","","","","","","","","","623","geb","Diagnostic trial","","f","","11","0","9","false","false","true","both pre & post","LEFT","LEFT","f","1","true","","","",""
"","html-keyboard-response","440","502925","0.0-688.0","32c05fch","1280","720","","","","","","","","","","","null","+","Fixation - short","","null","","","","","","","","","","","","","","","","",""
"","html-keyboard-response","441","503637","0.0-689.0","32c05fch","","","","","","","","","","","","","712","geb","Diagnostic trial","","j","","11","1","9","false","false","false","both pre & post","LEFT","RIGHT","j","1","false","","","",""
"","html-keyboard-response","442","504395","0.0-692.0","32c05fch","1280","720","","","","","","","","","","","null","+","Fixation - short","","null","","","","","","","","","","","","","","","","",""
"","html-keyboard-response","443","505057","0.0-693.0","32c05fch","","","","","","","","","","","","","661","geb","Diagnostic trial","","f","","11","2","9","false","false","true","both pre & post","LEFT","LEFT","f","1","true","","","",""
"","html-keyboard-response","444","505811","0.0-696.0","32c05fch","1280","720","","","","","","","","","","","null","+","Fixation - short","","null","","","","","","","","","","","","","","","","",""
"","html-keyboard-response","445","506311","0.0-697.0","32c05fch","","","","","","","","","","","","","500","fuc","Diagnostic trial","","j","","11","3","9","false","false","false","both pre & post","RIGHT","RIGHT","j","1","true","","","",""
"","html-keyboard-response","446","507076","0.0-700.0","32c05fch","1280","720","","","","","","","","","","","null","+","Fixation - short","","null","","","","","","","","","","","","","","","","",""
"","html-keyboard-response","447","507649","0.0-701.0","32c05fch","","","","","","","","","","","","","572","fuc","Diagnostic trial","","f","","11","4","9","false","false","true","both pre & post","RIGHT","LEFT","f","1","false","","","",""
"","html-keyboard-response","448","508403","0.0-704.0","32c05fch","1280","720","","","","","","","","","","","null","+","Fixation - short","","null","","","","","","","","","","","","","","","","",""
"","html-keyboard-response","449","509160","0.0-705.0","32c05fch","","","","","","","","","","","","","756","geb","Diagnostic trial","","j","","11","5","9","false","false","false","both pre & post","LEFT","RIGHT","j","1","false","","","",""
"","html-keyboard-response","450","509924","0.0-708.0","32c05fch","1280","720","","","","","","","","","","","null","+","Fixation - short","","null","","","","","","","","","","","","","","","","",""
"","html-keyboard-response","451","510432","0.0-709.0","32c05fch","","","","","","","","","","","","","508","fuc","Diagnostic trial","","j","","11","6","9","false","false","false","both pre & post","RIGHT","RIGHT","j","1","true","","","",""
"","html-keyboard-response","452","511190","0.0-712.0","32c05fch","1280","720","","","","","","","","","","","null","+","Fixation - short","","null","","","","","","","","","","","","","","","","",""
"","html-keyboard-response","453","511805","0.0-713.0","32c05fch","","","","","","","","","","","","","614","geb","Diagnostic trial","","f","","11","7","9","false","false","true","both pre & post","LEFT","LEFT","f","1","true","","","",""
"","html-keyboard-response","454","512565","0.0-716.0","32c05fch","1280","720","","","","","","","","","","","null","+","Fixation - short","","null","","","","","","","","","","","","","","","","",""
"","html-keyboard-response","455","513265","0.0-717.0","32c05fch","","","","","","","","","","","","","699","geb","Diagnostic trial","","j","","11","8","9","false","false","false","both pre & post","LEFT","RIGHT","j","1","false","","","",""
"","html-keyboard-response","456","514021","0.0-720.0","32c05fch","1280","720","","","","","","","","","","","null","+","Fixation - short","","null","","","","","","","","","","","","","","","","",""
"","canvas-keyboard-response","457","515282","0.0-721.0","32c05fch","","","","","","","","","","","","","null","Cue","Cue","","null","","11","8","","","false","","","","","","","","","","",""
"","html-keyboard-response","458","516035","0.0-722.0","32c05fch","1280","720","","","","","","","","","","","null","+","Fixation - short","","null","","","","","","","","","","","","","","","","",""
"","html-keyboard-response","459","516778","0.0-723.0","32c05fch","","","","","","","","","","","","","742","geb","Diagnostic trial","","j","","11","9","9","true","false","true","both pre & post","LEFT","LEFT","f","0","true","","","",""
"","call-function","460","516778","0.0-725.0-0.0","32c05fch","","","","","","","","","","","","","","","","","","","","","","","","","","","","","","","","","",""
"","html-keyboard-response","461","517085","0.0-725.0-1.0","32c05fch","1280","720","","","","","","","","","","","null","Wrong","Feedback","","null","","","","","","","","","","","","","","","","",""
"","call-function","462","517085","0.0-725.0-2.0","32c05fch","","","","","","","","","","","","","","","","","","","","","","","","","","","","","","","","","",""
"","html-keyboard-response","463","517851","0.0-726.0","32c05fch","1280","720","","","","","","","","","","","null","+","Fixation - short","","null","","","","","","","","","","","","","","","","",""
"","html-keyboard-response","464","518447","0.0-727.0","32c05fch","","","","","","","","","","","","","595","geb","Diagnostic trial","","f","","11","10","9","true","false","true","both pre & post","LEFT","LEFT","f","1","true","","","",""
"","html-keyboard-response","465","519204","0.0-730.0","32c05fch","1280","720","","","","","","","","","","","null","+","Fixation - short","","null","","","","","","","","","","","","","","","","",""
