"value","trial_type","trial_index","time_elapsed","internal_node_id","id","width","height","webaudio","browser","browser_version","mobile","os","fullscreen","vsync_rate","webcam","microphone","view_history","rt","stimulus","trial_info","success","response","exp_parameters","inducer_run","diagnostic_run","cue_num","post_cue","inducer_trial","italic","forced_equal_run","correct_inducer_response_side","correct_diag_response_side","correct_response_key","correct_response","congruent","force_equal","correct_indu_response_side","accuracy","interactive"
"","call-function","0","2","0.0-0.0","3psambgt","","","","","","","","","","","","","","","","","","","","","","","","","","","","","","","","","",""
"","browser-check","1","1000","0.0-1.0","3psambgt","635","686","true","edge-chromium","122.0.0","false","Windows 10","true","60.3","true","true","","","","","","","","","","","","","","","","","","","","","","",""
"","instructions","2","17382","0.0-2.0","3psambgt","","","","","","","","","","","","[{""page_index"":0,""viewing_time"":3097},{""page_index"":1,""viewing_time"":11646},{""page_index"":2,""viewing_time"":1638}]","16381","The experiment and consent","The experiment and consent","","","","","","","","","","","","","","","","","","",""
"","fullscreen","3","27986","0.0-3.0","3psambgt","","","","","","","","","","","","","9603","","Full screen","true","","","","","","","","","","","","","","","","","",""
"","instructions","4","45276","0.0-4.0","3psambgt","","","","","","","","","","","","[{""page_index"":0,""viewing_time"":10915},{""page_index"":1,""viewing_time"":6374}]","17289","Instructions","Basic overview explanation","","","","","","","","","","","","","","","","","","",""
"","html-keyboard-response","5","51661","0.0-5.0","3psambgt","","","","","","","","","","","","","4879","If italic press RIGHT | If upright press LEFT","Diagnostic instructions",""," ","{""debug"":false,""skip_instructions"":false,""skip_practice"":false,""save_local_data"":false,""studu_name"":""exp2"",""default_background_colour"":""#cccccc"",""wrong_response_colour"":""#d22d2d"",""instruction_delay"":20000,""trial_duration"":2000,""short_fixation"":750,""long_fixation"":1500,""wrong_response_delay"":300,""too_slow_delay"":300,""instruction_font_size"":""24px"",""general_font_size"":""42px"",""fixation_size"":""48px"",""allowed_responses"":[""f"",""j""],""cue_min_length"":0,""cue_max_length"":4,""tot_post_cue_len"":72,""cue_colour"":""yellow"",""cue_shape"":""Square"",""cue_size"":70,""cue_duration"":1250,""avg_number_of_cues"":3,""inducer_colour"":""blue"",""number_of_inducers"":24,""pre_cue_italic_forced_equal"":true,""post_cue_italic_forced_equal"":true,""prac_diagnostic_rounds"":16,""prac_inducer_rounds"":6,""prac_cue_rounds"":16,""prac_post_cue_num"":3}","","","","","","","","","","","","","","","",""
"","html-keyboard-response","6","52427","0.0-6.0","3psambgt","973","1128","","","","","","","","","","","null","+","Fixation - short","","null","","","","","","","","","","","","","","","","",""
"","html-keyboard-response","7","52947","0.0-7.0","3psambgt","","","","","","","","","","","","","520","dlg","Diagnostic practice","","f","","Diagnostic practice","0","-84","true","false","false","prac equal","RIGHT","LEFT","f","1","false","","","",""
"","html-keyboard-response","8","53712","0.0-10.0","3psambgt","973","1128","","","","","","","","","","","null","+","Fixation - short","","null","","","","","","","","","","","","","","","","",""
"","html-keyboard-response","9","54148","0.0-11.0","3psambgt","","","","","","","","","","","","","435","vpu","Diagnostic practice","","f","","Diagnostic practice","1","-84","true","false","false","prac equal","LEFT","LEFT","f","1","true","","","",""
"","html-keyboard-response","10","54899","0.0-14.0","3psambgt","973","1128","","","","","","","","","","","null","+","Fixation - short","","null","","","","","","","","","","","","","","","","",""
"","html-keyboard-response","11","55316","0.0-15.0","3psambgt","","","","","","","","","","","","","416","vpu","Diagnostic practice","","f","","Diagnostic practice","2","-84","true","false","false","prac equal","LEFT","LEFT","f","1","true","","","",""
"","html-keyboard-response","12","56078","0.0-18.0","3psambgt","973","1128","","","","","","","","","","","null","+","Fixation - short","","null","","","","","","","","","","","","","","","","",""
"","html-keyboard-response","13","56412","0.0-19.0","3psambgt","","","","","","","","","","","","","333","vpu","Diagnostic practice","","f","","Diagnostic practice","3","-84","true","false","false","prac equal","LEFT","LEFT","f","1","true","","","",""
"","html-keyboard-response","14","57162","0.0-22.0","3psambgt","973","1128","","","","","","","","","","","null","+","Fixation - short","","null","","","","","","","","","","","","","","","","",""
"","html-keyboard-response","15","57492","0.0-23.0","3psambgt","","","","","","","","","","","","","329","vpu","Diagnostic practice","","f","","Diagnostic practice","4","-84","true","false","true","prac equal","LEFT","RIGHT","j","0","false","","","",""
"","call-function","16","57492","0.0-25.0-0.0","3psambgt","","","","","","","","","","","","","","","","","","","","","","","","","","","","","","","","","",""
"","html-keyboard-response","17","57798","0.0-25.0-1.0","3psambgt","973","1128","","","","","","","","","","","null","Wrong","Feedback","","null","","","","","","","","","","","","","","","","",""
"","call-function","18","57799","0.0-25.0-2.0","3psambgt","","","","","","","","","","","","","","","","","","","","","","","","","","","","","","","","","",""
"","html-keyboard-response","19","58562","0.0-26.0","3psambgt","973","1128","","","","","","","","","","","null","+","Fixation - short","","null","","","","","","","","","","","","","","","","",""
"","html-keyboard-response","20","58939","0.0-27.0","3psambgt","","","","","","","","","","","","","377","dlg","Diagnostic practice","","f","","Diagnostic practice","5","-84","true","false","false","prac equal","RIGHT","LEFT","f","1","false","","","",""
"","html-keyboard-response","21","59694","0.0-30.0","3psambgt","973","1128","","","","","","","","","","","null","+","Fixation - short","","null","","","","","","","","","","","","","","","","",""
"","html-keyboard-response","22","60220","0.0-31.0","3psambgt","","","","","","","","","","","","","525","dlg","Diagnostic practice","","j","","Diagnostic practice","6","-84","true","false","true","prac equal","RIGHT","RIGHT","j","1","true","","","",""
"","html-keyboard-response","23","60971","0.0-34.0","3psambgt","973","1128","","","","","","","","","","","null","+","Fixation - short","","null","","","","","","","","","","","","","","","","",""
"","html-keyboard-response","24","61315","0.0-35.0","3psambgt","","","","","","","","","","","","","344","dlg","Diagnostic practice","","j","","Diagnostic practice","7","-84","true","false","true","prac equal","RIGHT","RIGHT","j","1","true","","","",""
"","html-keyboard-response","25","62080","0.0-38.0","3psambgt","973","1128","","","","","","","","","","","null","+","Fixation - short","","null","","","","","","","","","","","","","","","","",""
"","html-keyboard-response","26","62748","0.0-39.0","3psambgt","","","","","","","","","","","","","668","dlg","Diagnostic practice","","f","","Diagnostic practice","8","-84","true","false","false","prac equal","RIGHT","LEFT","f","1","false","","","",""
"","html-keyboard-response","27","63510","0.0-42.0","3psambgt","973","1128","","","","","","","","","","","null","+","Fixation - short","","null","","","","","","","","","","","","","","","","",""
"","html-keyboard-response","28","64083","0.0-43.0","3psambgt","","","","","","","","","","","","","573","vpu","Diagnostic practice","","j","","Diagnostic practice","9","-84","true","false","true","prac equal","LEFT","RIGHT","j","1","false","","","",""
"","html-keyboard-response","29","64848","0.0-46.0","3psambgt","973","1128","","","","","","","","","","","null","+","Fixation - short","","null","","","","","","","","","","","","","","","","",""
"","html-keyboard-response","30","65451","0.0-47.0","3psambgt","","","","","","","","","","","","","603","vpu","Diagnostic practice","","f","","Diagnostic practice","10","-84","true","false","false","prac equal","LEFT","LEFT","f","1","true","","","",""
"","html-keyboard-response","31","66204","0.0-50.0","3psambgt","973","1128","","","","","","","","","","","null","+","Fixation - short","","null","","","","","","","","","","","","","","","","",""
"","html-keyboard-response","32","67459","0.0-51.0","3psambgt","","","","","","","","","","","","","1255","dlg","Diagnostic practice","","j","","Diagnostic practice","11","-84","true","false","true","prac equal","RIGHT","RIGHT","j","1","true","","","",""
"","html-keyboard-response","33","68212","0.0-54.0","3psambgt","973","1128","","","","","","","","","","","null","+","Fixation - short","","null","","","","","","","","","","","","","","","","",""
"","html-keyboard-response","34","69011","0.0-55.0","3psambgt","","","","","","","","","","","","","798","dlg","Diagnostic practice","","j","","Diagnostic practice","12","-84","true","false","true","prac equal","RIGHT","RIGHT","j","1","true","","","",""
"","html-keyboard-response","35","69766","0.0-58.0","3psambgt","973","1128","","","","","","","","","","","null","+","Fixation - short","","null","","","","","","","","","","","","","","","","",""
"","html-keyboard-response","36","70707","0.0-59.0","3psambgt","","","","","","","","","","","","","940","vpu","Diagnostic practice","","j","","Diagnostic practice","13","-84","true","false","true","prac equal","LEFT","RIGHT","j","1","false","","","",""
"","html-keyboard-response","37","71458","0.0-62.0","3psambgt","973","1128","","","","","","","","","","","null","+","Fixation - short","","null","","","","","","","","","","","","","","","","",""
"","html-keyboard-response","38","71851","0.0-63.0","3psambgt","","","","","","","","","","","","","392","vpu","Diagnostic practice","","f","","Diagnostic practice","14","-84","true","false","false","prac equal","LEFT","LEFT","f","1","true","","","",""
"","html-keyboard-response","39","72609","0.0-66.0","3psambgt","973","1128","","","","","","","","","","","null","+","Fixation - short","","null","","","","","","","","","","","","","","","","",""
"","html-keyboard-response","40","73060","0.0-67.0","3psambgt","","","","","","","","","","","","","451","vpu","Diagnostic practice","","j","","Diagnostic practice","15","-84","true","false","true","prac equal","LEFT","RIGHT","j","1","false","","","",""
"","html-keyboard-response","41","73814","0.0-70.0","3psambgt","973","1128","","","","","","","","","","","null","+","Fixation - short","","null","","","","","","","","","","","","","","","","",""
"","instructions","42","78651","0.0-71.0","3psambgt","","","","","","","","","","","","[{""page_index"":0,""viewing_time"":4836}]","4836","Instructions","Final experiment explanation","","","","","","","","","","","","","","","","","","",""
"","html-keyboard-response","43","83580","0.0-72.0","3psambgt","","","","","","","","","","","","","3413","If hhd press RIGHT | If wrz press LEFT","Inducer practice",""," ","","Practice","","","","","","","","","","","","","","",""
"","html-keyboard-response","44","84337","0.0-73.0","3psambgt","973","1128","","","","","","","","","","","null","+","Fixation - short","","null","","","","","","","","","","","","","","","","",""
"","html-keyboard-response","45","84843","0.0-74.0","3psambgt","","","","","","","","","","","","","505","wrz","Inducer practice","","f","","Practice","","","","true","","","","","f","1","","true","LEFT","",""
"","html-keyboard-response","46","85609","0.0-77.0","3psambgt","973","1128","","","","","","","","","","","null","+","Fixation - short","","null","","","","","","","","","","","","","","","","",""
"","html-keyboard-response","47","88107","0.0-78.0","3psambgt","","","","","","","","","","","","","2498","If vbt press RIGHT | If ila press LEFT","Inducer practice",""," ","","Practice","","","","","","","","","","","","","","",""
"","html-keyboard-response","48","88864","0.0-79.0","3psambgt","973","1128","","","","","","","","","","","null","+","Fixation - short","","null","","","","","","","","","","","","","","","","",""
"","html-keyboard-response","49","89243","0.0-80.0","3psambgt","","","","","","","","","","","","","378","ila","Inducer practice","","f","","Practice","","","","true","","","","","f","1","","true","LEFT","",""
"","html-keyboard-response","50","90001","0.0-83.0","3psambgt","973","1128","","","","","","","","","","","null","+","Fixation - short","","null","","","","","","","","","","","","","","","","",""
"","html-keyboard-response","51","90803","0.0-84.0","3psambgt","","","","","","","","","","","","","801","If lff press RIGHT | If uen press LEFT","Inducer practice",""," ","","Practice","","","","","","","","","","","","","","",""
"","html-keyboard-response","52","91560","0.0-85.0","3psambgt","973","1128","","","","","","","","","","","null","+","Fixation - short","","null","","","","","","","","","","","","","","","","",""
"","html-keyboard-response","53","91955","0.0-86.0","3psambgt","","","","","","","","","","","","","395","lff","Inducer practice","","j","","Practice","","","","true","","","","","j","1","","true","RIGHT","",""
"","html-keyboard-response","54","92712","0.0-89.0","3psambgt","973","1128","","","","","","","","","","","null","+","Fixation - short","","null","","","","","","","","","","","","","","","","",""
"","html-keyboard-response","55","93115","0.0-90.0","3psambgt","","","","","","","","","","","","","403","If byy press RIGHT | If anz press LEFT","Inducer practice",""," ","","Practice","","","","","","","","","","","","","","",""
"","html-keyboard-response","56","93872","0.0-91.0","3psambgt","973","1128","","","","","","","","","","","null","+","Fixation - short","","null","","","","","","","","","","","","","","","","",""
"","html-keyboard-response","57","94284","0.0-92.0","3psambgt","","","","","","","","","","","","","412","anz","Inducer practice","","f","","Practice","","","","true","","","","","f","1","","true","LEFT","",""
"","html-keyboard-response","58","95050","0.0-95.0","3psambgt","973","1128","","","","","","","","","","","null","+","Fixation - short","","null","","","","","","","","","","","","","","","","",""
"","html-keyboard-response","59","95483","0.0-96.0","3psambgt","","","","","","","","","","","","","432","If vnn press RIGHT | If goj press LEFT","Inducer practice",""," ","","Practice","","","","","","","","","","","","","","",""
"","html-keyboard-response","60","96241","0.0-97.0","3psambgt","973","1128","","","","","","","","","","","null","+","Fixation - short","","null","","","","","","","","","","","","","","","","",""
"","html-keyboard-response","61","96619","0.0-98.0","3psambgt","","","","","","","","","","","","","378","vnn","Inducer practice","","j","","Practice","","","","true","","","","","j","1","","true","RIGHT","",""
"","html-keyboard-response","62","97381","0.0-101.0","3psambgt","973","1128","","","","","","","","","","","null","+","Fixation - short","","null","","","","","","","","","","","","","","","","",""
"","html-keyboard-response","63","97779","0.0-102.0","3psambgt","","","","","","","","","","","","","398","If upf press RIGHT | If flh press LEFT","Inducer practice",""," ","","Practice","","","","","","","","","","","","","","",""
"","html-keyboard-response","64","98542","0.0-103.0","3psambgt","973","1128","","","","","","","","","","","null","+","Fixation - short","","null","","","","","","","","","","","","","","","","",""
"","html-keyboard-response","65","98947","0.0-104.0","3psambgt","","","","","","","","","","","","","404","upf","Inducer practice","","j","","Practice","","","","true","","","","","j","1","","true","RIGHT","",""
"","html-keyboard-response","66","99703","0.0-107.0","3psambgt","973","1128","","","","","","","","","","","null","+","Fixation - short","","null","","","","","","","","","","","","","","","","",""
"","instructions","67","113163","0.0-108.0","3psambgt","","","","","","","","","","","","[{""page_index"":0,""viewing_time"":13459}]","13459","Instructions","Final experiment explanation","","","","","","","","","","","","","","","","","","",""
"","html-keyboard-response","68","115603","0.0-109.0","3psambgt","","","","","","","","","","","","","938","If swr press RIGHT | If ume press LEFT","Cue practice",""," ","","Practice","","","","","","","","","","","","","","",""
"","html-keyboard-response","69","116357","0.0-110.0","3psambgt","973","1128","","","","","","","","","","","null","+","Fixation - short","","null","","","","","","","","","","","","","","","","",""
"","html-keyboard-response","70","116891","0.0-111.0","3psambgt","","","","","","","","","","","","","533","ume","Cue practice","","f","","Practice","0","13","false","false","false","both pre & post","LEFT","LEFT","f","1","true","","","",""
"","html-keyboard-response","71","117649","0.0-114.0","3psambgt","973","1128","","","","","","","","","","","null","+","Fixation - short","","null","","","","","","","","","","","","","","","","",""
"","html-keyboard-response","72","118682","0.0-115.0","3psambgt","","","","","","","","","","","","","1033","ume","Cue practice","","j","","Practice","1","13","false","false","true","both pre & post","LEFT","RIGHT","j","1","false","","","",""
"","html-keyboard-response","73","119446","0.0-118.0","3psambgt","973","1128","","","","","","","","","","","null","+","Fixation - short","","null","","","","","","","","","","","","","","","","",""
"","html-keyboard-response","74","120099","0.0-119.0","3psambgt","","","","","","","","","","","","","652","swr","Cue practice","","j","","Practice","2","13","false","false","true","both pre & post","RIGHT","RIGHT","j","1","true","","","",""
"","html-keyboard-response","75","120858","0.0-122.0","3psambgt","973","1128","","","","","","","","","","","null","+","Fixation - short","","null","","","","","","","","","","","","","","","","",""
"","html-keyboard-response","76","121450","0.0-123.0","3psambgt","","","","","","","","","","","","","592","swr","Cue practice","","j","","Practice","3","13","false","false","true","both pre & post","RIGHT","RIGHT","j","1","true","","","",""
"","html-keyboard-response","77","122205","0.0-126.0","3psambgt","973","1128","","","","","","","","","","","null","+","Fixation - short","","null","","","","","","","","","","","","","","","","",""
"","html-keyboard-response","78","122610","0.0-127.0","3psambgt","","","","","","","","","","","","","405","swr","Cue practice","","j","","Practice","4","13","false","false","false","both pre & post","RIGHT","LEFT","f","0","false","","","",""
"","call-function","79","122611","0.0-129.0-0.0","3psambgt","","","","","","","","","","","","","","","","","","","","","","","","","","","","","","","","","",""
"","html-keyboard-response","80","122918","0.0-129.0-1.0","3psambgt","973","1128","","","","","","","","","","","null","Wrong","Feedback","","null","","","","","","","","","","","","","","","","",""
"","call-function","81","122919","0.0-129.0-2.0","3psambgt","","","","","","","","","","","","","","","","","","","","","","","","","","","","","","","","","",""
"","html-keyboard-response","82","123676","0.0-130.0","3psambgt","973","1128","","","","","","","","","","","null","+","Fixation - short","","null","","","","","","","","","","","","","","","","",""
"","html-keyboard-response","83","124324","0.0-131.0","3psambgt","","","","","","","","","","","","","647","ume","Cue practice","","f","","Practice","5","13","false","false","false","both pre & post","LEFT","LEFT","f","1","true","","","",""
"","html-keyboard-response","84","125087","0.0-134.0","3psambgt","973","1128","","","","","","","","","","","null","+","Fixation - short","","null","","","","","","","","","","","","","","","","",""
"","html-keyboard-response","85","125482","0.0-135.0","3psambgt","","","","","","","","","","","","","395","ume","Cue practice","","f","","Practice","6","13","false","false","false","both pre & post","LEFT","LEFT","f","1","true","","","",""
"","html-keyboard-response","86","126248","0.0-138.0","3psambgt","973","1128","","","","","","","","","","","null","+","Fixation - short","","null","","","","","","","","","","","","","","","","",""
"","html-keyboard-response","87","126674","0.0-139.0","3psambgt","","","","","","","","","","","","","426","ume","Cue practice","","j","","Practice","7","13","false","false","true","both pre & post","LEFT","RIGHT","j","1","false","","","",""
"","html-keyboard-response","88","127430","0.0-142.0","3psambgt","973","1128","","","","","","","","","","","null","+","Fixation - short","","null","","","","","","","","","","","","","","","","",""
"","html-keyboard-response","89","127746","0.0-143.0","3psambgt","","","","","","","","","","","","","316","swr","Cue practice","","j","","Practice","8","13","false","false","true","both pre & post","RIGHT","RIGHT","j","1","true","","","",""
"","html-keyboard-response","90","128502","0.0-146.0","3psambgt","973","1128","","","","","","","","","","","null","+","Fixation - short","","null","","","","","","","","","","","","","","","","",""
"","html-keyboard-response","91","128930","0.0-147.0","3psambgt","","","","","","","","","","","","","428","swr","Cue practice","","j","","Practice","9","13","false","false","true","both pre & post","RIGHT","RIGHT","j","1","true","","","",""
"","html-keyboard-response","92","129681","0.0-150.0","3psambgt","973","1128","","","","","","","","","","","null","+","Fixation - short","","null","","","","","","","","","","","","","","","","",""
"","html-keyboard-response","93","130066","0.0-151.0","3psambgt","","","","","","","","","","","","","385","swr","Cue practice","","j","","Practice","10","13","false","false","true","both pre & post","RIGHT","RIGHT","j","1","true","","","",""
"","html-keyboard-response","94","130829","0.0-154.0","3psambgt","973","1128","","","","","","","","","","","null","+","Fixation - short","","null","","","","","","","","","","","","","","","","",""
"","html-keyboard-response","95","131195","0.0-155.0","3psambgt","","","","","","","","","","","","","365","swr","Cue practice","","j","","Practice","11","13","false","false","false","both pre & post","RIGHT","LEFT","f","0","false","","","",""
"","call-function","96","131195","0.0-157.0-0.0","3psambgt","","","","","","","","","","","","","","","","","","","","","","","","","","","","","","","","","",""
"","html-keyboard-response","97","131509","0.0-157.0-1.0","3psambgt","973","1128","","","","","","","","","","","null","Wrong","Feedback","","null","","","","","","","","","","","","","","","","",""
"","call-function","98","131509","0.0-157.0-2.0","3psambgt","","","","","","","","","","","","","","","","","","","","","","","","","","","","","","","","","",""
"","html-keyboard-response","99","132261","0.0-158.0","3psambgt","973","1128","","","","","","","","","","","null","+","Fixation - short","","null","","","","","","","","","","","","","","","","",""
"","html-keyboard-response","100","132938","0.0-159.0","3psambgt","","","","","","","","","","","","","677","swr","Cue practice","","f","","Practice","12","13","false","false","false","both pre & post","RIGHT","LEFT","f","1","false","","","",""
"","html-keyboard-response","101","133694","0.0-162.0","3psambgt","973","1128","","","","","","","","","","","null","+","Fixation - short","","null","","","","","","","","","","","","","","","","",""
"","canvas-keyboard-response","102","134961","0.0-163.0","3psambgt","","","","","","","","","","","","","null","Cue","Cue","","null","","Practice","12","","","false","","","","","","","","","","",""
"","html-keyboard-response","103","135723","0.0-164.0","3psambgt","973","1128","","","","","","","","","","","null","+","Fixation - short","","null","","","","","","","","","","","","","","","","",""
"","html-keyboard-response","104","136483","0.0-165.0","3psambgt","","","","","","","","","","","","","760","swr","Cue practice","","j","","Practice","13","13","true","false","true","both pre & post","RIGHT","RIGHT","j","1","true","","","",""
"","html-keyboard-response","105","137246","0.0-168.0","3psambgt","973","1128","","","","","","","","","","","null","+","Fixation - short","","null","","","","","","","","","","","","","","","","",""
"","html-keyboard-response","106","137778","0.0-169.0","3psambgt","","","","","","","","","","","","","531","swr","Cue practice","","j","","Practice","14","13","true","false","false","both pre & post","RIGHT","LEFT","f","0","false","","","",""
"","call-function","107","137778","0.0-171.0-0.0","3psambgt","","","","","","","","","","","","","","","","","","","","","","","","","","","","","","","","","",""
"","html-keyboard-response","108","138086","0.0-171.0-1.0","3psambgt","973","1128","","","","","","","","","","","null","Wrong","Feedback","","null","","","","","","","","","","","","","","","","",""
"","call-function","109","138087","0.0-171.0-2.0","3psambgt","","","","","","","","","","","","","","","","","","","","","","","","","","","","","","","","","",""
"","html-keyboard-response","110","138838","0.0-172.0","3psambgt","973","1128","","","","","","","","","","","null","+","Fixation - short","","null","","","","","","","","","","","","","","","","",""
"","html-keyboard-response","111","139666","0.0-173.0","3psambgt","","","","","","","","","","","","","828","ume","Cue practice","","f","","Practice","15","13","true","false","true","both pre & post","LEFT","RIGHT","j","0","false","","","",""
"","call-function","112","139666","0.0-175.0-0.0","3psambgt","","","","","","","","","","","","","","","","","","","","","","","","","","","","","","","","","",""
"","html-keyboard-response","113","139981","0.0-175.0-1.0","3psambgt","973","1128","","","","","","","","","","","null","Wrong","Feedback","","null","","","","","","","","","","","","","","","","",""
"","call-function","114","139981","0.0-175.0-2.0","3psambgt","","","","","","","","","","","","","","","","","","","","","","","","","","","","","","","","","",""
"","html-keyboard-response","115","140742","0.0-176.0","3psambgt","973","1128","","","","","","","","","","","null","+","Fixation - short","","null","","","","","","","","","","","","","","","","",""
"","html-keyboard-response","116","141570","0.0-177.0","3psambgt","","","","","","","","","","","","","827","swr","Inducer practice","","j","","Practice","","","","true","","","","","j","1","","false","RIGHT","",""
"","html-keyboard-response","117","142332","0.0-180.0","3psambgt","973","1128","","","","","","","","","","","null","+","Fixation - short","","null","","","","","","","","","","","","","","","","",""
"","instructions","118","145228","0.0-181.0","3psambgt","","","","","","","","","","","","[{""page_index"":0,""viewing_time"":2895}]","2895","End practice","End of practice","","","","","","","","","","","","","","","","","","",""
"","html-keyboard-response","119","148244","0.0-182.0","3psambgt","973","1128","","","","","","","","","","","null","+","Fixation - long","","null","","","","","","","","","","","","","","","","",""
"","html-keyboard-response","120","149267","0.0-183.0","3psambgt","","","","","","","","","","","","","1023","If frn press RIGHT | If efg press LEFT","Inducer instructions",""," ","","0","","","","","","","","","","","","","","",""
"","html-keyboard-response","121","150028","0.0-184.0","3psambgt","973","1128","","","","","","","","","","","null","+","Fixation - short","","null","","","","","","","","","","","","","","","","",""
"","html-keyboard-response","122","150570","0.0-185.0","3psambgt","","","","","","","","","","","","","542","efg","Diagnostic trial","","f","","0","0","6","false","false","true","both pre & post","LEFT","RIGHT","j","0","false","","","",""
"","call-function","123","150570","0.0-187.0-0.0","3psambgt","","","","","","","","","","","","","","","","","","","","","","","","","","","","","","","","","",""
"","html-keyboard-response","124","150886","0.0-187.0-1.0","3psambgt","973","1128","","","","","","","","","","","null","Wrong","Feedback","","null","","","","","","","","","","","","","","","","",""
"","call-function","125","150887","0.0-187.0-2.0","3psambgt","","","","","","","","","","","","","","","","","","","","","","","","","","","","","","","","","",""
"","html-keyboard-response","126","151648","0.0-188.0","3psambgt","973","1128","","","","","","","","","","","null","+","Fixation - short","","null","","","","","","","","","","","","","","","","",""
"","html-keyboard-response","127","152034","0.0-189.0","3psambgt","","","","","","","","","","","","","386","efg","Diagnostic trial","","j","","0","1","6","false","false","true","both pre & post","LEFT","RIGHT","j","1","false","","","",""
"","html-keyboard-response","128","152799","0.0-192.0","3psambgt","973","1128","","","","","","","","","","","null","+","Fixation - short","","null","","","","","","","","","","","","","","","","",""
"","html-keyboard-response","129","153746","0.0-193.0","3psambgt","","","","","","","","","","","","","947","efg","Diagnostic trial","","f","","0","2","6","false","false","false","both pre & post","LEFT","LEFT","f","1","true","","","",""
"","html-keyboard-response","130","154498","0.0-196.0","3psambgt","973","1128","","","","","","","","","","","null","+","Fixation - short","","null","","","","","","","","","","","","","","","","",""
"","html-keyboard-response","131","154962","0.0-197.0","3psambgt","","","","","","","","","","","","","464","efg","Diagnostic trial","","j","","0","3","6","false","false","false","both pre & post","LEFT","LEFT","f","0","true","","","",""
"","call-function","132","154962","0.0-199.0-0.0","3psambgt","","","","","","","","","","","","","","","","","","","","","","","","","","","","","","","","","",""
"","html-keyboard-response","133","155264","0.0-199.0-1.0","3psambgt","973","1128","","","","","","","","","","","null","Wrong","Feedback","","null","","","","","","","","","","","","","","","","",""
"","call-function","134","155264","0.0-199.0-2.0","3psambgt","","","","","","","","","","","","","","","","","","","","","","","","","","","","","","","","","",""
"","html-keyboard-response","135","156029","0.0-200.0","3psambgt","973","1128","","","","","","","","","","","null","+","Fixation - short","","null","","","","","","","","","","","","","","","","",""
"","html-keyboard-response","136","156450","0.0-201.0","3psambgt","","","","","","","","","","","","","421","efg","Diagnostic trial","","f","","0","4","6","false","false","false","both pre & post","LEFT","LEFT","f","1","true","","","",""
"","html-keyboard-response","137","157207","0.0-204.0","3psambgt","973","1128","","","","","","","","","","","null","+","Fixation - short","","null","","","","","","","","","","","","","","","","",""
"","html-keyboard-response","138","157754","0.0-205.0","3psambgt","","","","","","","","","","","","","547","efg","Diagnostic trial","","j","","0","5","6","false","false","true","both pre & post","LEFT","RIGHT","j","1","false","","","",""
"","html-keyboard-response","139","158515","0.0-208.0","3psambgt","973","1128","","","","","","","","","","","null","+","Fixation - short","","null","","","","","","","","","","","","","","","","",""
"","canvas-keyboard-response","140","159777","0.0-209.0","3psambgt","","","","","","","","","","","","","null","Cue","Cue","","null","","0","5","","","false","","","","","","","","","","",""
"","html-keyboard-response","141","160531","0.0-210.0","3psambgt","973","1128","","","","","","","","","","","null","+","Fixation - short","","null","","","","","","","","","","","","","","","","",""
"","html-keyboard-response","142","161131","0.0-211.0","3psambgt","","","","","","","","","","","","","600","efg","Diagnostic trial","","f","","0","6","6","true","false","false","both pre & post","LEFT","LEFT","f","1","true","","","",""
"","html-keyboard-response","143","161886","0.0-214.0","3psambgt","973","1128","","","","","","","","","","","null","+","Fixation - short","","null","","","","","","","","","","","","","","","","",""
"","html-keyboard-response","144","162322","0.0-215.0","3psambgt","","","","","","","","","","","","","436","frn","Inducer trial","","j","","0","","","","true","","","","","j","1","","false","RIGHT","",""
"","html-keyboard-response","145","163081","0.0-218.0","3psambgt","973","1128","","","","","","","","","","","null","+","Fixation - short","","null","","","","","","","","","","","","","","","","",""
"","html-keyboard-response","146","164546","0.0-219.0","3psambgt","","","","","","","","","","","","","1464","If sjn press RIGHT | If cnl press LEFT","Inducer instructions",""," ","","1","","","","","","","","","","","","","","",""
"","html-keyboard-response","147","165307","0.0-220.0","3psambgt","973","1128","","","","","","","","","","","null","+","Fixation - short","","null","","","","","","","","","","","","","","","","",""
"","html-keyboard-response","148","165898","0.0-221.0","3psambgt","","","","","","","","","","","","","591","sjn","Diagnostic trial","","j","","1","0","11","false","false","true","both pre & post","RIGHT","RIGHT","j","1","true","","","",""
"","html-keyboard-response","149","166660","0.0-224.0","3psambgt","973","1128","","","","","","","","","","","null","+","Fixation - short","","null","","","","","","","","","","","","","","","","",""
"","html-keyboard-response","150","167082","0.0-225.0","3psambgt","","","","","","","","","","","","","421","cnl","Diagnostic trial","","f","","1","1","11","false","false","false","both pre & post","LEFT","LEFT","f","1","true","","","",""
"","html-keyboard-response","151","167847","0.0-228.0","3psambgt","973","1128","","","","","","","","","","","null","+","Fixation - short","","null","","","","","","","","","","","","","","","","",""
"","html-keyboard-response","152","168210","0.0-229.0","3psambgt","","","","","","","","","","","","","362","cnl","Diagnostic trial","","f","","1","2","11","false","false","true","both pre & post","LEFT","RIGHT","j","0","false","","","",""
"","call-function","153","168210","0.0-231.0-0.0","3psambgt","","","","","","","","","","","","","","","","","","","","","","","","","","","","","","","","","",""
"","html-keyboard-response","154","168514","0.0-231.0-1.0","3psambgt","973","1128","","","","","","","","","","","null","Wrong","Feedback","","null","","","","","","","","","","","","","","","","",""
"","call-function","155","168515","0.0-231.0-2.0","3psambgt","","","","","","","","","","","","","","","","","","","","","","","","","","","","","","","","","",""
"","html-keyboard-response","156","169278","0.0-232.0","3psambgt","973","1128","","","","","","","","","","","null","+","Fixation - short","","null","","","","","","","","","","","","","","","","",""
"","html-keyboard-response","157","169818","0.0-233.0","3psambgt","","","","","","","","","","","","","539","sjn","Diagnostic trial","","j","","1","3","11","false","false","false","both pre & post","RIGHT","LEFT","f","0","false","","","",""
"","call-function","158","169818","0.0-235.0-0.0","3psambgt","","","","","","","","","","","","","","","","","","","","","","","","","","","","","","","","","",""
"","html-keyboard-response","159","170123","0.0-235.0-1.0","3psambgt","973","1128","","","","","","","","","","","null","Wrong","Feedback","","null","","","","","","","","","","","","","","","","",""
"","call-function","160","170123","0.0-235.0-2.0","3psambgt","","","","","","","","","","","","","","","","","","","","","","","","","","","","","","","","","",""
"","html-keyboard-response","161","170874","0.0-236.0","3psambgt","973","1128","","","","","","","","","","","null","+","Fixation - short","","null","","","","","","","","","","","","","","","","",""
"","html-keyboard-response","162","171443","0.0-237.0","3psambgt","","","","","","","","","","","","","569","sjn","Diagnostic trial","","f","","1","4","11","false","false","false","both pre & post","RIGHT","LEFT","f","1","false","","","",""
"","html-keyboard-response","163","172195","0.0-240.0","3psambgt","973","1128","","","","","","","","","","","null","+","Fixation - short","","null","","","","","","","","","","","","","","","","",""
"","html-keyboard-response","164","172578","0.0-241.0","3psambgt","","","","","","","","","","","","","383","sjn","Diagnostic trial","","f","","1","5","11","false","false","false","both pre & post","RIGHT","LEFT","f","1","false","","","",""
"","html-keyboard-response","165","173330","0.0-244.0","3psambgt","973","1128","","","","","","","","","","","null","+","Fixation - short","","null","","","","","","","","","","","","","","","","",""
"","html-keyboard-response","166","173714","0.0-245.0","3psambgt","","","","","","","","","","","","","383","cnl","Diagnostic trial","","j","","1","6","11","false","false","true","both pre & post","LEFT","RIGHT","j","1","false","","","",""
"","html-keyboard-response","167","174476","0.0-248.0","3psambgt","973","1128","","","","","","","","","","","null","+","Fixation - short","","null","","","","","","","","","","","","","","","","",""
"","html-keyboard-response","168","175322","0.0-249.0","3psambgt","","","","","","","","","","","","","845","cnl","Diagnostic trial","","f","","1","7","11","false","false","false","both pre & post","LEFT","LEFT","f","1","true","","","",""
"","html-keyboard-response","169","176076","0.0-252.0","3psambgt","973","1128","","","","","","","","","","","null","+","Fixation - short","","null","","","","","","","","","","","","","","","","",""
"","html-keyboard-response","170","176490","0.0-253.0","3psambgt","","","","","","","","","","","","","413","cnl","Diagnostic trial","","f","","1","8","11","false","false","false","both pre & post","LEFT","LEFT","f","1","true","","","",""
"","html-keyboard-response","171","177248","0.0-256.0","3psambgt","973","1128","","","","","","","","","","","null","+","Fixation - short","","null","","","","","","","","","","","","","","","","",""
"","html-keyboard-response","172","177610","0.0-257.0","3psambgt","","","","","","","","","","","","","361","cnl","Diagnostic trial","","j","","1","9","11","false","false","true","both pre & post","LEFT","RIGHT","j","1","false","","","",""
"","html-keyboard-response","173","178375","0.0-260.0","3psambgt","973","1128","","","","","","","","","","","null","+","Fixation - short","","null","","","","","","","","","","","","","","","","",""
"","html-keyboard-response","174","179194","0.0-261.0","3psambgt","","","","","","","","","","","","","818","sjn","Diagnostic trial","","f","","1","10","11","false","false","false","both pre & post","RIGHT","LEFT","f","1","false","","","",""
"","html-keyboard-response","175","179946","0.0-264.0","3psambgt","973","1128","","","","","","","","","","","null","+","Fixation - short","","null","","","","","","","","","","","","","","","","",""
"","canvas-keyboard-response","176","181198","0.0-265.0","3psambgt","","","","","","","","","","","","","null","Cue","Cue","","null","","1","10","","","false","","","","","","","","","","",""
"","html-keyboard-response","177","181953","0.0-266.0","3psambgt","973","1128","","","","","","","","","","","null","+","Fixation - short","","null","","","","","","","","","","","","","","","","",""
"","html-keyboard-response","178","182515","0.0-267.0","3psambgt","","","","","","","","","","","","","561","cnl","Diagnostic trial","","j","","1","11","11","true","false","true","both pre & post","LEFT","RIGHT","j","1","false","","","",""
"","html-keyboard-response","179","183267","0.0-270.0","3psambgt","973","1128","","","","","","","","","","","null","+","Fixation - short","","null","","","","","","","","","","","","","","","","",""
"","html-keyboard-response","180","183674","0.0-271.0","3psambgt","","","","","","","","","","","","","407","cnl","Diagnostic trial","","j","","1","12","11","true","false","false","both pre & post","LEFT","LEFT","f","0","true","","","",""
"","call-function","181","183674","0.0-273.0-0.0","3psambgt","","","","","","","","","","","","","","","","","","","","","","","","","","","","","","","","","",""
"","html-keyboard-response","182","183977","0.0-273.0-1.0","3psambgt","973","1128","","","","","","","","","","","null","Wrong","Feedback","","null","","","","","","","","","","","","","","","","",""
"","call-function","183","183977","0.0-273.0-2.0","3psambgt","","","","","","","","","","","","","","","","","","","","","","","","","","","","","","","","","",""
"","html-keyboard-response","184","184742","0.0-274.0","3psambgt","973","1128","","","","","","","","","","","null","+","Fixation - short","","null","","","","","","","","","","","","","","","","",""
"","html-keyboard-response","185","185426","0.0-275.0","3psambgt","","","","","","","","","","","","","683","sjn","Diagnostic trial","","j","","1","13","11","true","false","true","both pre & post","RIGHT","RIGHT","j","1","true","","","",""
"","html-keyboard-response","186","186188","0.0-278.0","3psambgt","973","1128","","","","","","","","","","","null","+","Fixation - short","","null","","","","","","","","","","","","","","","","",""
"","html-keyboard-response","187","186898","0.0-279.0","3psambgt","","","","","","","","","","","","","709","cnl","Diagnostic trial","","j","","1","14","11","true","false","true","both pre & post","LEFT","RIGHT","j","1","false","","","",""
"","html-keyboard-response","188","187664","0.0-282.0","3psambgt","973","1128","","","","","","","","","","","null","+","Fixation - short","","null","","","","","","","","","","","","","","","","",""
"","html-keyboard-response","189","188106","0.0-283.0","3psambgt","","","","","","","","","","","","","441","cnl","Inducer trial","","f","","1","","","","true","","","","","f","1","","false","LEFT","",""
"","html-keyboard-response","190","188865","0.0-286.0","3psambgt","973","1128","","","","","","","","","","","null","+","Fixation - short","","null","","","","","","","","","","","","","","","","",""
"","html-keyboard-response","191","189914","0.0-287.0","3psambgt","","","","","","","","","","","","","1048","If yna press RIGHT | If aor press LEFT","Inducer instructions",""," ","","2","","","","","","","","","","","","","","",""
"","html-keyboard-response","192","190677","0.0-288.0","3psambgt","973","1128","","","","","","","","","","","null","+","Fixation - short","","null","","","","","","","","","","","","","","","","",""
"","html-keyboard-response","193","191490","0.0-289.0","3psambgt","","","","","","","","","","","","","812","yna","Diagnostic trial","","j","","2","0","10","false","false","true","both pre & post","RIGHT","RIGHT","j","1","true","","","",""
"","html-keyboard-response","194","192241","0.0-292.0","3psambgt","973","1128","","","","","","","","","","","null","+","Fixation - short","","null","","","","","","","","","","","","","","","","",""
"","html-keyboard-response","195","192963","0.0-293.0","3psambgt","","","","","","","","","","","","","721","yna","Diagnostic trial","","f","","2","1","10","false","false","false","both pre & post","RIGHT","LEFT","f","1","false","","","",""
"","html-keyboard-response","196","193720","0.0-296.0","3psambgt","973","1128","","","","","","","","","","","null","+","Fixation - short","","null","","","","","","","","","","","","","","","","",""
"","html-keyboard-response","197","194242","0.0-297.0","3psambgt","","","","","","","","","","","","","521","yna","Diagnostic trial","","j","","2","2","10","false","false","true","both pre & post","RIGHT","RIGHT","j","1","true","","","",""
"","html-keyboard-response","198","195006","0.0-300.0","3psambgt","973","1128","","","","","","","","","","","null","+","Fixation - short","","null","","","","","","","","","","","","","","","","",""
"","html-keyboard-response","199","195530","0.0-301.0","3psambgt","","","","","","","","","","","","","523","yna","Diagnostic trial","","j","","2","3","10","false","false","true","both pre & post","RIGHT","RIGHT","j","1","true","","","",""
"","html-keyboard-response","200","196291","0.0-304.0","3psambgt","973","1128","","","","","","","","","","","null","+","Fixation - short","","null","","","","","","","","","","","","","","","","",""
"","html-keyboard-response","201","196746","0.0-305.0","3psambgt","","","","","","","","","","","","","454","yna","Diagnostic trial","","j","","2","4","10","false","false","true","both pre & post","RIGHT","RIGHT","j","1","true","","","",""
"","html-keyboard-response","202","197510","0.0-308.0","3psambgt","973","1128","","","","","","","","","","","null","+","Fixation - short","","null","","","","","","","","","","","","","","","","",""
"","html-keyboard-response","203","198002","0.0-309.0","3psambgt","","","","","","","","","","","","","491","aor","Diagnostic trial","","j","","2","5","10","false","false","true","both pre & post","LEFT","RIGHT","j","1","false","","","",""
"","html-keyboard-response","204","198765","0.0-312.0","3psambgt","973","1128","","","","","","","","","","","null","+","Fixation - short","","null","","","","","","","","","","","","","","","","",""
"","html-keyboard-response","205","199298","0.0-313.0","3psambgt","","","","","","","","","","","","","532","aor","Diagnostic trial","","f","","2","6","10","false","false","false","both pre & post","LEFT","LEFT","f","1","true","","","",""
"","html-keyboard-response","206","200048","0.0-316.0","3psambgt","973","1128","","","","","","","","","","","null","+","Fixation - short","","null","","","","","","","","","","","","","","","","",""
"","html-keyboard-response","207","200434","0.0-317.0","3psambgt","","","","","","","","","","","","","385","aor","Diagnostic trial","","f","","2","7","10","false","false","false","both pre & post","LEFT","LEFT","f","1","true","","","",""
"","html-keyboard-response","208","201191","0.0-320.0","3psambgt","973","1128","","","","","","","","","","","null","+","Fixation - short","","null","","","","","","","","","","","","","","","","",""
"","html-keyboard-response","209","201546","0.0-321.0","3psambgt","","","","","","","","","","","","","354","aor","Diagnostic trial","","j","","2","8","10","false","false","true","both pre & post","LEFT","RIGHT","j","1","false","","","",""
"","html-keyboard-response","210","202303","0.0-324.0","3psambgt","973","1128","","","","","","","","","","","null","+","Fixation - short","","null","","","","","","","","","","","","","","","","",""
"","html-keyboard-response","211","202906","0.0-325.0","3psambgt","","","","","","","","","","","","","602","aor","Diagnostic trial","","j","","2","9","10","false","false","true","both pre & post","LEFT","RIGHT","j","1","false","","","",""
"","html-keyboard-response","212","203657","0.0-328.0","3psambgt","973","1128","","","","","","","","","","","null","+","Fixation - short","","null","","","","","","","","","","","","","","","","",""
"","canvas-keyboard-response","213","204916","0.0-329.0","3psambgt","","","","","","","","","","","","","null","Cue","Cue","","null","","2","9","","","false","","","","","","","","","","",""
"","html-keyboard-response","214","205678","0.0-330.0","3psambgt","973","1128","","","","","","","","","","","null","+","Fixation - short","","null","","","","","","","","","","","","","","","","",""
"","html-keyboard-response","215","206307","0.0-331.0","3psambgt","","","","","","","","","","","","","629","yna","Diagnostic trial","","f","","2","10","10","true","false","false","both pre & post","RIGHT","LEFT","f","1","false","","","",""
"","html-keyboard-response","216","207066","0.0-334.0","3psambgt","973","1128","","","","","","","","","","","null","+","Fixation - short","","null","","","","","","","","","","","","","","","","",""
"","html-keyboard-response","217","207506","0.0-335.0","3psambgt","","","","","","","","","","","","","439","yna","Diagnostic trial","","f","","2","11","10","true","false","false","both pre & post","RIGHT","LEFT","f","1","false","","","",""
"","html-keyboard-response","218","208261","0.0-338.0","3psambgt","973","1128","","","","","","","","","","","null","+","Fixation - short","","null","","","","","","","","","","","","","","","","",""
"","html-keyboard-response","219","208778","0.0-339.0","3psambgt","","","","","","","","","","","","","516","aor","Diagnostic trial","","f","","2","12","10","true","false","false","both pre & post","LEFT","LEFT","f","1","true","","","",""
"","html-keyboard-response","220","209529","0.0-342.0","3psambgt","973","1128","","","","","","","","","","","null","+","Fixation - short","","null","","","","","","","","","","","","","","","","",""
"","html-keyboard-response","221","210121","0.0-343.0","3psambgt","","","","","","","","","","","","","592","aor","Diagnostic trial","","j","","2","13","10","true","false","true","both pre & post","LEFT","RIGHT","j","1","false","","","",""
"","html-keyboard-response","222","210883","0.0-346.0","3psambgt","973","1128","","","","","","","","","","","null","+","Fixation - short","","null","","","","","","","","","","","","","","","","",""
"","html-keyboard-response","223","211362","0.0-347.0","3psambgt","","","","","","","","","","","","","478","aor","Inducer trial","","f","","2","","","","true","","","","","f","1","","false","LEFT","",""
"","html-keyboard-response","224","212117","0.0-350.0","3psambgt","973","1128","","","","","","","","","","","null","+","Fixation - short","","null","","","","","","","","","","","","","","","","",""
"","html-keyboard-response","225","212921","0.0-351.0","3psambgt","","","","","","","","","","","","","803","If bwe press RIGHT | If jcr press LEFT","Inducer instructions",""," ","","3","","","","","","","","","","","","","","",""
"","html-keyboard-response","226","213673","0.0-352.0","3psambgt","973","1128","","","","","","","","","","","null","+","Fixation - short","","null","","","","","","","","","","","","","","","","",""
"","html-keyboard-response","227","214241","0.0-353.0","3psambgt","","","","","","","","","","","","","568","jcr","Diagnostic trial","","j","","3","0","8","false","false","true","both pre & post","LEFT","RIGHT","j","1","false","","","",""
"","html-keyboard-response","228","214995","0.0-356.0","3psambgt","973","1128","","","","","","","","","","","null","+","Fixation - short","","null","","","","","","","","","","","","","","","","",""
"","html-keyboard-response","229","215362","0.0-357.0","3psambgt","","","","","","","","","","","","","366","jcr","Diagnostic trial","","f","","3","1","8","false","false","false","both pre & post","LEFT","LEFT","f","1","true","","","",""
"","html-keyboard-response","230","216123","0.0-360.0","3psambgt","973","1128","","","","","","","","","","","null","+","Fixation - short","","null","","","","","","","","","","","","","","","","",""
"","html-keyboard-response","231","216483","0.0-361.0","3psambgt","","","","","","","","","","","","","359","jcr","Diagnostic trial","","j","","3","2","8","false","false","true","both pre & post","LEFT","RIGHT","j","1","false","","","",""
"","html-keyboard-response","232","217244","0.0-364.0","3psambgt","973","1128","","","","","","","","","","","null","+","Fixation - short","","null","","","","","","","","","","","","","","","","",""
"","html-keyboard-response","233","217905","0.0-365.0","3psambgt","","","","","","","","","","","","","661","bwe","Diagnostic trial","","f","","3","3","8","false","false","false","both pre & post","RIGHT","LEFT","f","1","false","","","",""
"","html-keyboard-response","234","218668","0.0-368.0","3psambgt","973","1128","","","","","","","","","","","null","+","Fixation - short","","null","","","","","","","","","","","","","","","","",""
"","html-keyboard-response","235","219065","0.0-369.0","3psambgt","","","","","","","","","","","","","397","bwe","Diagnostic trial","","f","","3","4","8","false","false","true","both pre & post","RIGHT","RIGHT","j","0","true","","","",""
"","call-function","236","219066","0.0-371.0-0.0","3psambgt","","","","","","","","","","","","","","","","","","","","","","","","","","","","","","","","","",""
"","html-keyboard-response","237","219367","0.0-371.0-1.0","3psambgt","973","1128","","","","","","","","","","","null","Wrong","Feedback","","null","","","","","","","","","","","","","","","","",""
"","call-function","238","219367","0.0-371.0-2.0","3psambgt","","","","","","","","","","","","","","","","","","","","","","","","","","","","","","","","","",""
"","html-keyboard-response","239","220125","0.0-372.0","3psambgt","973","1128","","","","","","","","","","","null","+","Fixation - short","","null","","","","","","","","","","","","","","","","",""
"","html-keyboard-response","240","220657","0.0-373.0","3psambgt","","","","","","","","","","","","","532","jcr","Diagnostic trial","","j","","3","5","8","false","false","true","both pre & post","LEFT","RIGHT","j","1","false","","","",""
"","html-keyboard-response","241","221424","0.0-376.0","3psambgt","973","1128","","","","","","","","","","","null","+","Fixation - short","","null","","","","","","","","","","","","","","","","",""
"","html-keyboard-response","242","221785","0.0-377.0","3psambgt","","","","","","","","","","","","","361","jcr","Diagnostic trial","","j","","3","6","8","false","false","true","both pre & post","LEFT","RIGHT","j","1","false","","","",""
"","html-keyboard-response","243","222550","0.0-380.0","3psambgt","973","1128","","","","","","","","","","","null","+","Fixation - short","","null","","","","","","","","","","","","","","","","",""
"","html-keyboard-response","244","222921","0.0-381.0","3psambgt","","","","","","","","","","","","","371","jcr","Diagnostic trial","","j","","3","7","8","false","false","true","both pre & post","LEFT","RIGHT","j","1","false","","","",""
"","html-keyboard-response","245","223678","0.0-384.0","3psambgt","973","1128","","","","","","","","","","","null","+","Fixation - short","","null","","","","","","","","","","","","","","","","",""
"","canvas-keyboard-response","246","224936","0.0-385.0","3psambgt","","","","","","","","","","","","","null","Cue","Cue","","null","","3","7","","","false","","","","","","","","","","",""
"","html-keyboard-response","247","225698","0.0-386.0","3psambgt","973","1128","","","","","","","","","","","null","+","Fixation - short","","null","","","","","","","","","","","","","","","","",""
"","html-keyboard-response","248","226337","0.0-387.0","3psambgt","","","","","","","","","","","","","639","bwe","Diagnostic trial","","j","","3","8","8","true","false","true","both pre & post","RIGHT","RIGHT","j","1","true","","","",""
"","html-keyboard-response","249","227096","0.0-390.0","3psambgt","973","1128","","","","","","","","","","","null","+","Fixation - short","","null","","","","","","","","","","","","","","","","",""
"","html-keyboard-response","250","227475","0.0-391.0","3psambgt","","","","","","","","","","","","","378","jcr","Diagnostic trial","","j","","3","9","8","true","false","true","both pre & post","LEFT","RIGHT","j","1","false","","","",""
"","html-keyboard-response","251","228237","0.0-394.0","3psambgt","973","1128","","","","","","","","","","","null","+","Fixation - short","","null","","","","","","","","","","","","","","","","",""
"","html-keyboard-response","252","228761","0.0-395.0","3psambgt","","","","","","","","","","","","","524","bwe","Diagnostic trial","","j","","3","10","8","true","false","false","both pre & post","RIGHT","LEFT","f","0","false","","","",""
"","call-function","253","228761","0.0-397.0-0.0","3psambgt","","","","","","","","","","","","","","","","","","","","","","","","","","","","","","","","","",""
"","html-keyboard-response","254","229067","0.0-397.0-1.0","3psambgt","973","1128","","","","","","","","","","","null","Wrong","Feedback","","null","","","","","","","","","","","","","","","","",""
"","call-function","255","229067","0.0-397.0-2.0","3psambgt","","","","","","","","","","","","","","","","","","","","","","","","","","","","","","","","","",""
"","html-keyboard-response","256","229833","0.0-398.0","3psambgt","973","1128","","","","","","","","","","","null","+","Fixation - short","","null","","","","","","","","","","","","","","","","",""
"","html-keyboard-response","257","230425","0.0-399.0","3psambgt","","","","","","","","","","","","","592","bwe","Diagnostic trial","","j","","3","11","8","true","false","true","both pre & post","RIGHT","RIGHT","j","1","true","","","",""
"","html-keyboard-response","258","231187","0.0-402.0","3psambgt","973","1128","","","","","","","","","","","null","+","Fixation - short","","null","","","","","","","","","","","","","","","","",""
"","html-keyboard-response","259","231601","0.0-403.0","3psambgt","","","","","","","","","","","","","414","jcr","Inducer trial","","f","","3","","","","true","","","","","f","1","","false","LEFT","",""
"","html-keyboard-response","260","232366","0.0-406.0","3psambgt","973","1128","","","","","","","","","","","null","+","Fixation - short","","null","","","","","","","","","","","","","","","","",""
"","html-keyboard-response","261","233228","0.0-407.0","3psambgt","","","","","","","","","","","","","862","If kho press RIGHT | If rpw press LEFT","Inducer instructions",""," ","","4","","","","","","","","","","","","","","",""
"","html-keyboard-response","262","233989","0.0-408.0","3psambgt","973","1128","","","","","","","","","","","null","+","Fixation - short","","null","","","","","","","","","","","","","","","","",""
"","html-keyboard-response","263","234473","0.0-409.0","3psambgt","","","","","","","","","","","","","483","rpw","Diagnostic trial","","j","","4","0","7","false","false","true","both pre & post","LEFT","RIGHT","j","1","false","","","",""
"","html-keyboard-response","264","235237","0.0-412.0","3psambgt","973","1128","","","","","","","","","","","null","+","Fixation - short","","null","","","","","","","","","","","","","","","","",""
"","html-keyboard-response","265","235697","0.0-413.0","3psambgt","","","","","","","","","","","","","459","rpw","Diagnostic trial","","j","","4","1","7","false","false","true","both pre & post","LEFT","RIGHT","j","1","false","","","",""
"","html-keyboard-response","266","236462","0.0-416.0","3psambgt","973","1128","","","","","","","","","","","null","+","Fixation - short","","null","","","","","","","","","","","","","","","","",""
"","html-keyboard-response","267","236849","0.0-417.0","3psambgt","","","","","","","","","","","","","387","rpw","Diagnostic trial","","j","","4","2","7","false","false","false","both pre & post","LEFT","LEFT","f","0","true","","","",""
"","call-function","268","236850","0.0-419.0-0.0","3psambgt","","","","","","","","","","","","","","","","","","","","","","","","","","","","","","","","","",""
"","html-keyboard-response","269","237162","0.0-419.0-1.0","3psambgt","973","1128","","","","","","","","","","","null","Wrong","Feedback","","null","","","","","","","","","","","","","","","","",""
"","call-function","270","237162","0.0-419.0-2.0","3psambgt","","","","","","","","","","","","","","","","","","","","","","","","","","","","","","","","","",""
"","html-keyboard-response","271","237928","0.0-420.0","3psambgt","973","1128","","","","","","","","","","","null","+","Fixation - short","","null","","","","","","","","","","","","","","","","",""
"","html-keyboard-response","272","238482","0.0-421.0","3psambgt","","","","","","","","","","","","","554","rpw","Diagnostic trial","","f","","4","3","7","false","false","false","both pre & post","LEFT","LEFT","f","1","true","","","",""
"","html-keyboard-response","273","239235","0.0-424.0","3psambgt","973","1128","","","","","","","","","","","null","+","Fixation - short","","null","","","","","","","","","","","","","","","","",""
"","html-keyboard-response","274","239649","0.0-425.0","3psambgt","","","","","","","","","","","","","413","rpw","Diagnostic trial","","f","","4","4","7","false","false","false","both pre & post","LEFT","LEFT","f","1","true","","","",""
"","html-keyboard-response","275","240411","0.0-428.0","3psambgt","973","1128","","","","","","","","","","","null","+","Fixation - short","","null","","","","","","","","","","","","","","","","",""
"","html-keyboard-response","276","240793","0.0-429.0","3psambgt","","","","","","","","","","","","","382","rpw","Diagnostic trial","","f","","4","5","7","false","false","true","both pre & post","LEFT","RIGHT","j","0","false","","","",""
"","call-function","277","240793","0.0-431.0-0.0","3psambgt","","","","","","","","","","","","","","","","","","","","","","","","","","","","","","","","","",""
"","html-keyboard-response","278","241101","0.0-431.0-1.0","3psambgt","973","1128","","","","","","","","","","","null","Wrong","Feedback","","null","","","","","","","","","","","","","","","","",""
"","call-function","279","241101","0.0-431.0-2.0","3psambgt","","","","","","","","","","","","","","","","","","","","","","","","","","","","","","","","","",""
"","html-keyboard-response","280","241865","0.0-432.0","3psambgt","973","1128","","","","","","","","","","","null","+","Fixation - short","","null","","","","","","","","","","","","","","","","",""
"","html-keyboard-response","281","242465","0.0-433.0","3psambgt","","","","","","","","","","","","","600","kho","Diagnostic trial","","f","","4","6","7","false","false","false","both pre & post","RIGHT","LEFT","f","1","false","","","",""
"","html-keyboard-response","282","243219","0.0-436.0","3psambgt","973","1128","","","","","","","","","","","null","+","Fixation - short","","null","","","","","","","","","","","","","","","","",""
"","canvas-keyboard-response","283","244477","0.0-437.0","3psambgt","","","","","","","","","","","","","null","Cue","Cue","","null","","4","6","","","false","","","","","","","","","","",""
"","html-keyboard-response","284","245243","0.0-438.0","3psambgt","973","1128","","","","","","","","","","","null","+","Fixation - short","","null","","","","","","","","","","","","","","","","",""
"","html-keyboard-response","285","245897","0.0-439.0","3psambgt","","","","","","","","","","","","","654","kho","Diagnostic trial","","f","","4","7","7","true","false","false","both pre & post","RIGHT","LEFT","f","1","false","","","",""
"","html-keyboard-response","286","246662","0.0-442.0","3psambgt","973","1128","","","","","","","","","","","null","+","Fixation - short","","null","","","","","","","","","","","","","","","","",""
"","html-keyboard-response","287","247050","0.0-443.0","3psambgt","","","","","","","","","","","","","387","kho","Diagnostic trial","","f","","4","8","7","true","false","false","both pre & post","RIGHT","LEFT","f","1","false","","","",""
"","html-keyboard-response","288","247810","0.0-446.0","3psambgt","973","1128","","","","","","","","","","","null","+","Fixation - short","","null","","","","","","","","","","","","","","","","",""
"","html-keyboard-response","289","248361","0.0-447.0","3psambgt","","","","","","","","","","","","","550","kho","Diagnostic trial","","j","","4","9","7","true","false","true","both pre & post","RIGHT","RIGHT","j","1","true","","","",""
"","html-keyboard-response","290","249124","0.0-450.0","3psambgt","973","1128","","","","","","","","","","","null","+","Fixation - short","","null","","","","","","","","","","","","","","","","",""
"","html-keyboard-response","291","249674","0.0-451.0","3psambgt","","","","","","","","","","","","","550","kho","Diagnostic trial","","j","","4","10","7","true","false","true","both pre & post","RIGHT","RIGHT","j","1","true","","","",""
"","html-keyboard-response","292","250429","0.0-454.0","3psambgt","973","1128","","","","","","","","","","","null","+","Fixation - short","","null","","","","","","","","","","","","","","","","",""
"","html-keyboard-response","293","251001","0.0-455.0","3psambgt","","","","","","","","","","","","","572","rpw","Inducer trial","","f","","4","","","","true","","","","","f","1","","false","LEFT","",""
"","html-keyboard-response","294","251762","0.0-458.0","3psambgt","973","1128","","","","","","","","","","","null","+","Fixation - short","","null","","","","","","","","","","","","","","","","",""
"","html-keyboard-response","295","260282","0.0-459.0","3psambgt","","","","","","","","","","","","","8520","If pxv press RIGHT | If cui press LEFT","Inducer instructions",""," ","","5","","","","","","","","","","","","","","",""
"","html-keyboard-response","296","261043","0.0-460.0","3psambgt","973","1128","","","","","","","","","","","null","+","Fixation - short","","null","","","","","","","","","","","","","","","","",""
"","html-keyboard-response","297","261697","0.0-461.0","3psambgt","","","","","","","","","","","","","653","cui","Diagnostic trial","","f","","5","0","5","false","false","false","both pre & post","LEFT","LEFT","f","1","true","","","",""
"","html-keyboard-response","298","262450","0.0-464.0","3psambgt","973","1128","","","","","","","","","","","null","+","Fixation - short","","null","","","","","","","","","","","","","","","","",""
"","html-keyboard-response","299","262865","0.0-465.0","3psambgt","","","","","","","","","","","","","415","cui","Diagnostic trial","","j","","5","1","5","false","false","true","both pre & post","LEFT","RIGHT","j","1","false","","","",""
"","html-keyboard-response","300","263625","0.0-468.0","3psambgt","973","1128","","","","","","","","","","","null","+","Fixation - short","","null","","","","","","","","","","","","","","","","",""
"","html-keyboard-response","301","263977","0.0-469.0","3psambgt","","","","","","","","","","","","","351","cui","Diagnostic trial","","j","","5","2","5","false","false","true","both pre & post","LEFT","RIGHT","j","1","false","","","",""
"","html-keyboard-response","302","264743","0.0-472.0","3psambgt","973","1128","","","","","","","","","","","null","+","Fixation - short","","null","","","","","","","","","","","","","","","","",""
"","html-keyboard-response","303","265177","0.0-473.0","3psambgt","","","","","","","","","","","","","434","pxv","Diagnostic trial","","f","","5","3","5","false","false","false","both pre & post","RIGHT","LEFT","f","1","false","","","",""
"","html-keyboard-response","304","265941","0.0-476.0","3psambgt","973","1128","","","","","","","","","","","null","+","Fixation - short","","null","","","","","","","","","","","","","","","","",""
"","html-keyboard-response","305","266321","0.0-477.0","3psambgt","","","","","","","","","","","","","380","pxv","Diagnostic trial","","f","","5","4","5","false","false","true","both pre & post","RIGHT","RIGHT","j","0","true","","","",""
"","call-function","306","266321","0.0-479.0-0.0","3psambgt","","","","","","","","","","","","","","","","","","","","","","","","","","","","","","","","","",""
"","html-keyboard-response","307","266625","0.0-479.0-1.0","3psambgt","973","1128","","","","","","","","","","","null","Wrong","Feedback","","null","","","","","","","","","","","","","","","","",""
"","call-function","308","266625","0.0-479.0-2.0","3psambgt","","","","","","","","","","","","","","","","","","","","","","","","","","","","","","","","","",""
"","html-keyboard-response","309","267391","0.0-480.0","3psambgt","973","1128","","","","","","","","","","","null","+","Fixation - short","","null","","","","","","","","","","","","","","","","",""
"","canvas-keyboard-response","310","268646","0.0-481.0","3psambgt","","","","","","","","","","","","","null","Cue","Cue","","null","","5","4","","","false","","","","","","","","","","",""
"","html-keyboard-response","311","269408","0.0-482.0","3psambgt","973","1128","","","","","","","","","","","null","+","Fixation - short","","null","","","","","","","","","","","","","","","","",""
"","html-keyboard-response","312","269753","0.0-483.0","3psambgt","","","","","","","","","","","","","344","cui","Diagnostic trial","","j","","5","5","5","true","false","true","both pre & post","LEFT","RIGHT","j","1","false","","","",""
"","html-keyboard-response","313","270509","0.0-486.0","3psambgt","973","1128","","","","","","","","","","","null","+","Fixation - short","","null","","","","","","","","","","","","","","","","",""
"","html-keyboard-response","314","270986","0.0-487.0","3psambgt","","","","","","","","","","","","","476","cui","Diagnostic trial","","f","","5","6","5","true","false","false","both pre & post","LEFT","LEFT","f","1","true","","","",""
"","html-keyboard-response","315","271738","0.0-490.0","3psambgt","973","1128","","","","","","","","","","","null","+","Fixation - short","","null","","","","","","","","","","","","","","","","",""
"","html-keyboard-response","316","272313","0.0-491.0","3psambgt","","","","","","","","","","","","","575","pxv","Diagnostic trial","","j","","5","7","5","true","false","true","both pre & post","RIGHT","RIGHT","j","1","true","","","",""
"","html-keyboard-response","317","273067","0.0-494.0","3psambgt","973","1128","","","","","","","","","","","null","+","Fixation - short","","null","","","","","","","","","","","","","","","","",""
"","html-keyboard-response","318","273537","0.0-495.0","3psambgt","","","","","","","","","","","","","470","cui","Diagnostic trial","","f","","5","8","5","true","false","false","both pre & post","LEFT","LEFT","f","1","true","","","",""
"","html-keyboard-response","319","274292","0.0-498.0","3psambgt","973","1128","","","","","","","","","","","null","+","Fixation - short","","null","","","","","","","","","","","","","","","","",""
"","html-keyboard-response","320","274777","0.0-499.0","3psambgt","","","","","","","","","","","","","484","pxv","Inducer trial","","j","","5","","","","true","","","","","j","1","","false","RIGHT","",""
"","html-keyboard-response","321","275538","0.0-502.0","3psambgt","973","1128","","","","","","","","","","","null","+","Fixation - short","","null","","","","","","","","","","","","","","","","",""
"","html-keyboard-response","322","276081","0.0-503.0","3psambgt","","","","","","","","","","","","","542","If asn press RIGHT | If cta press LEFT","Inducer instructions",""," ","","6","","","","","","","","","","","","","","",""
"","html-keyboard-response","323","276845","0.0-504.0","3psambgt","973","1128","","","","","","","","","","","null","+","Fixation - short","","null","","","","","","","","","","","","","","","","",""
"","html-keyboard-response","324","277337","0.0-505.0","3psambgt","","","","","","","","","","","","","491","asn","Diagnostic trial","","j","","6","0","10","false","false","true","both pre & post","RIGHT","RIGHT","j","1","true","","","",""
"","html-keyboard-response","325","278098","0.0-508.0","3psambgt","973","1128","","","","","","","","","","","null","+","Fixation - short","","null","","","","","","","","","","","","","","","","",""
"","html-keyboard-response","326","278489","0.0-509.0","3psambgt","","","","","","","","","","","","","390","asn","Diagnostic trial","","j","","6","1","10","false","false","true","both pre & post","RIGHT","RIGHT","j","1","true","","","",""
"","html-keyboard-response","327","279254","0.0-512.0","3psambgt","973","1128","","","","","","","","","","","null","+","Fixation - short","","null","","","","","","","","","","","","","","","","",""
"","html-keyboard-response","328","279649","0.0-513.0","3psambgt","","","","","","","","","","","","","394","cta","Diagnostic trial","","f","","6","2","10","false","false","false","both pre & post","LEFT","LEFT","f","1","true","","","",""
"","html-keyboard-response","329","280412","0.0-516.0","3psambgt","973","1128","","","","","","","","","","","null","+","Fixation - short","","null","","","","","","","","","","","","","","","","",""
"","html-keyboard-response","330","280801","0.0-517.0","3psambgt","","","","","","","","","","","","","388","cta","Diagnostic trial","","f","","6","3","10","false","false","false","both pre & post","LEFT","LEFT","f","1","true","","","",""
"","html-keyboard-response","331","281558","0.0-520.0","3psambgt","973","1128","","","","","","","","","","","null","+","Fixation - short","","null","","","","","","","","","","","","","","","","",""
"","html-keyboard-response","332","282106","0.0-521.0","3psambgt","","","","","","","","","","","","","547","cta","Diagnostic trial","","f","","6","4","10","false","false","false","both pre & post","LEFT","LEFT","f","1","true","","","",""
"","html-keyboard-response","333","282859","0.0-524.0","3psambgt","973","1128","","","","","","","","","","","null","+","Fixation - short","","null","","","","","","","","","","","","","","","","",""
"","html-keyboard-response","334","283217","0.0-525.0","3psambgt","","","","","","","","","","","","","358","asn","Diagnostic trial","","j","","6","5","10","false","false","true","both pre & post","RIGHT","RIGHT","j","1","true","","","",""
"","html-keyboard-response","335","283970","0.0-528.0","3psambgt","973","1128","","","","","","","","","","","null","+","Fixation - short","","null","","","","","","","","","","","","","","","","",""
"","html-keyboard-response","336","284585","0.0-529.0","3psambgt","","","","","","","","","","","","","614","asn","Diagnostic trial","","f","","6","6","10","false","false","false","both pre & post","RIGHT","LEFT","f","1","false","","","",""
"","html-keyboard-response","337","285348","0.0-532.0","3psambgt","973","1128","","","","","","","","","","","null","+","Fixation - short","","null","","","","","","","","","","","","","","","","",""
"","html-keyboard-response","338","285833","0.0-533.0","3psambgt","","","","","","","","","","","","","485","asn","Diagnostic trial","","j","","6","7","10","false","false","true","both pre & post","RIGHT","RIGHT","j","1","true","","","",""
"","html-keyboard-response","339","286598","0.0-536.0","3psambgt","973","1128","","","","","","","","","","","null","+","Fixation - short","","null","","","","","","","","","","","","","","","","",""
"","html-keyboard-response","340","287393","0.0-537.0","3psambgt","","","","","","","","","","","","","794","cta","Diagnostic trial","","f","","6","8","10","false","false","false","both pre & post","LEFT","LEFT","f","1","true","","","",""
"","html-keyboard-response","341","288157","0.0-540.0","3psambgt","973","1128","","","","","","","","","","","null","+","Fixation - short","","null","","","","","","","","","","","","","","","","",""
"","html-keyboard-response","342","288641","0.0-541.0","3psambgt","","","","","","","","","","","","","483","cta","Diagnostic trial","","j","","6","9","10","false","false","true","both pre & post","LEFT","RIGHT","j","1","false","","","",""
"","html-keyboard-response","343","289402","0.0-544.0","3psambgt","973","1128","","","","","","","","","","","null","+","Fixation - short","","null","","","","","","","","","","","","","","","","",""
"","canvas-keyboard-response","344","290661","0.0-545.0","3psambgt","","","","","","","","","","","","","null","Cue","Cue","","null","","6","9","","","false","","","","","","","","","","",""
"","html-keyboard-response","345","291423","0.0-546.0","3psambgt","973","1128","","","","","","","","","","","null","+","Fixation - short","","null","","","","","","","","","","","","","","","","",""
"","html-keyboard-response","346","291921","0.0-547.0","3psambgt","","","","","","","","","","","","","497","cta","Diagnostic trial","","j","","6","10","10","true","false","true","both pre & post","LEFT","RIGHT","j","1","false","","","",""
"","html-keyboard-response","347","292677","0.0-550.0","3psambgt","973","1128","","","","","","","","","","","null","+","Fixation - short","","null","","","","","","","","","","","","","","","","",""
"","html-keyboard-response","348","293210","0.0-551.0","3psambgt","","","","","","","","","","","","","532","cta","Diagnostic trial","","f","","6","11","10","true","false","false","both pre & post","LEFT","LEFT","f","1","true","","","",""
"","html-keyboard-response","349","293970","0.0-554.0","3psambgt","973","1128","","","","","","","","","","","null","+","Fixation - short","","null","","","","","","","","","","","","","","","","",""
"","html-keyboard-response","350","294585","0.0-555.0","3psambgt","","","","","","","","","","","","","614","asn","Diagnostic trial","","j","","6","12","10","true","false","true","both pre & post","RIGHT","RIGHT","j","1","true","","","",""
"","html-keyboard-response","351","295343","0.0-558.0","3psambgt","973","1128","","","","","","","","","","","null","+","Fixation - short","","null","","","","","","","","","","","","","","","","",""
"","html-keyboard-response","352","295817","0.0-559.0","3psambgt","","","","","","","","","","","","","473","asn","Diagnostic trial","","j","","6","13","10","true","false","true","both pre & post","RIGHT","RIGHT","j","1","true","","","",""
"","html-keyboard-response","353","296582","0.0-562.0","3psambgt","973","1128","","","","","","","","","","","null","+","Fixation - short","","null","","","","","","","","","","","","","","","","",""
"","html-keyboard-response","354","297209","0.0-563.0","3psambgt","","","","","","","","","","","","","626","asn","Inducer trial","","j","","6","","","","true","","","","","j","1","","false","RIGHT","",""
"","html-keyboard-response","355","297964","0.0-566.0","3psambgt","973","1128","","","","","","","","","","","null","+","Fixation - short","","null","","","","","","","","","","","","","","","","",""
"","html-keyboard-response","356","298585","0.0-567.0","3psambgt","","","","","","","","","","","","","620","If mik press RIGHT | If tgf press LEFT","Inducer instructions",""," ","","7","","","","","","","","","","","","","","",""
"","html-keyboard-response","357","299348","0.0-568.0","3psambgt","973","1128","","","","","","","","","","","null","+","Fixation - short","","null","","","","","","","","","","","","","","","","",""
"","html-keyboard-response","358","299809","0.0-569.0","3psambgt","","","","","","","","","","","","","461","mik","Diagnostic trial","","j","","7","0","4","false","false","true","both pre & post","RIGHT","RIGHT","j","1","true","","","",""
"","html-keyboard-response","359","300567","0.0-572.0","3psambgt","973","1128","","","","","","","","","","","null","+","Fixation - short","","null","","","","","","","","","","","","","","","","",""
"","html-keyboard-response","360","300961","0.0-573.0","3psambgt","","","","","","","","","","","","","393","tgf","Diagnostic trial","","f","","7","1","4","false","false","false","both pre & post","LEFT","LEFT","f","1","true","","","",""
"","html-keyboard-response","361","301725","0.0-576.0","3psambgt","973","1128","","","","","","","","","","","null","+","Fixation - short","","null","","","","","","","","","","","","","","","","",""
"","html-keyboard-response","362","302120","0.0-577.0","3psambgt","","","","","","","","","","","","","395","tgf","Diagnostic trial","","f","","7","2","4","false","false","false","both pre & post","LEFT","LEFT","f","1","true","","","",""
"","html-keyboard-response","363","302886","0.0-580.0","3psambgt","973","1128","","","","","","","","","","","null","+","Fixation - short","","null","","","","","","","","","","","","","","","","",""
"","html-keyboard-response","364","303297","0.0-581.0","3psambgt","","","","","","","","","","","","","411","mik","Diagnostic trial","","j","","7","3","4","false","false","true","both pre & post","RIGHT","RIGHT","j","1","true","","","",""
"","html-keyboard-response","365","304054","0.0-584.0","3psambgt","973","1128","","","","","","","","","","","null","+","Fixation - short","","null","","","","","","","","","","","","","","","","",""
"","canvas-keyboard-response","366","305315","0.0-585.0","3psambgt","","","","","","","","","","","","","null","Cue","Cue","","null","","7","3","","","false","","","","","","","","","","",""
"","html-keyboard-response","367","306078","0.0-586.0","3psambgt","973","1128","","","","","","","","","","","null","+","Fixation - short","","null","","","","","","","","","","","","","","","","",""
"","html-keyboard-response","368","306640","0.0-587.0","3psambgt","","","","","","","","","","","","","561","tgf","Diagnostic trial","","j","","7","4","4","true","false","true","both pre & post","LEFT","RIGHT","j","1","false","","","",""
"","html-keyboard-response","369","307404","0.0-590.0","3psambgt","973","1128","","","","","","","","","","","null","+","Fixation - short","","null","","","","","","","","","","","","","","","","",""
"","html-keyboard-response","370","307768","0.0-591.0","3psambgt","","","","","","","","","","","","","363","tgf","Diagnostic trial","","j","","7","5","4","true","false","false","both pre & post","LEFT","LEFT","f","0","true","","","",""
"","call-function","371","307768","0.0-593.0-0.0","3psambgt","","","","","","","","","","","","","","","","","","","","","","","","","","","","","","","","","",""
"","html-keyboard-response","372","308070","0.0-593.0-1.0","3psambgt","973","1128","","","","","","","","","","","null","Wrong","Feedback","","null","","","","","","","","","","","","","","","","",""
"","call-function","373","308070","0.0-593.0-2.0","3psambgt","","","","","","","","","","","","","","","","","","","","","","","","","","","","","","","","","",""
"","html-keyboard-response","374","308829","0.0-594.0","3psambgt","973","1128","","","","","","","","","","","null","+","Fixation - short","","null","","","","","","","","","","","","","","","","",""
"","html-keyboard-response","375","309568","0.0-595.0","3psambgt","","","","","","","","","","","","","738","tgf","Inducer trial","","j","","7","","","","true","","","","","f","0","","false","LEFT","",""
"","call-function","376","309568","0.0-597.0-0.0","3psambgt","","","","","","","","","","","","","","","","","","","","","","","","","","","","","","","","","",""
"","html-keyboard-response","377","309876","0.0-597.0-1.0","3psambgt","973","1128","","","","","","","","","","","null","Wrong","Feedback","","null","","","","","","","","","","","","","","","","",""
"","call-function","378","309876","0.0-597.0-2.0","3psambgt","","","","","","","","","","","","","","","","","","","","","","","","","","","","","","","","","",""
"","html-keyboard-response","379","310641","0.0-598.0","3psambgt","973","1128","","","","","","","","","","","null","+","Fixation - short","","null","","","","","","","","","","","","","","","","",""
"","html-keyboard-response","380","311400","0.0-599.0","3psambgt","","","","","","","","","","","","","758","If ebe press RIGHT | If wwt press LEFT","Inducer instructions",""," ","","8","","","","","","","","","","","","","","",""
"","html-keyboard-response","381","312155","0.0-600.0","3psambgt","973","1128","","","","","","","","","","","null","+","Fixation - short","","null","","","","","","","","","","","","","","","","",""
"","html-keyboard-response","382","312864","0.0-601.0","3psambgt","","","","","","","","","","","","","708","ebe","Diagnostic trial","","f","","8","0","7","false","false","false","both pre & post","RIGHT","LEFT","f","1","false","","","",""
"","html-keyboard-response","383","313618","0.0-604.0","3psambgt","973","1128","","","","","","","","","","","null","+","Fixation - short","","null","","","","","","","","","","","","","","","","",""
"","html-keyboard-response","384","314041","0.0-605.0","3psambgt","","","","","","","","","","","","","423","wwt","Diagnostic trial","","j","","8","1","7","false","false","true","both pre & post","LEFT","RIGHT","j","1","false","","","",""
"","html-keyboard-response","385","314795","0.0-608.0","3psambgt","973","1128","","","","","","","","","","","null","+","Fixation - short","","null","","","","","","","","","","","","","","","","",""
"","html-keyboard-response","386","315568","0.0-609.0","3psambgt","","","","","","","","","","","","","773","ebe","Diagnostic trial","","j","","8","2","7","false","false","true","both pre & post","RIGHT","RIGHT","j","1","true","","","",""
"","html-keyboard-response","387","316325","0.0-612.0","3psambgt","973","1128","","","","","","","","","","","null","+","Fixation - short","","null","","","","","","","","","","","","","","","","",""
"","html-keyboard-response","388","316760","0.0-613.0","3psambgt","","","","","","","","","","","","","434","wwt","Diagnostic trial","","f","","8","3","7","false","false","false","both pre & post","LEFT","LEFT","f","1","true","","","",""
"","html-keyboard-response","389","317511","0.0-616.0","3psambgt","973","1128","","","","","","","","","","","null","+","Fixation - short","","null","","","","","","","","","","","","","","","","",""
"","html-keyboard-response","390","317968","0.0-617.0","3psambgt","","","","","","","","","","","","","457","wwt","Diagnostic trial","","j","","8","4","7","false","false","true","both pre & post","LEFT","RIGHT","j","1","false","","","",""
"","html-keyboard-response","391","318723","0.0-620.0","3psambgt","973","1128","","","","","","","","","","","null","+","Fixation - short","","null","","","","","","","","","","","","","","","","",""
"","html-keyboard-response","392","319096","0.0-621.0","3psambgt","","","","","","","","","","","","","373","wwt","Diagnostic trial","","j","","8","5","7","false","false","true","both pre & post","LEFT","RIGHT","j","1","false","","","",""
"","html-keyboard-response","393","319855","0.0-624.0","3psambgt","973","1128","","","","","","","","","","","null","+","Fixation - short","","null","","","","","","","","","","","","","","","","",""
"","html-keyboard-response","394","320320","0.0-625.0","3psambgt","","","","","","","","","","","","","465","ebe","Diagnostic trial","","f","","8","6","7","false","false","false","both pre & post","RIGHT","LEFT","f","1","false","","","",""
"","html-keyboard-response","395","321077","0.0-628.0","3psambgt","973","1128","","","","","","","","","","","null","+","Fixation - short","","null","","","","","","","","","","","","","","","","",""
"","canvas-keyboard-response","396","322336","0.0-629.0","3psambgt","","","","","","","","","","","","","null","Cue","Cue","","null","","8","6","","","false","","","","","","","","","","",""
"","html-keyboard-response","397","323096","0.0-630.0","3psambgt","973","1128","","","","","","","","","","","null","+","Fixation - short","","null","","","","","","","","","","","","","","","","",""
"","html-keyboard-response","398","323552","0.0-631.0","3psambgt","","","","","","","","","","","","","455","wwt","Diagnostic trial","","j","","8","7","7","true","false","true","both pre & post","LEFT","RIGHT","j","1","false","","","",""
"","html-keyboard-response","399","324305","0.0-634.0","3psambgt","973","1128","","","","","","","","","","","null","+","Fixation - short","","null","","","","","","","","","","","","","","","","",""
"","html-keyboard-response","400","324785","0.0-635.0","3psambgt","","","","","","","","","","","","","480","wwt","Diagnostic trial","","j","","8","8","7","true","false","true","both pre & post","LEFT","RIGHT","j","1","false","","","",""
"","html-keyboard-response","401","325544","0.0-638.0","3psambgt","973","1128","","","","","","","","","","","null","+","Fixation - short","","null","","","","","","","","","","","","","","","","",""
"","html-keyboard-response","402","326048","0.0-639.0","3psambgt","","","","","","","","","","","","","503","ebe","Diagnostic trial","","f","","8","9","7","true","false","false","both pre & post","RIGHT","LEFT","f","1","false","","","",""
"","html-keyboard-response","403","326803","0.0-642.0","3psambgt","973","1128","","","","","","","","","","","null","+","Fixation - short","","null","","","","","","","","","","","","","","","","",""
"","html-keyboard-response","404","327384","0.0-643.0","3psambgt","","","","","","","","","","","","","581","ebe","Diagnostic trial","","j","","8","10","7","true","false","true","both pre & post","RIGHT","RIGHT","j","1","true","","","",""
"","html-keyboard-response","405","328137","0.0-646.0","3psambgt","973","1128","","","","","","","","","","","null","+","Fixation - short","","null","","","","","","","","","","","","","","","","",""
"","html-keyboard-response","406","328592","0.0-647.0","3psambgt","","","","","","","","","","","","","455","ebe","Inducer trial","","j","","8","","","","true","","","","","j","1","","false","RIGHT","",""
"","html-keyboard-response","407","329350","0.0-650.0","3psambgt","973","1128","","","","","","","","","","","null","+","Fixation - short","","null","","","","","","","","","","","","","","","","",""
"","html-keyboard-response","408","330016","0.0-651.0","3psambgt","","","","","","","","","","","","","666","If jlm press RIGHT | If yrp press LEFT","Inducer instructions",""," ","","9","","","","","","","","","","","","","","",""
"","html-keyboard-response","409","330781","0.0-652.0","3psambgt","973","1128","","","","","","","","","","","null","+","Fixation - short","","null","","","","","","","","","","","","","","","","",""
"","html-keyboard-response","410","331392","0.0-653.0","3psambgt","","","","","","","","","","","","","611","jlm","Diagnostic trial","","f","","9","0","9","false","false","false","both pre & post","RIGHT","LEFT","f","1","false","","","",""
"","html-keyboard-response","411","332151","0.0-656.0","3psambgt","973","1128","","","","","","","","","","","null","+","Fixation - short","","null","","","","","","","","","","","","","","","","",""
"","html-keyboard-response","412","332576","0.0-657.0","3psambgt","","","","","","","","","","","","","424","jlm","Diagnostic trial","","f","","9","1","9","false","false","true","both pre & post","RIGHT","RIGHT","j","0","true","","","",""
"","call-function","413","332576","0.0-659.0-0.0","3psambgt","","","","","","","","","","","","","","","","","","","","","","","","","","","","","","","","","",""
"","html-keyboard-response","414","332886","0.0-659.0-1.0","3psambgt","973","1128","","","","","","","","","","","null","Wrong","Feedback","","null","","","","","","","","","","","","","","","","",""
"","call-function","415","332886","0.0-659.0-2.0","3psambgt","","","","","","","","","","","","","","","","","","","","","","","","","","","","","","","","","",""
"","html-keyboard-response","416","333651","0.0-660.0","3psambgt","973","1128","","","","","","","","","","","null","+","Fixation - short","","null","","","","","","","","","","","","","","","","",""
"","html-keyboard-response","417","334168","0.0-661.0","3psambgt","","","","","","","","","","","","","516","yrp","Diagnostic trial","","f","","9","2","9","false","false","false","both pre & post","LEFT","LEFT","f","1","true","","","",""
"","html-keyboard-response","418","334922","0.0-664.0","3psambgt","973","1128","","","","","","","","","","","null","+","Fixation - short","","null","","","","","","","","","","","","","","","","",""
"","html-keyboard-response","419","335370","0.0-665.0","3psambgt","","","","","","","","","","","","","447","yrp","Diagnostic trial","","j","","9","3","9","false","false","false","both pre & post","LEFT","LEFT","f","0","true","","","",""
"","call-function","420","335370","0.0-667.0-0.0","3psambgt","","","","","","","","","","","","","","","","","","","","","","","","","","","","","","","","","",""
"","html-keyboard-response","421","335680","0.0-667.0-1.0","3psambgt","973","1128","","","","","","","","","","","null","Wrong","Feedback","","null","","","","","","","","","","","","","","","","",""
"","call-function","422","335680","0.0-667.0-2.0","3psambgt","","","","","","","","","","","","","","","","","","","","","","","","","","","","","","","","","",""
"","html-keyboard-response","423","336440","0.0-668.0","3psambgt","973","1128","","","","","","","","","","","null","+","Fixation - short","","null","","","","","","","","","","","","","","","","",""
"","html-keyboard-response","424","336856","0.0-669.0","3psambgt","","","","","","","","","","","","","415","jlm","Diagnostic trial","","j","","9","4","9","false","false","true","both pre & post","RIGHT","RIGHT","j","1","true","","","",""
"","html-keyboard-response","425","337613","0.0-672.0","3psambgt","973","1128","","","","","","","","","","","null","+","Fixation - short","","null","","","","","","","","","","","","","","","","",""
"","html-keyboard-response","426","338040","0.0-673.0","3psambgt","","","","","","","","","","","","","426","jlm","Diagnostic trial","","f","","9","5","9","false","false","false","both pre & post","RIGHT","LEFT","f","1","false","","","",""
"","html-keyboard-response","427","338805","0.0-676.0","3psambgt","973","1128","","","","","","","","","","","null","+","Fixation - short","","null","","","","","","","","","","","","","","","","",""
"","html-keyboard-response","428","339312","0.0-677.0","3psambgt","","","","","","","","","","","","","506","jlm","Diagnostic trial","","f","","9","6","9","false","false","false","both pre & post","RIGHT","LEFT","f","1","false","","","",""
"","html-keyboard-response","429","340064","0.0-680.0","3psambgt","973","1128","","","","","","","","","","","null","+","Fixation - short","","null","","","","","","","","","","","","","","","","",""
"","html-keyboard-response","430","340560","0.0-681.0","3psambgt","","","","","","","","","","","","","495","yrp","Diagnostic trial","","j","","9","7","9","false","false","false","both pre & post","LEFT","LEFT","f","0","true","","","",""
"","call-function","431","340560","0.0-683.0-0.0","3psambgt","","","","","","","","","","","","","","","","","","","","","","","","","","","","","","","","","",""
"","html-keyboard-response","432","340862","0.0-683.0-1.0","3psambgt","973","1128","","","","","","","","","","","null","Wrong","Feedback","","null","","","","","","","","","","","","","","","","",""
"","call-function","433","340862","0.0-683.0-2.0","3psambgt","","","","","","","","","","","","","","","","","","","","","","","","","","","","","","","","","",""
"","html-keyboard-response","434","341628","0.0-684.0","3psambgt","973","1128","","","","","","","","","","","null","+","Fixation - short","","null","","","","","","","","","","","","","","","","",""
"","html-keyboard-response","435","342096","0.0-685.0","3psambgt","","","","","","","","","","","","","467","yrp","Diagnostic trial","","j","","9","8","9","false","false","true","both pre & post","LEFT","RIGHT","j","1","false","","","",""
"","html-keyboard-response","436","342851","0.0-688.0","3psambgt","973","1128","","","","","","","","","","","null","+","Fixation - short","","null","","","","","","","","","","","","","","","","",""
"","canvas-keyboard-response","437","344108","0.0-689.0","3psambgt","","","","","","","","","","","","","null","Cue","Cue","","null","","9","8","","","false","","","","","","","","","","",""
"","html-keyboard-response","438","344874","0.0-690.0","3psambgt","973","1128","","","","","","","","","","","null","+","Fixation - short","","null","","","","","","","","","","","","","","","","",""
"","html-keyboard-response","439","345497","0.0-691.0","3psambgt","","","","","","","","","","","","","623","yrp","Diagnostic trial","","f","","9","9","9","true","false","false","both pre & post","LEFT","LEFT","f","1","true","","","",""
"","html-keyboard-response","440","346262","0.0-694.0","3psambgt","973","1128","","","","","","","","","","","null","+","Fixation - short","","null","","","","","","","","","","","","","","","","",""
"","html-keyboard-response","441","346679","0.0-695.0","3psambgt","","","","","","","","","","","","","417","yrp","Diagnostic trial","","f","","9","10","9","true","false","false","both pre & post","LEFT","LEFT","f","1","true","","","",""
"","html-keyboard-response","442","347439","0.0-698.0","3psambgt","973","1128","","","","","","","","","","","null","+","Fixation - short","","null","","","","","","","","","","","","","","","","",""
"","html-keyboard-response","443","347943","0.0-699.0","3psambgt","","","","","","","","","","","","","504","jlm","Diagnostic trial","","j","","9","11","9","true","false","true","both pre & post","RIGHT","RIGHT","j","1","true","","","",""
"","html-keyboard-response","444","348699","0.0-702.0","3psambgt","973","1128","","","","","","","","","","","null","+","Fixation - short","","null","","","","","","","","","","","","","","","","",""
"","html-keyboard-response","445","349559","0.0-703.0","3psambgt","","","","","","","","","","","","","860","jlm","Diagnostic trial","","f","","9","12","9","true","false","false","both pre & post","RIGHT","LEFT","f","1","false","","","",""
"","html-keyboard-response","446","350312","0.0-706.0","3psambgt","973","1128","","","","","","","","","","","null","+","Fixation - short","","null","","","","","","","","","","","","","","","","",""
"","html-keyboard-response","447","350703","0.0-707.0","3psambgt","","","","","","","","","","","","","391","jlm","Inducer trial","","j","","9","","","","true","","","","","j","1","","false","RIGHT","",""
"","html-keyboard-response","448","351459","0.0-710.0","3psambgt","973","1128","","","","","","","","","","","null","+","Fixation - short","","null","","","","","","","","","","","","","","","","",""
"","html-keyboard-response","449","359679","0.0-711.0","3psambgt","","","","","","","","","","","","","8220","If fuc press RIGHT | If fja press LEFT","Inducer instructions",""," ","","10","","","","","","","","","","","","","","",""
"","html-keyboard-response","450","360440","0.0-712.0","3psambgt","973","1128","","","","","","","","","","","null","+","Fixation - short","","null","","","","","","","","","","","","","","","","",""
"","html-keyboard-response","451","361199","0.0-713.0","3psambgt","","","","","","","","","","","","","759","fja","Diagnostic trial","","f","","10","0","4","false","false","false","both pre & post","LEFT","LEFT","f","1","true","","","",""
"","html-keyboard-response","452","361951","0.0-716.0","3psambgt","973","1128","","","","","","","","","","","null","+","Fixation - short","","null","","","","","","","","","","","","","","","","",""
"","html-keyboard-response","453","362312","0.0-717.0","3psambgt","","","","","","","","","","","","","360","fja","Diagnostic trial","","j","","10","1","4","false","false","true","both pre & post","LEFT","RIGHT","j","1","false","","","",""
"","html-keyboard-response","454","363062","0.0-720.0","3psambgt","973","1128","","","","","","","","","","","null","+","Fixation - short","","null","","","","","","","","","","","","","","","","",""
"","html-keyboard-response","455","363672","0.0-721.0","3psambgt","","","","","","","","","","","","","609","fuc","Diagnostic trial","","j","","10","2","4","false","false","true","both pre & post","RIGHT","RIGHT","j","1","true","","","",""
"","html-keyboard-response","456","364438","0.0-724.0","3psambgt","973","1128","","","","","","","","","","","null","+","Fixation - short","","null","","","","","","","","","","","","","","","","",""
"","html-keyboard-response","457","364824","0.0-725.0","3psambgt","","","","","","","","","","","","","385","fuc","Diagnostic trial","","j","","10","3","4","false","false","false","both pre & post","RIGHT","LEFT","f","0","false","","","",""
"","call-function","458","364824","0.0-727.0-0.0","3psambgt","","","","","","","","","","","","","","","","","","","","","","","","","","","","","","","","","",""
"","html-keyboard-response","459","365124","0.0-727.0-1.0","3psambgt","973","1128","","","","","","","","","","","null","Wrong","Feedback","","null","","","","","","","","","","","","","","","","",""
"","call-function","460","365125","0.0-727.0-2.0","3psambgt","","","","","","","","","","","","","","","","","","","","","","","","","","","","","","","","","",""
"","html-keyboard-response","461","365889","0.0-728.0","3psambgt","973","1128","","","","","","","","","","","null","+","Fixation - short","","null","","","","","","","","","","","","","","","","",""
"","canvas-keyboard-response","462","367151","0.0-729.0","3psambgt","","","","","","","","","","","","","null","Cue","Cue","","null","","10","3","","","false","","","","","","","","","","",""
"","html-keyboard-response","463","367916","0.0-730.0","3psambgt","973","1128","","","","","","","","","","","null","+","Fixation - short","","null","","","","","","","","","","","","","","","","",""
"","html-keyboard-response","464","368472","0.0-731.0","3psambgt","","","","","","","","","","","","","556","fja","Diagnostic trial","","f","","10","4","4","true","false","false","both pre & post","LEFT","LEFT","f","1","true","","","",""
"","html-keyboard-response","465","369233","0.0-734.0","3psambgt","973","1128","","","","","","","","","","","null","+","Fixation - short","","null","","","","","","","","","","","","","","","","",""
