"value","trial_type","trial_index","time_elapsed","internal_node_id","id","width","height","webaudio","browser","browser_version","mobile","os","fullscreen","vsync_rate","webcam","microphone","view_history","rt","stimulus","trial_info","success","response","exp_parameters","inducer_run","diagnostic_run","cue_num","post_cue","inducer_trial","italic","forced_equal_run","correct_inducer_response_side","correct_diag_response_side","correct_response_key","correct_response","congruent","force_equal","correct_indu_response_side","accuracy","interactive"
"","call-function","0","2","0.0-0.0","b22whtly","","","","","","","","","","","","","","","","","","","","","","","","","","","","","","","","","",""
"","browser-check","1","1001","0.0-1.0","b22whtly","1280","585","true","chrome","123.0.0","false","Windows 10","true","60.62","true","true","","","","","","","","","","","","","","","","","","","","","","",""
"","instructions","2","202749","0.0-2.0","b22whtly","","","","","","","","","","","","[{""page_index"":0,""viewing_time"":161765},{""page_index"":1,""viewing_time"":21379},{""page_index"":2,""viewing_time"":18599}]","201747","The experiment and consent","The experiment and consent","","","","","","","","","","","","","","","","","","",""
"","fullscreen","3","298323","0.0-3.0","b22whtly","","","","","","","","","","","","","94569","","Full screen","true","","","","","","","","","","","","","","","","","",""
"","instructions","4","321361","0.0-4.0","b22whtly","","","","","","","","","","","","[{""page_index"":0,""viewing_time"":11388},{""page_index"":1,""viewing_time"":11649}]","23037","Instructions","Basic overview explanation","","","","","","","","","","","","","","","","","","",""
"","html-keyboard-response","5","332872","0.0-5.0","b22whtly","","","","","","","","","","","","","10009","If italic press RIGHT | If upright press LEFT","Diagnostic instructions",""," ","{""debug"":false,""skip_instructions"":false,""skip_practice"":false,""save_local_data"":false,""studu_name"":""exp2"",""default_background_colour"":""#cccccc"",""wrong_response_colour"":""#d22d2d"",""instruction_delay"":20000,""trial_duration"":2000,""short_fixation"":750,""long_fixation"":1500,""wrong_response_delay"":300,""too_slow_delay"":300,""instruction_font_size"":""24px"",""general_font_size"":""42px"",""fixation_size"":""48px"",""allowed_responses"":[""f"",""j""],""cue_min_length"":0,""cue_max_length"":4,""tot_post_cue_len"":72,""cue_colour"":""yellow"",""cue_shape"":""Circle"",""cue_size"":70,""cue_duration"":1250,""avg_number_of_cues"":3,""inducer_colour"":""blue"",""number_of_inducers"":24,""pre_cue_italic_forced_equal"":true,""post_cue_italic_forced_equal"":true,""prac_diagnostic_rounds"":16,""prac_inducer_rounds"":6,""prac_cue_rounds"":16,""prac_post_cue_num"":3}","","","","","","","","","","","","","","","",""
"","html-keyboard-response","6","333624","0.0-6.0","b22whtly","1280","720","","","","","","","","","","","null","+","Fixation - short","","null","","","","","","","","","","","","","","","","",""
"","html-keyboard-response","7","334394","0.0-7.0","b22whtly","","","","","","","","","","","","","769","rif","Diagnostic practice","","j","","Diagnostic practice","0","-84","true","false","true","prac equal","RIGHT","RIGHT","j","1","true","","","",""
"","html-keyboard-response","8","335146","0.0-10.0","b22whtly","1280","720","","","","","","","","","","","null","+","Fixation - short","","null","","","","","","","","","","","","","","","","",""
"","html-keyboard-response","9","335717","0.0-11.0","b22whtly","","","","","","","","","","","","","571","rif","Diagnostic practice","","f","","Diagnostic practice","1","-84","true","false","false","prac equal","RIGHT","LEFT","f","1","false","","","",""
"","html-keyboard-response","10","336481","0.0-14.0","b22whtly","1280","720","","","","","","","","","","","null","+","Fixation - short","","null","","","","","","","","","","","","","","","","",""
"","html-keyboard-response","11","337071","0.0-15.0","b22whtly","","","","","","","","","","","","","588","rif","Diagnostic practice","","f","","Diagnostic practice","2","-84","true","false","false","prac equal","RIGHT","LEFT","f","1","false","","","",""
"","html-keyboard-response","12","337836","0.0-18.0","b22whtly","1280","720","","","","","","","","","","","null","+","Fixation - short","","null","","","","","","","","","","","","","","","","",""
"","html-keyboard-response","13","338291","0.0-19.0","b22whtly","","","","","","","","","","","","","455","rif","Diagnostic practice","","j","","Diagnostic practice","3","-84","true","false","true","prac equal","RIGHT","RIGHT","j","1","true","","","",""
"","html-keyboard-response","14","339052","0.0-22.0","b22whtly","1280","720","","","","","","","","","","","null","+","Fixation - short","","null","","","","","","","","","","","","","","","","",""
"","html-keyboard-response","15","339604","0.0-23.0","b22whtly","","","","","","","","","","","","","552","ttm","Diagnostic practice","","f","","Diagnostic practice","4","-84","true","false","false","prac equal","LEFT","LEFT","f","1","true","","","",""
"","html-keyboard-response","16","340363","0.0-26.0","b22whtly","1280","720","","","","","","","","","","","null","+","Fixation - short","","null","","","","","","","","","","","","","","","","",""
"","html-keyboard-response","17","340862","0.0-27.0","b22whtly","","","","","","","","","","","","","498","rif","Diagnostic practice","","j","","Diagnostic practice","5","-84","true","false","true","prac equal","RIGHT","RIGHT","j","1","true","","","",""
"","html-keyboard-response","18","341628","0.0-30.0","b22whtly","1280","720","","","","","","","","","","","null","+","Fixation - short","","null","","","","","","","","","","","","","","","","",""
"","html-keyboard-response","19","342069","0.0-31.0","b22whtly","","","","","","","","","","","","","440","ttm","Diagnostic practice","","f","","Diagnostic practice","6","-84","true","false","false","prac equal","LEFT","LEFT","f","1","true","","","",""
"","html-keyboard-response","20","342832","0.0-34.0","b22whtly","1280","720","","","","","","","","","","","null","+","Fixation - short","","null","","","","","","","","","","","","","","","","",""
"","html-keyboard-response","21","343153","0.0-35.0","b22whtly","","","","","","","","","","","","","321","rif","Diagnostic practice","","j","","Diagnostic practice","7","-84","true","false","true","prac equal","RIGHT","RIGHT","j","1","true","","","",""
"","html-keyboard-response","22","343911","0.0-38.0","b22whtly","1280","720","","","","","","","","","","","null","+","Fixation - short","","null","","","","","","","","","","","","","","","","",""
"","html-keyboard-response","23","344539","0.0-39.0","b22whtly","","","","","","","","","","","","","627","rif","Diagnostic practice","","f","","Diagnostic practice","8","-84","true","false","false","prac equal","RIGHT","LEFT","f","1","false","","","",""
"","html-keyboard-response","24","345298","0.0-42.0","b22whtly","1280","720","","","","","","","","","","","null","+","Fixation - short","","null","","","","","","","","","","","","","","","","",""
"","html-keyboard-response","25","345824","0.0-43.0","b22whtly","","","","","","","","","","","","","525","rif","Diagnostic practice","","f","","Diagnostic practice","9","-84","true","false","false","prac equal","RIGHT","LEFT","f","1","false","","","",""
"","html-keyboard-response","26","346580","0.0-46.0","b22whtly","1280","720","","","","","","","","","","","null","+","Fixation - short","","null","","","","","","","","","","","","","","","","",""
"","html-keyboard-response","27","346955","0.0-47.0","b22whtly","","","","","","","","","","","","","374","rif","Diagnostic practice","","j","","Diagnostic practice","10","-84","true","false","true","prac equal","RIGHT","RIGHT","j","1","true","","","",""
"","html-keyboard-response","28","347712","0.0-50.0","b22whtly","1280","720","","","","","","","","","","","null","+","Fixation - short","","null","","","","","","","","","","","","","","","","",""
"","html-keyboard-response","29","348052","0.0-51.0","b22whtly","","","","","","","","","","","","","339","ttm","Diagnostic practice","","f","","Diagnostic practice","11","-84","true","false","false","prac equal","LEFT","LEFT","f","1","true","","","",""
"","html-keyboard-response","30","348816","0.0-54.0","b22whtly","1280","720","","","","","","","","","","","null","+","Fixation - short","","null","","","","","","","","","","","","","","","","",""
"","html-keyboard-response","31","349164","0.0-55.0","b22whtly","","","","","","","","","","","","","347","ttm","Diagnostic practice","","f","","Diagnostic practice","12","-84","true","false","false","prac equal","LEFT","LEFT","f","1","true","","","",""
"","html-keyboard-response","32","349917","0.0-58.0","b22whtly","1280","720","","","","","","","","","","","null","+","Fixation - short","","null","","","","","","","","","","","","","","","","",""
"","html-keyboard-response","33","350282","0.0-59.0","b22whtly","","","","","","","","","","","","","364","rif","Diagnostic practice","","j","","Diagnostic practice","13","-84","true","false","true","prac equal","RIGHT","RIGHT","j","1","true","","","",""
"","html-keyboard-response","34","351047","0.0-62.0","b22whtly","1280","720","","","","","","","","","","","null","+","Fixation - short","","null","","","","","","","","","","","","","","","","",""
"","html-keyboard-response","35","351501","0.0-63.0","b22whtly","","","","","","","","","","","","","453","ttm","Diagnostic practice","","j","","Diagnostic practice","14","-84","true","false","true","prac equal","LEFT","RIGHT","j","1","false","","","",""
"","html-keyboard-response","36","352256","0.0-66.0","b22whtly","1280","720","","","","","","","","","","","null","+","Fixation - short","","null","","","","","","","","","","","","","","","","",""
"","html-keyboard-response","37","352600","0.0-67.0","b22whtly","","","","","","","","","","","","","343","ttm","Diagnostic practice","","j","","Diagnostic practice","15","-84","true","false","true","prac equal","LEFT","RIGHT","j","1","false","","","",""
"","html-keyboard-response","38","353356","0.0-70.0","b22whtly","1280","720","","","","","","","","","","","null","+","Fixation - short","","null","","","","","","","","","","","","","","","","",""
"","instructions","39","376097","0.0-71.0","b22whtly","","","","","","","","","","","","[{""page_index"":0,""viewing_time"":22739}]","22740","Instructions","Final experiment explanation","","","","","","","","","","","","","","","","","","",""
"","html-keyboard-response","40","383018","0.0-72.0","b22whtly","","","","","","","","","","","","","5406","If prg press RIGHT | If kho press LEFT","Inducer practice",""," ","","Practice","","","","","","","","","","","","","","",""
"","html-keyboard-response","41","383771","0.0-73.0","b22whtly","1280","720","","","","","","","","","","","null","+","Fixation - short","","null","","","","","","","","","","","","","","","","",""
"","html-keyboard-response","42","384350","0.0-74.0","b22whtly","","","","","","","","","","","","","579","prg","Inducer practice","","j","","Practice","","","","true","","","","","j","1","","true","RIGHT","",""
"","html-keyboard-response","43","385109","0.0-77.0","b22whtly","1280","720","","","","","","","","","","","null","+","Fixation - short","","null","","","","","","","","","","","","","","","","",""
"","html-keyboard-response","44","388253","0.0-78.0","b22whtly","","","","","","","","","","","","","3143","If dpa press RIGHT | If sdw press LEFT","Inducer practice",""," ","","Practice","","","","","","","","","","","","","","",""
"","html-keyboard-response","45","389019","0.0-79.0","b22whtly","1280","720","","","","","","","","","","","null","+","Fixation - short","","null","","","","","","","","","","","","","","","","",""
"","html-keyboard-response","46","389514","0.0-80.0","b22whtly","","","","","","","","","","","","","494","sdw","Inducer practice","","f","","Practice","","","","true","","","","","f","1","","true","LEFT","",""
"","html-keyboard-response","47","390266","0.0-83.0","b22whtly","1280","720","","","","","","","","","","","null","+","Fixation - short","","null","","","","","","","","","","","","","","","","",""
"","html-keyboard-response","48","392177","0.0-84.0","b22whtly","","","","","","","","","","","","","1910","If tgf press RIGHT | If ori press LEFT","Inducer practice",""," ","","Practice","","","","","","","","","","","","","","",""
"","html-keyboard-response","49","392936","0.0-85.0","b22whtly","1280","720","","","","","","","","","","","null","+","Fixation - short","","null","","","","","","","","","","","","","","","","",""
"","html-keyboard-response","50","393289","0.0-86.0","b22whtly","","","","","","","","","","","","","353","tgf","Inducer practice","","j","","Practice","","","","true","","","","","j","1","","true","RIGHT","",""
"","html-keyboard-response","51","394050","0.0-89.0","b22whtly","1280","720","","","","","","","","","","","null","+","Fixation - short","","null","","","","","","","","","","","","","","","","",""
"","html-keyboard-response","52","395848","0.0-90.0","b22whtly","","","","","","","","","","","","","1798","If byy press RIGHT | If guf press LEFT","Inducer practice",""," ","","Practice","","","","","","","","","","","","","","",""
"","html-keyboard-response","53","396604","0.0-91.0","b22whtly","1280","720","","","","","","","","","","","null","+","Fixation - short","","null","","","","","","","","","","","","","","","","",""
"","html-keyboard-response","54","397145","0.0-92.0","b22whtly","","","","","","","","","","","","","540","guf","Inducer practice","","f","","Practice","","","","true","","","","","f","1","","true","LEFT","",""
"","html-keyboard-response","55","397905","0.0-95.0","b22whtly","1280","720","","","","","","","","","","","null","+","Fixation - short","","null","","","","","","","","","","","","","","","","",""
"","html-keyboard-response","56","398824","0.0-96.0","b22whtly","","","","","","","","","","","","","918","If imm press RIGHT | If rpw press LEFT","Inducer practice",""," ","","Practice","","","","","","","","","","","","","","",""
"","html-keyboard-response","57","399594","0.0-97.0","b22whtly","1280","720","","","","","","","","","","","null","+","Fixation - short","","null","","","","","","","","","","","","","","","","",""
"","html-keyboard-response","58","399972","0.0-98.0","b22whtly","","","","","","","","","","","","","377","imm","Inducer practice","","j","","Practice","","","","true","","","","","j","1","","true","RIGHT","",""
"","html-keyboard-response","59","400730","0.0-101.0","b22whtly","1280","720","","","","","","","","","","","null","+","Fixation - short","","null","","","","","","","","","","","","","","","","",""
"","html-keyboard-response","60","401885","0.0-102.0","b22whtly","","","","","","","","","","","","","1155","If bwe press RIGHT | If ydi press LEFT","Inducer practice",""," ","","Practice","","","","","","","","","","","","","","",""
"","html-keyboard-response","61","402644","0.0-103.0","b22whtly","1280","720","","","","","","","","","","","null","+","Fixation - short","","null","","","","","","","","","","","","","","","","",""
"","html-keyboard-response","62","403039","0.0-104.0","b22whtly","","","","","","","","","","","","","395","ydi","Inducer practice","","f","","Practice","","","","true","","","","","f","1","","true","LEFT","",""
"","html-keyboard-response","63","403810","0.0-107.0","b22whtly","1280","720","","","","","","","","","","","null","+","Fixation - short","","null","","","","","","","","","","","","","","","","",""
"","instructions","64","431001","0.0-108.0","b22whtly","","","","","","","","","","","","[{""page_index"":0,""viewing_time"":27189}]","27190","Instructions","Final experiment explanation","","","","","","","","","","","","","","","","","","",""
"","html-keyboard-response","65","434259","0.0-109.0","b22whtly","","","","","","","","","","","","","1743","If wab press RIGHT | If fja press LEFT","Cue practice",""," ","","Practice","","","","","","","","","","","","","","",""
"","html-keyboard-response","66","435010","0.0-110.0","b22whtly","1280","720","","","","","","","","","","","null","+","Fixation - short","","null","","","","","","","","","","","","","","","","",""
"","html-keyboard-response","67","436072","0.0-111.0","b22whtly","","","","","","","","","","","","","1061","wab","Cue practice","","j","","Practice","0","13","false","false","false","both pre & post","RIGHT","LEFT","f","0","false","","","",""
"","call-function","68","436073","0.0-113.0-0.0","b22whtly","","","","","","","","","","","","","","","","","","","","","","","","","","","","","","","","","",""
"","html-keyboard-response","69","436375","0.0-113.0-1.0","b22whtly","1280","720","","","","","","","","","","","null","Wrong","Feedback","","null","","","","","","","","","","","","","","","","",""
"","call-function","70","436375","0.0-113.0-2.0","b22whtly","","","","","","","","","","","","","","","","","","","","","","","","","","","","","","","","","",""
"","html-keyboard-response","71","437142","0.0-114.0","b22whtly","1280","720","","","","","","","","","","","null","+","Fixation - short","","null","","","","","","","","","","","","","","","","",""
"","html-keyboard-response","72","437983","0.0-115.0","b22whtly","","","","","","","","","","","","","840","wab","Cue practice","","f","","Practice","1","13","false","false","false","both pre & post","RIGHT","LEFT","f","1","false","","","",""
"","html-keyboard-response","73","438737","0.0-118.0","b22whtly","1280","720","","","","","","","","","","","null","+","Fixation - short","","null","","","","","","","","","","","","","","","","",""
"","html-keyboard-response","74","439299","0.0-119.0","b22whtly","","","","","","","","","","","","","561","fja","Cue practice","","f","","Practice","2","13","false","false","false","both pre & post","LEFT","LEFT","f","1","true","","","",""
"","html-keyboard-response","75","440067","0.0-122.0","b22whtly","1280","720","","","","","","","","","","","null","+","Fixation - short","","null","","","","","","","","","","","","","","","","",""
"","html-keyboard-response","76","440472","0.0-123.0","b22whtly","","","","","","","","","","","","","404","wab","Cue practice","","j","","Practice","3","13","false","false","true","both pre & post","RIGHT","RIGHT","j","1","true","","","",""
"","html-keyboard-response","77","441237","0.0-126.0","b22whtly","1280","720","","","","","","","","","","","null","+","Fixation - short","","null","","","","","","","","","","","","","","","","",""
"","html-keyboard-response","78","442220","0.0-127.0","b22whtly","","","","","","","","","","","","","982","wab","Cue practice","","j","","Practice","4","13","false","false","true","both pre & post","RIGHT","RIGHT","j","1","true","","","",""
"","html-keyboard-response","79","442972","0.0-130.0","b22whtly","1280","720","","","","","","","","","","","null","+","Fixation - short","","null","","","","","","","","","","","","","","","","",""
"","html-keyboard-response","80","443373","0.0-131.0","b22whtly","","","","","","","","","","","","","401","wab","Cue practice","","j","","Practice","5","13","false","false","true","both pre & post","RIGHT","RIGHT","j","1","true","","","",""
"","html-keyboard-response","81","444134","0.0-134.0","b22whtly","1280","720","","","","","","","","","","","null","+","Fixation - short","","null","","","","","","","","","","","","","","","","",""
"","html-keyboard-response","82","444491","0.0-135.0","b22whtly","","","","","","","","","","","","","357","fja","Cue practice","","f","","Practice","6","13","false","false","false","both pre & post","LEFT","LEFT","f","1","true","","","",""
"","html-keyboard-response","83","445251","0.0-138.0","b22whtly","1280","720","","","","","","","","","","","null","+","Fixation - short","","null","","","","","","","","","","","","","","","","",""
"","html-keyboard-response","84","446224","0.0-139.0","b22whtly","","","","","","","","","","","","","972","wab","Cue practice","","f","","Practice","7","13","false","false","false","both pre & post","RIGHT","LEFT","f","1","false","","","",""
"","html-keyboard-response","85","446987","0.0-142.0","b22whtly","1280","720","","","","","","","","","","","null","+","Fixation - short","","null","","","","","","","","","","","","","","","","",""
"","html-keyboard-response","86","447416","0.0-143.0","b22whtly","","","","","","","","","","","","","422","fja","Cue practice","","j","","Practice","8","13","false","false","true","both pre & post","LEFT","RIGHT","j","1","false","","","",""
"","html-keyboard-response","87","448172","0.0-146.0","b22whtly","1280","720","","","","","","","","","","","null","+","Fixation - short","","null","","","","","","","","","","","","","","","","",""
"","html-keyboard-response","88","448603","0.0-147.0","b22whtly","","","","","","","","","","","","","431","wab","Cue practice","","j","","Practice","9","13","false","false","true","both pre & post","RIGHT","RIGHT","j","1","true","","","",""
"","html-keyboard-response","89","449360","0.0-150.0","b22whtly","1280","720","","","","","","","","","","","null","+","Fixation - short","","null","","","","","","","","","","","","","","","","",""
"","html-keyboard-response","90","449869","0.0-151.0","b22whtly","","","","","","","","","","","","","509","fja","Cue practice","","f","","Practice","10","13","false","false","false","both pre & post","LEFT","LEFT","f","1","true","","","",""
"","html-keyboard-response","91","450641","0.0-154.0","b22whtly","1280","720","","","","","","","","","","","null","+","Fixation - short","","null","","","","","","","","","","","","","","","","",""
"","html-keyboard-response","92","451196","0.0-155.0","b22whtly","","","","","","","","","","","","","554","fja","Cue practice","","j","","Practice","11","13","false","false","true","both pre & post","LEFT","RIGHT","j","1","false","","","",""
"","html-keyboard-response","93","451955","0.0-158.0","b22whtly","1280","720","","","","","","","","","","","null","+","Fixation - short","","null","","","","","","","","","","","","","","","","",""
"","html-keyboard-response","94","452443","0.0-159.0","b22whtly","","","","","","","","","","","","","486","wab","Cue practice","","j","","Practice","12","13","false","false","true","both pre & post","RIGHT","RIGHT","j","1","true","","","",""
"","html-keyboard-response","95","453195","0.0-162.0","b22whtly","1280","720","","","","","","","","","","","null","+","Fixation - short","","null","","","","","","","","","","","","","","","","",""
"","canvas-keyboard-response","96","454449","0.0-163.0","b22whtly","","","","","","","","","","","","","null","Cue","Cue","","null","","Practice","12","","","false","","","","","","","","","","",""
"","html-keyboard-response","97","455215","0.0-164.0","b22whtly","1280","720","","","","","","","","","","","null","+","Fixation - short","","null","","","","","","","","","","","","","","","","",""
"","html-keyboard-response","98","455785","0.0-165.0","b22whtly","","","","","","","","","","","","","570","fja","Cue practice","","f","","Practice","13","13","true","false","false","both pre & post","LEFT","LEFT","f","1","true","","","",""
"","html-keyboard-response","99","456558","0.0-168.0","b22whtly","1280","720","","","","","","","","","","","null","+","Fixation - short","","null","","","","","","","","","","","","","","","","",""
"","html-keyboard-response","100","457388","0.0-169.0","b22whtly","","","","","","","","","","","","","830","wab","Cue practice","","j","","Practice","14","13","true","false","true","both pre & post","RIGHT","RIGHT","j","1","true","","","",""
"","html-keyboard-response","101","458144","0.0-172.0","b22whtly","1280","720","","","","","","","","","","","null","+","Fixation - short","","null","","","","","","","","","","","","","","","","",""
"","html-keyboard-response","102","458598","0.0-173.0","b22whtly","","","","","","","","","","","","","453","wab","Cue practice","","j","","Practice","15","13","true","false","true","both pre & post","RIGHT","RIGHT","j","1","true","","","",""
"","html-keyboard-response","103","459360","0.0-176.0","b22whtly","1280","720","","","","","","","","","","","null","+","Fixation - short","","null","","","","","","","","","","","","","","","","",""
"","html-keyboard-response","104","459803","0.0-177.0","b22whtly","","","","","","","","","","","","","442","wab","Inducer practice","","f","","Practice","","","","true","","","","","j","0","","false","RIGHT","",""
"","call-function","105","459803","0.0-179.0-0.0","b22whtly","","","","","","","","","","","","","","","","","","","","","","","","","","","","","","","","","",""
"","html-keyboard-response","106","460110","0.0-179.0-1.0","b22whtly","1280","720","","","","","","","","","","","null","Wrong","Feedback","","null","","","","","","","","","","","","","","","","",""
"","call-function","107","460110","0.0-179.0-2.0","b22whtly","","","","","","","","","","","","","","","","","","","","","","","","","","","","","","","","","",""
"","html-keyboard-response","108","460876","0.0-180.0","b22whtly","1280","720","","","","","","","","","","","null","+","Fixation - short","","null","","","","","","","","","","","","","","","","",""
"","instructions","109","470101","0.0-181.0","b22whtly","","","","","","","","","","","","[{""page_index"":0,""viewing_time"":9223}]","9224","End practice","End of practice","","","","","","","","","","","","","","","","","","",""
"","html-keyboard-response","110","473109","0.0-182.0","b22whtly","1280","720","","","","","","","","","","","null","+","Fixation - long","","null","","","","","","","","","","","","","","","","",""
"","html-keyboard-response","111","475670","0.0-183.0","b22whtly","","","","","","","","","","","","","2560","If mts press RIGHT | If dof press LEFT","Inducer instructions",""," ","","0","","","","","","","","","","","","","","",""
"","html-keyboard-response","112","476432","0.0-184.0","b22whtly","1280","720","","","","","","","","","","","null","+","Fixation - short","","null","","","","","","","","","","","","","","","","",""
"","html-keyboard-response","113","477110","0.0-185.0","b22whtly","","","","","","","","","","","","","678","dof","Diagnostic trial","","j","","0","0","4","false","false","true","both pre & post","LEFT","RIGHT","j","1","false","","","",""
"","html-keyboard-response","114","477876","0.0-188.0","b22whtly","1280","720","","","","","","","","","","","null","+","Fixation - short","","null","","","","","","","","","","","","","","","","",""
"","html-keyboard-response","115","478244","0.0-189.0","b22whtly","","","","","","","","","","","","","368","dof","Diagnostic trial","","j","","0","1","4","false","false","true","both pre & post","LEFT","RIGHT","j","1","false","","","",""
"","html-keyboard-response","116","478997","0.0-192.0","b22whtly","1280","720","","","","","","","","","","","null","+","Fixation - short","","null","","","","","","","","","","","","","","","","",""
"","html-keyboard-response","117","479553","0.0-193.0","b22whtly","","","","","","","","","","","","","556","dof","Diagnostic trial","","f","","0","2","4","false","false","false","both pre & post","LEFT","LEFT","f","1","true","","","",""
"","html-keyboard-response","118","480323","0.0-196.0","b22whtly","1280","720","","","","","","","","","","","null","+","Fixation - short","","null","","","","","","","","","","","","","","","","",""
"","html-keyboard-response","119","480718","0.0-197.0","b22whtly","","","","","","","","","","","","","394","mts","Diagnostic trial","","f","","0","3","4","false","false","false","both pre & post","RIGHT","LEFT","f","1","false","","","",""
"","html-keyboard-response","120","481482","0.0-200.0","b22whtly","1280","720","","","","","","","","","","","null","+","Fixation - short","","null","","","","","","","","","","","","","","","","",""
"","canvas-keyboard-response","121","482748","0.0-201.0","b22whtly","","","","","","","","","","","","","null","Cue","Cue","","null","","0","3","","","false","","","","","","","","","","",""
"","html-keyboard-response","122","483509","0.0-202.0","b22whtly","1280","720","","","","","","","","","","","null","+","Fixation - short","","null","","","","","","","","","","","","","","","","",""
"","html-keyboard-response","123","484378","0.0-203.0","b22whtly","","","","","","","","","","","","","868","dof","Diagnostic trial","","f","","0","4","4","true","false","false","both pre & post","LEFT","LEFT","f","1","true","","","",""
"","html-keyboard-response","124","485136","0.0-206.0","b22whtly","1280","720","","","","","","","","","","","null","+","Fixation - short","","null","","","","","","","","","","","","","","","","",""
"","html-keyboard-response","125","485569","0.0-207.0","b22whtly","","","","","","","","","","","","","433","dof","Diagnostic trial","","j","","0","5","4","true","false","true","both pre & post","LEFT","RIGHT","j","1","false","","","",""
"","html-keyboard-response","126","486331","0.0-210.0","b22whtly","1280","720","","","","","","","","","","","null","+","Fixation - short","","null","","","","","","","","","","","","","","","","",""
"","html-keyboard-response","127","486928","0.0-211.0","b22whtly","","","","","","","","","","","","","597","dof","Diagnostic trial","","f","","0","6","4","true","false","false","both pre & post","LEFT","LEFT","f","1","true","","","",""
"","html-keyboard-response","128","487690","0.0-214.0","b22whtly","1280","720","","","","","","","","","","","null","+","Fixation - short","","null","","","","","","","","","","","","","","","","",""
"","html-keyboard-response","129","488090","0.0-215.0","b22whtly","","","","","","","","","","","","","400","dof","Diagnostic trial","","f","","0","7","4","true","false","false","both pre & post","LEFT","LEFT","f","1","true","","","",""
"","html-keyboard-response","130","488856","0.0-218.0","b22whtly","1280","720","","","","","","","","","","","null","+","Fixation - short","","null","","","","","","","","","","","","","","","","",""
"","html-keyboard-response","131","489693","0.0-219.0","b22whtly","","","","","","","","","","","","","836","dof","Inducer trial","","j","","0","","","","true","","","","","f","0","","false","LEFT","",""
"","call-function","132","489693","0.0-221.0-0.0","b22whtly","","","","","","","","","","","","","","","","","","","","","","","","","","","","","","","","","",""
"","html-keyboard-response","133","490004","0.0-221.0-1.0","b22whtly","1280","720","","","","","","","","","","","null","Wrong","Feedback","","null","","","","","","","","","","","","","","","","",""
"","call-function","134","490004","0.0-221.0-2.0","b22whtly","","","","","","","","","","","","","","","","","","","","","","","","","","","","","","","","","",""
"","html-keyboard-response","135","490767","0.0-222.0","b22whtly","1280","720","","","","","","","","","","","null","+","Fixation - short","","null","","","","","","","","","","","","","","","","",""
"","html-keyboard-response","136","492423","0.0-223.0","b22whtly","","","","","","","","","","","","","1655","If asn press RIGHT | If mik press LEFT","Inducer instructions",""," ","","1","","","","","","","","","","","","","","",""
"","html-keyboard-response","137","493178","0.0-224.0","b22whtly","1280","720","","","","","","","","","","","null","+","Fixation - short","","null","","","","","","","","","","","","","","","","",""
"","html-keyboard-response","138","494146","0.0-225.0","b22whtly","","","","","","","","","","","","","967","asn","Diagnostic trial","","j","","1","0","8","false","false","true","both pre & post","RIGHT","RIGHT","j","1","true","","","",""
"","html-keyboard-response","139","494905","0.0-228.0","b22whtly","1280","720","","","","","","","","","","","null","+","Fixation - short","","null","","","","","","","","","","","","","","","","",""
"","html-keyboard-response","140","495558","0.0-229.0","b22whtly","","","","","","","","","","","","","653","asn","Diagnostic trial","","f","","1","1","8","false","false","false","both pre & post","RIGHT","LEFT","f","1","false","","","",""
"","html-keyboard-response","141","496324","0.0-232.0","b22whtly","1280","720","","","","","","","","","","","null","+","Fixation - short","","null","","","","","","","","","","","","","","","","",""
"","html-keyboard-response","142","496791","0.0-233.0","b22whtly","","","","","","","","","","","","","466","asn","Diagnostic trial","","f","","1","2","8","false","false","false","both pre & post","RIGHT","LEFT","f","1","false","","","",""
"","html-keyboard-response","143","497548","0.0-236.0","b22whtly","1280","720","","","","","","","","","","","null","+","Fixation - short","","null","","","","","","","","","","","","","","","","",""
"","html-keyboard-response","144","498171","0.0-237.0","b22whtly","","","","","","","","","","","","","623","asn","Diagnostic trial","","j","","1","3","8","false","false","true","both pre & post","RIGHT","RIGHT","j","1","true","","","",""
"","html-keyboard-response","145","498931","0.0-240.0","b22whtly","1280","720","","","","","","","","","","","null","+","Fixation - short","","null","","","","","","","","","","","","","","","","",""
"","html-keyboard-response","146","499482","0.0-241.0","b22whtly","","","","","","","","","","","","","550","asn","Diagnostic trial","","f","","1","4","8","false","false","false","both pre & post","RIGHT","LEFT","f","1","false","","","",""
"","html-keyboard-response","147","500248","0.0-244.0","b22whtly","1280","720","","","","","","","","","","","null","+","Fixation - short","","null","","","","","","","","","","","","","","","","",""
"","html-keyboard-response","148","500803","0.0-245.0","b22whtly","","","","","","","","","","","","","554","asn","Diagnostic trial","","j","","1","5","8","false","false","true","both pre & post","RIGHT","RIGHT","j","1","true","","","",""
"","html-keyboard-response","149","501566","0.0-248.0","b22whtly","1280","720","","","","","","","","","","","null","+","Fixation - short","","null","","","","","","","","","","","","","","","","",""
"","html-keyboard-response","150","501952","0.0-249.0","b22whtly","","","","","","","","","","","","","386","asn","Diagnostic trial","","j","","1","6","8","false","false","true","both pre & post","RIGHT","RIGHT","j","1","true","","","",""
"","html-keyboard-response","151","502712","0.0-252.0","b22whtly","1280","720","","","","","","","","","","","null","+","Fixation - short","","null","","","","","","","","","","","","","","","","",""
"","html-keyboard-response","152","503157","0.0-253.0","b22whtly","","","","","","","","","","","","","444","asn","Diagnostic trial","","j","","1","7","8","false","false","true","both pre & post","RIGHT","RIGHT","j","1","true","","","",""
"","html-keyboard-response","153","503910","0.0-256.0","b22whtly","1280","720","","","","","","","","","","","null","+","Fixation - short","","null","","","","","","","","","","","","","","","","",""
"","canvas-keyboard-response","154","505167","0.0-257.0","b22whtly","","","","","","","","","","","","","null","Cue","Cue","","null","","1","7","","","false","","","","","","","","","","",""
"","html-keyboard-response","155","505939","0.0-258.0","b22whtly","1280","720","","","","","","","","","","","null","+","Fixation - short","","null","","","","","","","","","","","","","","","","",""
"","html-keyboard-response","156","507209","0.0-259.0","b22whtly","","","","","","","","","","","","","1269","mik","Diagnostic trial","","f","","1","8","8","true","false","false","both pre & post","LEFT","LEFT","f","1","true","","","",""
"","html-keyboard-response","157","507965","0.0-262.0","b22whtly","1280","720","","","","","","","","","","","null","+","Fixation - short","","null","","","","","","","","","","","","","","","","",""
"","html-keyboard-response","158","508464","0.0-263.0","b22whtly","","","","","","","","","","","","","498","mik","Diagnostic trial","","j","","1","9","8","true","false","true","both pre & post","LEFT","RIGHT","j","1","false","","","",""
"","html-keyboard-response","159","509231","0.0-266.0","b22whtly","1280","720","","","","","","","","","","","null","+","Fixation - short","","null","","","","","","","","","","","","","","","","",""
"","html-keyboard-response","160","509692","0.0-267.0","b22whtly","","","","","","","","","","","","","460","mik","Diagnostic trial","","j","","1","10","8","true","false","true","both pre & post","LEFT","RIGHT","j","1","false","","","",""
"","html-keyboard-response","161","510449","0.0-270.0","b22whtly","1280","720","","","","","","","","","","","null","+","Fixation - short","","null","","","","","","","","","","","","","","","","",""
"","html-keyboard-response","162","511326","0.0-271.0","b22whtly","","","","","","","","","","","","","876","asn","Diagnostic trial","","f","","1","11","8","true","false","true","both pre & post","RIGHT","RIGHT","j","0","true","","","",""
"","call-function","163","511326","0.0-273.0-0.0","b22whtly","","","","","","","","","","","","","","","","","","","","","","","","","","","","","","","","","",""
"","html-keyboard-response","164","511641","0.0-273.0-1.0","b22whtly","1280","720","","","","","","","","","","","null","Wrong","Feedback","","null","","","","","","","","","","","","","","","","",""
"","call-function","165","511641","0.0-273.0-2.0","b22whtly","","","","","","","","","","","","","","","","","","","","","","","","","","","","","","","","","",""
"","html-keyboard-response","166","512414","0.0-274.0","b22whtly","1280","720","","","","","","","","","","","null","+","Fixation - short","","null","","","","","","","","","","","","","","","","",""
"","html-keyboard-response","167","513343","0.0-275.0","b22whtly","","","","","","","","","","","","","928","asn","Inducer trial","","j","","1","","","","true","","","","","j","1","","false","RIGHT","",""
"","html-keyboard-response","168","514101","0.0-278.0","b22whtly","1280","720","","","","","","","","","","","null","+","Fixation - short","","null","","","","","","","","","","","","","","","","",""
"","html-keyboard-response","169","515937","0.0-279.0","b22whtly","","","","","","","","","","","","","1835","If ume press RIGHT | If faq press LEFT","Inducer instructions",""," ","","2","","","","","","","","","","","","","","",""
"","html-keyboard-response","170","516703","0.0-280.0","b22whtly","1280","720","","","","","","","","","","","null","+","Fixation - short","","null","","","","","","","","","","","","","","","","",""
"","html-keyboard-response","171","517429","0.0-281.0","b22whtly","","","","","","","","","","","","","726","ume","Diagnostic trial","","f","","2","0","4","false","false","false","both pre & post","RIGHT","LEFT","f","1","false","","","",""
"","html-keyboard-response","172","518187","0.0-284.0","b22whtly","1280","720","","","","","","","","","","","null","+","Fixation - short","","null","","","","","","","","","","","","","","","","",""
"","html-keyboard-response","173","518668","0.0-285.0","b22whtly","","","","","","","","","","","","","481","ume","Diagnostic trial","","j","","2","1","4","false","false","true","both pre & post","RIGHT","RIGHT","j","1","true","","","",""
"","html-keyboard-response","174","519420","0.0-288.0","b22whtly","1280","720","","","","","","","","","","","null","+","Fixation - short","","null","","","","","","","","","","","","","","","","",""
"","html-keyboard-response","175","520411","0.0-289.0","b22whtly","","","","","","","","","","","","","990","ume","Diagnostic trial","","j","","2","2","4","false","false","true","both pre & post","RIGHT","RIGHT","j","1","true","","","",""
"","html-keyboard-response","176","521176","0.0-292.0","b22whtly","1280","720","","","","","","","","","","","null","+","Fixation - short","","null","","","","","","","","","","","","","","","","",""
"","html-keyboard-response","177","521650","0.0-293.0","b22whtly","","","","","","","","","","","","","474","faq","Diagnostic trial","","f","","2","3","4","false","false","false","both pre & post","LEFT","LEFT","f","1","true","","","",""
"","html-keyboard-response","178","522410","0.0-296.0","b22whtly","1280","720","","","","","","","","","","","null","+","Fixation - short","","null","","","","","","","","","","","","","","","","",""
"","canvas-keyboard-response","179","523674","0.0-297.0","b22whtly","","","","","","","","","","","","","null","Cue","Cue","","null","","2","3","","","false","","","","","","","","","","",""
"","html-keyboard-response","180","524440","0.0-298.0","b22whtly","1280","720","","","","","","","","","","","null","+","Fixation - short","","null","","","","","","","","","","","","","","","","",""
"","html-keyboard-response","181","525329","0.0-299.0","b22whtly","","","","","","","","","","","","","889","ume","Diagnostic trial","","j","","2","4","4","true","false","true","both pre & post","RIGHT","RIGHT","j","1","true","","","",""
"","html-keyboard-response","182","526084","0.0-302.0","b22whtly","1280","720","","","","","","","","","","","null","+","Fixation - short","","null","","","","","","","","","","","","","","","","",""
"","html-keyboard-response","183","526710","0.0-303.0","b22whtly","","","","","","","","","","","","","625","faq","Diagnostic trial","","j","","2","5","4","true","false","true","both pre & post","LEFT","RIGHT","j","1","false","","","",""
"","html-keyboard-response","184","527471","0.0-306.0","b22whtly","1280","720","","","","","","","","","","","null","+","Fixation - short","","null","","","","","","","","","","","","","","","","",""
"","html-keyboard-response","185","528035","0.0-307.0","b22whtly","","","","","","","","","","","","","563","faq","Diagnostic trial","","f","","2","6","4","true","false","false","both pre & post","LEFT","LEFT","f","1","true","","","",""
"","html-keyboard-response","186","528795","0.0-310.0","b22whtly","1280","720","","","","","","","","","","","null","+","Fixation - short","","null","","","","","","","","","","","","","","","","",""
"","html-keyboard-response","187","529344","0.0-311.0","b22whtly","","","","","","","","","","","","","549","ume","Diagnostic trial","","j","","2","7","4","true","false","true","both pre & post","RIGHT","RIGHT","j","1","true","","","",""
"","html-keyboard-response","188","530104","0.0-314.0","b22whtly","1280","720","","","","","","","","","","","null","+","Fixation - short","","null","","","","","","","","","","","","","","","","",""
"","html-keyboard-response","189","530984","0.0-315.0","b22whtly","","","","","","","","","","","","","879","faq","Inducer trial","","f","","2","","","","true","","","","","f","1","","false","LEFT","",""
"","html-keyboard-response","190","531738","0.0-318.0","b22whtly","1280","720","","","","","","","","","","","null","+","Fixation - short","","null","","","","","","","","","","","","","","","","",""
"","html-keyboard-response","191","533507","0.0-319.0","b22whtly","","","","","","","","","","","","","1768","If drk press RIGHT | If hrc press LEFT","Inducer instructions",""," ","","3","","","","","","","","","","","","","","",""
"","html-keyboard-response","192","534267","0.0-320.0","b22whtly","1280","720","","","","","","","","","","","null","+","Fixation - short","","null","","","","","","","","","","","","","","","","",""
"","html-keyboard-response","193","535084","0.0-321.0","b22whtly","","","","","","","","","","","","","817","hrc","Diagnostic trial","","f","","3","0","8","false","false","false","both pre & post","LEFT","LEFT","f","1","true","","","",""
"","html-keyboard-response","194","535843","0.0-324.0","b22whtly","1280","720","","","","","","","","","","","null","+","Fixation - short","","null","","","","","","","","","","","","","","","","",""
"","html-keyboard-response","195","536306","0.0-325.0","b22whtly","","","","","","","","","","","","","462","hrc","Diagnostic trial","","f","","3","1","8","false","false","false","both pre & post","LEFT","LEFT","f","1","true","","","",""
"","html-keyboard-response","196","537071","0.0-328.0","b22whtly","1280","720","","","","","","","","","","","null","+","Fixation - short","","null","","","","","","","","","","","","","","","","",""
"","html-keyboard-response","197","537450","0.0-329.0","b22whtly","","","","","","","","","","","","","378","drk","Diagnostic trial","","j","","3","2","8","false","false","true","both pre & post","RIGHT","RIGHT","j","1","true","","","",""
"","html-keyboard-response","198","538208","0.0-332.0","b22whtly","1280","720","","","","","","","","","","","null","+","Fixation - short","","null","","","","","","","","","","","","","","","","",""
"","html-keyboard-response","199","538652","0.0-333.0","b22whtly","","","","","","","","","","","","","443","hrc","Diagnostic trial","","j","","3","3","8","false","false","true","both pre & post","LEFT","RIGHT","j","1","false","","","",""
"","html-keyboard-response","200","539406","0.0-336.0","b22whtly","1280","720","","","","","","","","","","","null","+","Fixation - short","","null","","","","","","","","","","","","","","","","",""
"","html-keyboard-response","201","539770","0.0-337.0","b22whtly","","","","","","","","","","","","","364","drk","Diagnostic trial","","j","","3","4","8","false","false","true","both pre & post","RIGHT","RIGHT","j","1","true","","","",""
"","html-keyboard-response","202","540529","0.0-340.0","b22whtly","1280","720","","","","","","","","","","","null","+","Fixation - short","","null","","","","","","","","","","","","","","","","",""
"","html-keyboard-response","203","541116","0.0-341.0","b22whtly","","","","","","","","","","","","","586","hrc","Diagnostic trial","","f","","3","5","8","false","false","false","both pre & post","LEFT","LEFT","f","1","true","","","",""
"","html-keyboard-response","204","541870","0.0-344.0","b22whtly","1280","720","","","","","","","","","","","null","+","Fixation - short","","null","","","","","","","","","","","","","","","","",""
"","html-keyboard-response","205","542329","0.0-345.0","b22whtly","","","","","","","","","","","","","459","hrc","Diagnostic trial","","j","","3","6","8","false","false","true","both pre & post","LEFT","RIGHT","j","1","false","","","",""
"","html-keyboard-response","206","543081","0.0-348.0","b22whtly","1280","720","","","","","","","","","","","null","+","Fixation - short","","null","","","","","","","","","","","","","","","","",""
"","html-keyboard-response","207","543473","0.0-349.0","b22whtly","","","","","","","","","","","","","391","drk","Diagnostic trial","","j","","3","7","8","false","false","true","both pre & post","RIGHT","RIGHT","j","1","true","","","",""
"","html-keyboard-response","208","544236","0.0-352.0","b22whtly","1280","720","","","","","","","","","","","null","+","Fixation - short","","null","","","","","","","","","","","","","","","","",""
"","canvas-keyboard-response","209","545503","0.0-353.0","b22whtly","","","","","","","","","","","","","null","Cue","Cue","","null","","3","7","","","false","","","","","","","","","","",""
"","html-keyboard-response","210","546263","0.0-354.0","b22whtly","1280","720","","","","","","","","","","","null","+","Fixation - short","","null","","","","","","","","","","","","","","","","",""
"","html-keyboard-response","211","547083","0.0-355.0","b22whtly","","","","","","","","","","","","","820","hrc","Diagnostic trial","","f","","3","8","8","true","false","false","both pre & post","LEFT","LEFT","f","1","true","","","",""
"","html-keyboard-response","212","547847","0.0-358.0","b22whtly","1280","720","","","","","","","","","","","null","+","Fixation - short","","null","","","","","","","","","","","","","","","","",""
"","html-keyboard-response","213","548357","0.0-359.0","b22whtly","","","","","","","","","","","","","510","drk","Diagnostic trial","","j","","3","9","8","true","false","true","both pre & post","RIGHT","RIGHT","j","1","true","","","",""
"","html-keyboard-response","214","549112","0.0-362.0","b22whtly","1280","720","","","","","","","","","","","null","+","Fixation - short","","null","","","","","","","","","","","","","","","","",""
"","html-keyboard-response","215","549698","0.0-363.0","b22whtly","","","","","","","","","","","","","586","drk","Inducer trial","","j","","3","","","","true","","","","","j","1","","false","RIGHT","",""
"","html-keyboard-response","216","550452","0.0-366.0","b22whtly","1280","720","","","","","","","","","","","null","+","Fixation - short","","null","","","","","","","","","","","","","","","","",""
"","html-keyboard-response","217","551741","0.0-367.0","b22whtly","","","","","","","","","","","","","1289","If rrd press RIGHT | If lff press LEFT","Inducer instructions",""," ","","4","","","","","","","","","","","","","","",""
"","html-keyboard-response","218","552495","0.0-368.0","b22whtly","1280","720","","","","","","","","","","","null","+","Fixation - short","","null","","","","","","","","","","","","","","","","",""
"","html-keyboard-response","219","553486","0.0-369.0","b22whtly","","","","","","","","","","","","","990","lff","Diagnostic trial","","f","","4","0","10","false","false","false","both pre & post","LEFT","LEFT","f","1","true","","","",""
"","html-keyboard-response","220","554249","0.0-372.0","b22whtly","1280","720","","","","","","","","","","","null","+","Fixation - short","","null","","","","","","","","","","","","","","","","",""
"","html-keyboard-response","221","554737","0.0-373.0","b22whtly","","","","","","","","","","","","","488","rrd","Diagnostic trial","","f","","4","1","10","false","false","false","both pre & post","RIGHT","LEFT","f","1","false","","","",""
"","html-keyboard-response","222","555498","0.0-376.0","b22whtly","1280","720","","","","","","","","","","","null","+","Fixation - short","","null","","","","","","","","","","","","","","","","",""
"","html-keyboard-response","223","555857","0.0-377.0","b22whtly","","","","","","","","","","","","","359","lff","Diagnostic trial","","j","","4","2","10","false","false","true","both pre & post","LEFT","RIGHT","j","1","false","","","",""
"","html-keyboard-response","224","556611","0.0-380.0","b22whtly","1280","720","","","","","","","","","","","null","+","Fixation - short","","null","","","","","","","","","","","","","","","","",""
"","html-keyboard-response","225","557007","0.0-381.0","b22whtly","","","","","","","","","","","","","396","rrd","Diagnostic trial","","j","","4","3","10","false","false","true","both pre & post","RIGHT","RIGHT","j","1","true","","","",""
"","html-keyboard-response","226","557766","0.0-384.0","b22whtly","1280","720","","","","","","","","","","","null","+","Fixation - short","","null","","","","","","","","","","","","","","","","",""
"","html-keyboard-response","227","558363","0.0-385.0","b22whtly","","","","","","","","","","","","","596","lff","Diagnostic trial","","f","","4","4","10","false","false","false","both pre & post","LEFT","LEFT","f","1","true","","","",""
"","html-keyboard-response","228","559126","0.0-388.0","b22whtly","1280","720","","","","","","","","","","","null","+","Fixation - short","","null","","","","","","","","","","","","","","","","",""
"","html-keyboard-response","229","559589","0.0-389.0","b22whtly","","","","","","","","","","","","","462","lff","Diagnostic trial","","f","","4","5","10","false","false","false","both pre & post","LEFT","LEFT","f","1","true","","","",""
"","html-keyboard-response","230","560343","0.0-392.0","b22whtly","1280","720","","","","","","","","","","","null","+","Fixation - short","","null","","","","","","","","","","","","","","","","",""
"","html-keyboard-response","231","560800","0.0-393.0","b22whtly","","","","","","","","","","","","","456","lff","Diagnostic trial","","j","","4","6","10","false","false","true","both pre & post","LEFT","RIGHT","j","1","false","","","",""
"","html-keyboard-response","232","561565","0.0-396.0","b22whtly","1280","720","","","","","","","","","","","null","+","Fixation - short","","null","","","","","","","","","","","","","","","","",""
"","html-keyboard-response","233","561899","0.0-397.0","b22whtly","","","","","","","","","","","","","333","lff","Diagnostic trial","","j","","4","7","10","false","false","true","both pre & post","LEFT","RIGHT","j","1","false","","","",""
"","html-keyboard-response","234","562660","0.0-400.0","b22whtly","1280","720","","","","","","","","","","","null","+","Fixation - short","","null","","","","","","","","","","","","","","","","",""
"","html-keyboard-response","235","563299","0.0-401.0","b22whtly","","","","","","","","","","","","","639","lff","Diagnostic trial","","f","","4","8","10","false","false","false","both pre & post","LEFT","LEFT","f","1","true","","","",""
"","html-keyboard-response","236","564065","0.0-404.0","b22whtly","1280","720","","","","","","","","","","","null","+","Fixation - short","","null","","","","","","","","","","","","","","","","",""
"","html-keyboard-response","237","564589","0.0-405.0","b22whtly","","","","","","","","","","","","","522","rrd","Diagnostic trial","","j","","4","9","10","false","false","false","both pre & post","RIGHT","LEFT","f","0","false","","","",""
"","call-function","238","564589","0.0-407.0-0.0","b22whtly","","","","","","","","","","","","","","","","","","","","","","","","","","","","","","","","","",""
"","html-keyboard-response","239","564905","0.0-407.0-1.0","b22whtly","1280","720","","","","","","","","","","","null","Wrong","Feedback","","null","","","","","","","","","","","","","","","","",""
"","call-function","240","564906","0.0-407.0-2.0","b22whtly","","","","","","","","","","","","","","","","","","","","","","","","","","","","","","","","","",""
"","html-keyboard-response","241","565670","0.0-408.0","b22whtly","1280","720","","","","","","","","","","","null","+","Fixation - short","","null","","","","","","","","","","","","","","","","",""
"","canvas-keyboard-response","242","566926","0.0-409.0","b22whtly","","","","","","","","","","","","","null","Cue","Cue","","null","","4","9","","","false","","","","","","","","","","",""
"","html-keyboard-response","243","567684","0.0-410.0","b22whtly","1280","720","","","","","","","","","","","null","+","Fixation - short","","null","","","","","","","","","","","","","","","","",""
"","html-keyboard-response","244","568519","0.0-411.0","b22whtly","","","","","","","","","","","","","834","rrd","Diagnostic trial","","j","","4","10","10","true","false","true","both pre & post","RIGHT","RIGHT","j","1","true","","","",""
"","html-keyboard-response","245","569287","0.0-414.0","b22whtly","1280","720","","","","","","","","","","","null","+","Fixation - short","","null","","","","","","","","","","","","","","","","",""
"","html-keyboard-response","246","569664","0.0-415.0","b22whtly","","","","","","","","","","","","","377","rrd","Diagnostic trial","","j","","4","11","10","true","false","true","both pre & post","RIGHT","RIGHT","j","1","true","","","",""
"","html-keyboard-response","247","570421","0.0-418.0","b22whtly","1280","720","","","","","","","","","","","null","+","Fixation - short","","null","","","","","","","","","","","","","","","","",""
"","html-keyboard-response","248","570845","0.0-419.0","b22whtly","","","","","","","","","","","","","423","rrd","Diagnostic trial","","j","","4","12","10","true","false","true","both pre & post","RIGHT","RIGHT","j","1","true","","","",""
"","html-keyboard-response","249","571612","0.0-422.0","b22whtly","1280","720","","","","","","","","","","","null","+","Fixation - short","","null","","","","","","","","","","","","","","","","",""
"","html-keyboard-response","250","572124","0.0-423.0","b22whtly","","","","","","","","","","","","","511","rrd","Inducer trial","","j","","4","","","","true","","","","","j","1","","false","RIGHT","",""
"","html-keyboard-response","251","572877","0.0-426.0","b22whtly","1280","720","","","","","","","","","","","null","+","Fixation - short","","null","","","","","","","","","","","","","","","","",""
"","html-keyboard-response","252","574008","0.0-427.0","b22whtly","","","","","","","","","","","","","1130","If ofa press RIGHT | If rbc press LEFT","Inducer instructions",""," ","","5","","","","","","","","","","","","","","",""
"","html-keyboard-response","253","574761","0.0-428.0","b22whtly","1280","720","","","","","","","","","","","null","+","Fixation - short","","null","","","","","","","","","","","","","","","","",""
"","html-keyboard-response","254","575640","0.0-429.0","b22whtly","","","","","","","","","","","","","879","ofa","Diagnostic trial","","f","","5","0","4","false","false","false","both pre & post","RIGHT","LEFT","f","1","false","","","",""
"","html-keyboard-response","255","576411","0.0-432.0","b22whtly","1280","720","","","","","","","","","","","null","+","Fixation - short","","null","","","","","","","","","","","","","","","","",""
"","html-keyboard-response","256","577042","0.0-433.0","b22whtly","","","","","","","","","","","","","629","rbc","Diagnostic trial","","j","","5","1","4","false","false","true","both pre & post","LEFT","RIGHT","j","1","false","","","",""
"","html-keyboard-response","257","577805","0.0-436.0","b22whtly","1280","720","","","","","","","","","","","null","+","Fixation - short","","null","","","","","","","","","","","","","","","","",""
"","html-keyboard-response","258","578240","0.0-437.0","b22whtly","","","","","","","","","","","","","434","rbc","Diagnostic trial","","j","","5","2","4","false","false","true","both pre & post","LEFT","RIGHT","j","1","false","","","",""
"","html-keyboard-response","259","579003","0.0-440.0","b22whtly","1280","720","","","","","","","","","","","null","+","Fixation - short","","null","","","","","","","","","","","","","","","","",""
"","html-keyboard-response","260","579502","0.0-441.0","b22whtly","","","","","","","","","","","","","498","rbc","Diagnostic trial","","f","","5","3","4","false","false","false","both pre & post","LEFT","LEFT","f","1","true","","","",""
"","html-keyboard-response","261","580260","0.0-444.0","b22whtly","1280","720","","","","","","","","","","","null","+","Fixation - short","","null","","","","","","","","","","","","","","","","",""
"","canvas-keyboard-response","262","581528","0.0-445.0","b22whtly","","","","","","","","","","","","","null","Cue","Cue","","null","","5","3","","","false","","","","","","","","","","",""
"","html-keyboard-response","263","582294","0.0-446.0","b22whtly","1280","720","","","","","","","","","","","null","+","Fixation - short","","null","","","","","","","","","","","","","","","","",""
"","html-keyboard-response","264","583396","0.0-447.0","b22whtly","","","","","","","","","","","","","1101","ofa","Diagnostic trial","","f","","5","4","4","true","false","false","both pre & post","RIGHT","LEFT","f","1","false","","","",""
"","html-keyboard-response","265","584154","0.0-450.0","b22whtly","1280","720","","","","","","","","","","","null","+","Fixation - short","","null","","","","","","","","","","","","","","","","",""
"","html-keyboard-response","266","584626","0.0-451.0","b22whtly","","","","","","","","","","","","","471","rbc","Diagnostic trial","","f","","5","5","4","true","false","false","both pre & post","LEFT","LEFT","f","1","true","","","",""
"","html-keyboard-response","267","585381","0.0-454.0","b22whtly","1280","720","","","","","","","","","","","null","+","Fixation - short","","null","","","","","","","","","","","","","","","","",""
"","html-keyboard-response","268","585984","0.0-455.0","b22whtly","","","","","","","","","","","","","602","ofa","Diagnostic trial","","j","","5","6","4","true","false","true","both pre & post","RIGHT","RIGHT","j","1","true","","","",""
"","html-keyboard-response","269","586753","0.0-458.0","b22whtly","1280","720","","","","","","","","","","","null","+","Fixation - short","","null","","","","","","","","","","","","","","","","",""
"","html-keyboard-response","270","587613","0.0-459.0","b22whtly","","","","","","","","","","","","","860","rbc","Inducer trial","","f","","5","","","","true","","","","","f","1","","false","LEFT","",""
"","html-keyboard-response","271","588375","0.0-462.0","b22whtly","1280","720","","","","","","","","","","","null","+","Fixation - short","","null","","","","","","","","","","","","","","","","",""
"","html-keyboard-response","272","589995","0.0-463.0","b22whtly","","","","","","","","","","","","","1619","If efg press RIGHT | If jup press LEFT","Inducer instructions",""," ","","6","","","","","","","","","","","","","","",""
"","html-keyboard-response","273","590755","0.0-464.0","b22whtly","1280","720","","","","","","","","","","","null","+","Fixation - short","","null","","","","","","","","","","","","","","","","",""
"","html-keyboard-response","274","591662","0.0-465.0","b22whtly","","","","","","","","","","","","","907","efg","Diagnostic trial","","f","","6","0","11","false","false","false","both pre & post","RIGHT","LEFT","f","1","false","","","",""
"","html-keyboard-response","275","592419","0.0-468.0","b22whtly","1280","720","","","","","","","","","","","null","+","Fixation - short","","null","","","","","","","","","","","","","","","","",""
"","html-keyboard-response","276","593102","0.0-469.0","b22whtly","","","","","","","","","","","","","682","jup","Diagnostic trial","","j","","6","1","11","false","false","true","both pre & post","LEFT","RIGHT","j","1","false","","","",""
"","html-keyboard-response","277","593867","0.0-472.0","b22whtly","1280","720","","","","","","","","","","","null","+","Fixation - short","","null","","","","","","","","","","","","","","","","",""
"","html-keyboard-response","278","594520","0.0-473.0","b22whtly","","","","","","","","","","","","","652","jup","Diagnostic trial","","f","","6","2","11","false","false","false","both pre & post","LEFT","LEFT","f","1","true","","","",""
"","html-keyboard-response","279","595286","0.0-476.0","b22whtly","1280","720","","","","","","","","","","","null","+","Fixation - short","","null","","","","","","","","","","","","","","","","",""
"","html-keyboard-response","280","595749","0.0-477.0","b22whtly","","","","","","","","","","","","","463","efg","Diagnostic trial","","f","","6","3","11","false","false","false","both pre & post","RIGHT","LEFT","f","1","false","","","",""
"","html-keyboard-response","281","596516","0.0-480.0","b22whtly","1280","720","","","","","","","","","","","null","+","Fixation - short","","null","","","","","","","","","","","","","","","","",""
"","html-keyboard-response","282","597088","0.0-481.0","b22whtly","","","","","","","","","","","","","571","efg","Diagnostic trial","","j","","6","4","11","false","false","true","both pre & post","RIGHT","RIGHT","j","1","true","","","",""
"","html-keyboard-response","283","597851","0.0-484.0","b22whtly","1280","720","","","","","","","","","","","null","+","Fixation - short","","null","","","","","","","","","","","","","","","","",""
"","html-keyboard-response","284","598312","0.0-485.0","b22whtly","","","","","","","","","","","","","460","efg","Diagnostic trial","","f","","6","5","11","false","false","false","both pre & post","RIGHT","LEFT","f","1","false","","","",""
"","html-keyboard-response","285","599073","0.0-488.0","b22whtly","1280","720","","","","","","","","","","","null","+","Fixation - short","","null","","","","","","","","","","","","","","","","",""
"","html-keyboard-response","286","599671","0.0-489.0","b22whtly","","","","","","","","","","","","","597","efg","Diagnostic trial","","f","","6","6","11","false","false","false","both pre & post","RIGHT","LEFT","f","1","false","","","",""
"","html-keyboard-response","287","600444","0.0-492.0","b22whtly","1280","720","","","","","","","","","","","null","+","Fixation - short","","null","","","","","","","","","","","","","","","","",""
"","html-keyboard-response","288","600919","0.0-493.0","b22whtly","","","","","","","","","","","","","475","efg","Diagnostic trial","","j","","6","7","11","false","false","true","both pre & post","RIGHT","RIGHT","j","1","true","","","",""
"","html-keyboard-response","289","601685","0.0-496.0","b22whtly","1280","720","","","","","","","","","","","null","+","Fixation - short","","null","","","","","","","","","","","","","","","","",""
"","html-keyboard-response","290","602067","0.0-497.0","b22whtly","","","","","","","","","","","","","381","efg","Diagnostic trial","","j","","6","8","11","false","false","true","both pre & post","RIGHT","RIGHT","j","1","true","","","",""
"","html-keyboard-response","291","602831","0.0-500.0","b22whtly","1280","720","","","","","","","","","","","null","+","Fixation - short","","null","","","","","","","","","","","","","","","","",""
"","html-keyboard-response","292","603280","0.0-501.0","b22whtly","","","","","","","","","","","","","448","efg","Diagnostic trial","","j","","6","9","11","false","false","true","both pre & post","RIGHT","RIGHT","j","1","true","","","",""
"","html-keyboard-response","293","604035","0.0-504.0","b22whtly","1280","720","","","","","","","","","","","null","+","Fixation - short","","null","","","","","","","","","","","","","","","","",""
"","html-keyboard-response","294","604632","0.0-505.0","b22whtly","","","","","","","","","","","","","597","jup","Diagnostic trial","","f","","6","10","11","false","false","false","both pre & post","LEFT","LEFT","f","1","true","","","",""
"","html-keyboard-response","295","605385","0.0-508.0","b22whtly","1280","720","","","","","","","","","","","null","+","Fixation - short","","null","","","","","","","","","","","","","","","","",""
"","canvas-keyboard-response","296","606646","0.0-509.0","b22whtly","","","","","","","","","","","","","null","Cue","Cue","","null","","6","10","","","false","","","","","","","","","","",""
"","html-keyboard-response","297","607411","0.0-510.0","b22whtly","1280","720","","","","","","","","","","","null","+","Fixation - short","","null","","","","","","","","","","","","","","","","",""
"","html-keyboard-response","298","607966","0.0-511.0","b22whtly","","","","","","","","","","","","","555","efg","Diagnostic trial","","f","","6","11","11","true","false","false","both pre & post","RIGHT","LEFT","f","1","false","","","",""
"","html-keyboard-response","299","608735","0.0-514.0","b22whtly","1280","720","","","","","","","","","","","null","+","Fixation - short","","null","","","","","","","","","","","","","","","","",""
"","html-keyboard-response","300","609648","0.0-515.0","b22whtly","","","","","","","","","","","","","912","jup","Inducer trial","","f","","6","","","","true","","","","","f","1","","false","LEFT","",""
"","html-keyboard-response","301","610414","0.0-518.0","b22whtly","1280","720","","","","","","","","","","","null","+","Fixation - short","","null","","","","","","","","","","","","","","","","",""
"","html-keyboard-response","302","611957","0.0-519.0","b22whtly","","","","","","","","","","","","","1542","If chy press RIGHT | If xlv press LEFT","Inducer instructions",""," ","","7","","","","","","","","","","","","","","",""
"","html-keyboard-response","303","612718","0.0-520.0","b22whtly","1280","720","","","","","","","","","","","null","+","Fixation - short","","null","","","","","","","","","","","","","","","","",""
"","html-keyboard-response","304","613422","0.0-521.0","b22whtly","","","","","","","","","","","","","703","chy","Diagnostic trial","","f","","7","0","9","false","false","true","both pre & post","RIGHT","RIGHT","j","0","true","","","",""
"","call-function","305","613423","0.0-523.0-0.0","b22whtly","","","","","","","","","","","","","","","","","","","","","","","","","","","","","","","","","",""
"","html-keyboard-response","306","613735","0.0-523.0-1.0","b22whtly","1280","720","","","","","","","","","","","null","Wrong","Feedback","","null","","","","","","","","","","","","","","","","",""
"","call-function","307","613735","0.0-523.0-2.0","b22whtly","","","","","","","","","","","","","","","","","","","","","","","","","","","","","","","","","",""
"","html-keyboard-response","308","614490","0.0-524.0","b22whtly","1280","720","","","","","","","","","","","null","+","Fixation - short","","null","","","","","","","","","","","","","","","","",""
"","html-keyboard-response","309","615191","0.0-525.0","b22whtly","","","","","","","","","","","","","700","chy","Diagnostic trial","","f","","7","1","9","false","false","false","both pre & post","RIGHT","LEFT","f","1","false","","","",""
"","html-keyboard-response","310","615953","0.0-528.0","b22whtly","1280","720","","","","","","","","","","","null","+","Fixation - short","","null","","","","","","","","","","","","","","","","",""
"","html-keyboard-response","311","616626","0.0-529.0","b22whtly","","","","","","","","","","","","","673","xlv","Diagnostic trial","","f","","7","2","9","false","false","false","both pre & post","LEFT","LEFT","f","1","true","","","",""
"","html-keyboard-response","312","617393","0.0-532.0","b22whtly","1280","720","","","","","","","","","","","null","+","Fixation - short","","null","","","","","","","","","","","","","","","","",""
"","html-keyboard-response","313","618348","0.0-533.0","b22whtly","","","","","","","","","","","","","954","chy","Diagnostic trial","","f","","7","3","9","false","false","false","both pre & post","RIGHT","LEFT","f","1","false","","","",""
"","html-keyboard-response","314","619118","0.0-536.0","b22whtly","1280","720","","","","","","","","","","","null","+","Fixation - short","","null","","","","","","","","","","","","","","","","",""
"","html-keyboard-response","315","619535","0.0-537.0","b22whtly","","","","","","","","","","","","","416","xlv","Diagnostic trial","","f","","7","4","9","false","false","false","both pre & post","LEFT","LEFT","f","1","true","","","",""
"","html-keyboard-response","316","620293","0.0-540.0","b22whtly","1280","720","","","","","","","","","","","null","+","Fixation - short","","null","","","","","","","","","","","","","","","","",""
"","html-keyboard-response","317","620675","0.0-541.0","b22whtly","","","","","","","","","","","","","381","chy","Diagnostic trial","","f","","7","5","9","false","false","false","both pre & post","RIGHT","LEFT","f","1","false","","","",""
"","html-keyboard-response","318","621426","0.0-544.0","b22whtly","1280","720","","","","","","","","","","","null","+","Fixation - short","","null","","","","","","","","","","","","","","","","",""
"","html-keyboard-response","319","621802","0.0-545.0","b22whtly","","","","","","","","","","","","","375","chy","Diagnostic trial","","j","","7","6","9","false","false","true","both pre & post","RIGHT","RIGHT","j","1","true","","","",""
"","html-keyboard-response","320","622568","0.0-548.0","b22whtly","1280","720","","","","","","","","","","","null","+","Fixation - short","","null","","","","","","","","","","","","","","","","",""
"","html-keyboard-response","321","623051","0.0-549.0","b22whtly","","","","","","","","","","","","","482","chy","Diagnostic trial","","f","","7","7","9","false","false","false","both pre & post","RIGHT","LEFT","f","1","false","","","",""
"","html-keyboard-response","322","623807","0.0-552.0","b22whtly","1280","720","","","","","","","","","","","null","+","Fixation - short","","null","","","","","","","","","","","","","","","","",""
"","html-keyboard-response","323","624196","0.0-553.0","b22whtly","","","","","","","","","","","","","388","xlv","Diagnostic trial","","f","","7","8","9","false","false","false","both pre & post","LEFT","LEFT","f","1","true","","","",""
"","html-keyboard-response","324","624960","0.0-556.0","b22whtly","1280","720","","","","","","","","","","","null","+","Fixation - short","","null","","","","","","","","","","","","","","","","",""
"","canvas-keyboard-response","325","626220","0.0-557.0","b22whtly","","","","","","","","","","","","","null","Cue","Cue","","null","","7","8","","","false","","","","","","","","","","",""
"","html-keyboard-response","326","626985","0.0-558.0","b22whtly","1280","720","","","","","","","","","","","null","+","Fixation - short","","null","","","","","","","","","","","","","","","","",""
"","html-keyboard-response","327","627758","0.0-559.0","b22whtly","","","","","","","","","","","","","773","xlv","Diagnostic trial","","f","","7","9","9","true","false","false","both pre & post","LEFT","LEFT","f","1","true","","","",""
"","html-keyboard-response","328","628519","0.0-562.0","b22whtly","1280","720","","","","","","","","","","","null","+","Fixation - short","","null","","","","","","","","","","","","","","","","",""
"","html-keyboard-response","329","628921","0.0-563.0","b22whtly","","","","","","","","","","","","","401","xlv","Diagnostic trial","","f","","7","10","9","true","false","true","both pre & post","LEFT","RIGHT","j","0","false","","","",""
"","call-function","330","628921","0.0-565.0-0.0","b22whtly","","","","","","","","","","","","","","","","","","","","","","","","","","","","","","","","","",""
"","html-keyboard-response","331","629232","0.0-565.0-1.0","b22whtly","1280","720","","","","","","","","","","","null","Wrong","Feedback","","null","","","","","","","","","","","","","","","","",""
"","call-function","332","629232","0.0-565.0-2.0","b22whtly","","","","","","","","","","","","","","","","","","","","","","","","","","","","","","","","","",""
"","html-keyboard-response","333","629996","0.0-566.0","b22whtly","1280","720","","","","","","","","","","","null","+","Fixation - short","","null","","","","","","","","","","","","","","","","",""
"","html-keyboard-response","334","630644","0.0-567.0","b22whtly","","","","","","","","","","","","","648","chy","Diagnostic trial","","j","","7","11","9","true","false","true","both pre & post","RIGHT","RIGHT","j","1","true","","","",""
"","html-keyboard-response","335","631418","0.0-570.0","b22whtly","1280","720","","","","","","","","","","","null","+","Fixation - short","","null","","","","","","","","","","","","","","","","",""
"","html-keyboard-response","336","632026","0.0-571.0","b22whtly","","","","","","","","","","","","","607","chy","Diagnostic trial","","f","","7","12","9","true","false","false","both pre & post","RIGHT","LEFT","f","1","false","","","",""
"","html-keyboard-response","337","632793","0.0-574.0","b22whtly","1280","720","","","","","","","","","","","null","+","Fixation - short","","null","","","","","","","","","","","","","","","","",""
"","html-keyboard-response","338","633238","0.0-575.0","b22whtly","","","","","","","","","","","","","445","chy","Inducer trial","","j","","7","","","","true","","","","","j","1","","false","RIGHT","",""
"","html-keyboard-response","339","634010","0.0-578.0","b22whtly","1280","720","","","","","","","","","","","null","+","Fixation - short","","null","","","","","","","","","","","","","","","","",""
"","html-keyboard-response","340","634857","0.0-579.0","b22whtly","","","","","","","","","","","","","847","If dnc press RIGHT | If lct press LEFT","Inducer instructions",""," ","","8","","","","","","","","","","","","","","",""
"","html-keyboard-response","341","635623","0.0-580.0","b22whtly","1280","720","","","","","","","","","","","null","+","Fixation - short","","null","","","","","","","","","","","","","","","","",""
"","html-keyboard-response","342","636601","0.0-581.0","b22whtly","","","","","","","","","","","","","976","lct","Diagnostic trial","","j","","8","0","6","false","false","false","both pre & post","LEFT","LEFT","f","0","true","","","",""
"","call-function","343","636601","0.0-583.0-0.0","b22whtly","","","","","","","","","","","","","","","","","","","","","","","","","","","","","","","","","",""
"","html-keyboard-response","344","636918","0.0-583.0-1.0","b22whtly","1280","720","","","","","","","","","","","null","Wrong","Feedback","","null","","","","","","","","","","","","","","","","",""
"","call-function","345","636918","0.0-583.0-2.0","b22whtly","","","","","","","","","","","","","","","","","","","","","","","","","","","","","","","","","",""
"","html-keyboard-response","346","637674","0.0-584.0","b22whtly","1280","720","","","","","","","","","","","null","+","Fixation - short","","null","","","","","","","","","","","","","","","","",""
"","html-keyboard-response","347","638249","0.0-585.0","b22whtly","","","","","","","","","","","","","574","lct","Diagnostic trial","","j","","8","1","6","false","false","true","both pre & post","LEFT","RIGHT","j","1","false","","","",""
"","html-keyboard-response","348","639009","0.0-588.0","b22whtly","1280","720","","","","","","","","","","","null","+","Fixation - short","","null","","","","","","","","","","","","","","","","",""
"","html-keyboard-response","349","639507","0.0-589.0","b22whtly","","","","","","","","","","","","","497","dnc","Diagnostic trial","","j","","8","2","6","false","false","true","both pre & post","RIGHT","RIGHT","j","1","true","","","",""
"","html-keyboard-response","350","640276","0.0-592.0","b22whtly","1280","720","","","","","","","","","","","null","+","Fixation - short","","null","","","","","","","","","","","","","","","","",""
"","html-keyboard-response","351","640691","0.0-593.0","b22whtly","","","","","","","","","","","","","415","dnc","Diagnostic trial","","j","","8","3","6","false","false","true","both pre & post","RIGHT","RIGHT","j","1","true","","","",""
"","html-keyboard-response","352","641452","0.0-596.0","b22whtly","1280","720","","","","","","","","","","","null","+","Fixation - short","","null","","","","","","","","","","","","","","","","",""
"","html-keyboard-response","353","641946","0.0-597.0","b22whtly","","","","","","","","","","","","","493","lct","Diagnostic trial","","j","","8","4","6","false","false","true","both pre & post","LEFT","RIGHT","j","1","false","","","",""
"","html-keyboard-response","354","642702","0.0-600.0","b22whtly","1280","720","","","","","","","","","","","null","+","Fixation - short","","null","","","","","","","","","","","","","","","","",""
"","html-keyboard-response","355","643099","0.0-601.0","b22whtly","","","","","","","","","","","","","396","dnc","Diagnostic trial","","f","","8","5","6","false","false","false","both pre & post","RIGHT","LEFT","f","1","false","","","",""
"","html-keyboard-response","356","643853","0.0-604.0","b22whtly","1280","720","","","","","","","","","","","null","+","Fixation - short","","null","","","","","","","","","","","","","","","","",""
"","canvas-keyboard-response","357","645113","0.0-605.0","b22whtly","","","","","","","","","","","","","null","Cue","Cue","","null","","8","5","","","false","","","","","","","","","","",""
"","html-keyboard-response","358","645876","0.0-606.0","b22whtly","1280","720","","","","","","","","","","","null","+","Fixation - short","","null","","","","","","","","","","","","","","","","",""
"","html-keyboard-response","359","646413","0.0-607.0","b22whtly","","","","","","","","","","","","","536","dnc","Diagnostic trial","","j","","8","6","6","true","false","true","both pre & post","RIGHT","RIGHT","j","1","true","","","",""
"","html-keyboard-response","360","647166","0.0-610.0","b22whtly","1280","720","","","","","","","","","","","null","+","Fixation - short","","null","","","","","","","","","","","","","","","","",""
"","html-keyboard-response","361","647764","0.0-611.0","b22whtly","","","","","","","","","","","","","596","dnc","Inducer trial","","j","","8","","","","true","","","","","j","1","","false","RIGHT","",""
"","html-keyboard-response","362","648521","0.0-614.0","b22whtly","1280","720","","","","","","","","","","","null","+","Fixation - short","","null","","","","","","","","","","","","","","","","",""
"","html-keyboard-response","363","649472","0.0-615.0","b22whtly","","","","","","","","","","","","","949","If pte press RIGHT | If cmj press LEFT","Inducer instructions",""," ","","9","","","","","","","","","","","","","","",""
"","html-keyboard-response","364","650227","0.0-616.0","b22whtly","1280","720","","","","","","","","","","","null","+","Fixation - short","","null","","","","","","","","","","","","","","","","",""
"","html-keyboard-response","365","651043","0.0-617.0","b22whtly","","","","","","","","","","","","","815","cmj","Diagnostic trial","","j","","9","0","7","false","false","true","both pre & post","LEFT","RIGHT","j","1","false","","","",""
"","html-keyboard-response","366","651807","0.0-620.0","b22whtly","1280","720","","","","","","","","","","","null","+","Fixation - short","","null","","","","","","","","","","","","","","","","",""
"","html-keyboard-response","367","652250","0.0-621.0","b22whtly","","","","","","","","","","","","","443","cmj","Diagnostic trial","","j","","9","1","7","false","false","true","both pre & post","LEFT","RIGHT","j","1","false","","","",""
"","html-keyboard-response","368","653025","0.0-624.0","b22whtly","1280","720","","","","","","","","","","","null","+","Fixation - short","","null","","","","","","","","","","","","","","","","",""
"","html-keyboard-response","369","653515","0.0-625.0","b22whtly","","","","","","","","","","","","","489","pte","Diagnostic trial","","j","","9","2","7","false","false","true","both pre & post","RIGHT","RIGHT","j","1","true","","","",""
"","html-keyboard-response","370","654274","0.0-628.0","b22whtly","1280","720","","","","","","","","","","","null","+","Fixation - short","","null","","","","","","","","","","","","","","","","",""
"","html-keyboard-response","371","654720","0.0-629.0","b22whtly","","","","","","","","","","","","","445","cmj","Diagnostic trial","","j","","9","3","7","false","false","true","both pre & post","LEFT","RIGHT","j","1","false","","","",""
"","html-keyboard-response","372","655492","0.0-632.0","b22whtly","1280","720","","","","","","","","","","","null","+","Fixation - short","","null","","","","","","","","","","","","","","","","",""
"","html-keyboard-response","373","655970","0.0-633.0","b22whtly","","","","","","","","","","","","","477","pte","Diagnostic trial","","j","","9","4","7","false","false","true","both pre & post","RIGHT","RIGHT","j","1","true","","","",""
"","html-keyboard-response","374","656742","0.0-636.0","b22whtly","1280","720","","","","","","","","","","","null","+","Fixation - short","","null","","","","","","","","","","","","","","","","",""
"","html-keyboard-response","375","657385","0.0-637.0","b22whtly","","","","","","","","","","","","","643","cmj","Diagnostic trial","","f","","9","5","7","false","false","false","both pre & post","LEFT","LEFT","f","1","true","","","",""
"","html-keyboard-response","376","658145","0.0-640.0","b22whtly","1280","720","","","","","","","","","","","null","+","Fixation - short","","null","","","","","","","","","","","","","","","","",""
"","html-keyboard-response","377","658559","0.0-641.0","b22whtly","","","","","","","","","","","","","413","pte","Diagnostic trial","","f","","9","6","7","false","false","false","both pre & post","RIGHT","LEFT","f","1","false","","","",""
"","html-keyboard-response","378","659312","0.0-644.0","b22whtly","1280","720","","","","","","","","","","","null","+","Fixation - short","","null","","","","","","","","","","","","","","","","",""
"","canvas-keyboard-response","379","660575","0.0-645.0","b22whtly","","","","","","","","","","","","","null","Cue","Cue","","null","","9","6","","","false","","","","","","","","","","",""
"","html-keyboard-response","380","661327","0.0-646.0","b22whtly","1280","720","","","","","","","","","","","null","+","Fixation - short","","null","","","","","","","","","","","","","","","","",""
"","html-keyboard-response","381","661892","0.0-647.0","b22whtly","","","","","","","","","","","","","564","pte","Inducer trial","","j","","9","","","","true","","","","","j","1","","false","RIGHT","",""
"","html-keyboard-response","382","662653","0.0-650.0","b22whtly","1280","720","","","","","","","","","","","null","+","Fixation - short","","null","","","","","","","","","","","","","","","","",""
"","html-keyboard-response","383","663265","0.0-651.0","b22whtly","","","","","","","","","","","","","611","If eeu press RIGHT | If otr press LEFT","Inducer instructions",""," ","","10","","","","","","","","","","","","","","",""
"","html-keyboard-response","384","664025","0.0-652.0","b22whtly","1280","720","","","","","","","","","","","null","+","Fixation - short","","null","","","","","","","","","","","","","","","","",""
"","html-keyboard-response","385","664834","0.0-653.0","b22whtly","","","","","","","","","","","","","809","otr","Diagnostic trial","","f","","10","0","10","false","false","false","both pre & post","LEFT","LEFT","f","1","true","","","",""
"","html-keyboard-response","386","665589","0.0-656.0","b22whtly","1280","720","","","","","","","","","","","null","+","Fixation - short","","null","","","","","","","","","","","","","","","","",""
"","html-keyboard-response","387","665978","0.0-657.0","b22whtly","","","","","","","","","","","","","389","otr","Diagnostic trial","","f","","10","1","10","false","false","false","both pre & post","LEFT","LEFT","f","1","true","","","",""
"","html-keyboard-response","388","666734","0.0-660.0","b22whtly","1280","720","","","","","","","","","","","null","+","Fixation - short","","null","","","","","","","","","","","","","","","","",""
"","html-keyboard-response","389","667204","0.0-661.0","b22whtly","","","","","","","","","","","","","469","otr","Diagnostic trial","","j","","10","2","10","false","false","true","both pre & post","LEFT","RIGHT","j","1","false","","","",""
"","html-keyboard-response","390","667961","0.0-664.0","b22whtly","1280","720","","","","","","","","","","","null","+","Fixation - short","","null","","","","","","","","","","","","","","","","",""
"","html-keyboard-response","391","668330","0.0-665.0","b22whtly","","","","","","","","","","","","","368","eeu","Diagnostic trial","","j","","10","3","10","false","false","true","both pre & post","RIGHT","RIGHT","j","1","true","","","",""
"","html-keyboard-response","392","669084","0.0-668.0","b22whtly","1280","720","","","","","","","","","","","null","+","Fixation - short","","null","","","","","","","","","","","","","","","","",""
"","html-keyboard-response","393","669494","0.0-669.0","b22whtly","","","","","","","","","","","","","410","eeu","Diagnostic trial","","j","","10","4","10","false","false","true","both pre & post","RIGHT","RIGHT","j","1","true","","","",""
"","html-keyboard-response","394","670258","0.0-672.0","b22whtly","1280","720","","","","","","","","","","","null","+","Fixation - short","","null","","","","","","","","","","","","","","","","",""
"","html-keyboard-response","395","670711","0.0-673.0","b22whtly","","","","","","","","","","","","","453","otr","Diagnostic trial","","f","","10","5","10","false","false","false","both pre & post","LEFT","LEFT","f","1","true","","","",""
"","html-keyboard-response","396","671478","0.0-676.0","b22whtly","1280","720","","","","","","","","","","","null","+","Fixation - short","","null","","","","","","","","","","","","","","","","",""
"","html-keyboard-response","397","671833","0.0-677.0","b22whtly","","","","","","","","","","","","","354","otr","Diagnostic trial","","f","","10","6","10","false","false","false","both pre & post","LEFT","LEFT","f","1","true","","","",""
"","html-keyboard-response","398","672599","0.0-680.0","b22whtly","1280","720","","","","","","","","","","","null","+","Fixation - short","","null","","","","","","","","","","","","","","","","",""
"","html-keyboard-response","399","672966","0.0-681.0","b22whtly","","","","","","","","","","","","","366","otr","Diagnostic trial","","f","","10","7","10","false","false","false","both pre & post","LEFT","LEFT","f","1","true","","","",""
"","html-keyboard-response","400","673731","0.0-684.0","b22whtly","1280","720","","","","","","","","","","","null","+","Fixation - short","","null","","","","","","","","","","","","","","","","",""
"","html-keyboard-response","401","674197","0.0-685.0","b22whtly","","","","","","","","","","","","","466","eeu","Diagnostic trial","","f","","10","8","10","false","false","false","both pre & post","RIGHT","LEFT","f","1","false","","","",""
"","html-keyboard-response","402","674949","0.0-688.0","b22whtly","1280","720","","","","","","","","","","","null","+","Fixation - short","","null","","","","","","","","","","","","","","","","",""
"","html-keyboard-response","403","675485","0.0-689.0","b22whtly","","","","","","","","","","","","","535","eeu","Diagnostic trial","","j","","10","9","10","false","false","true","both pre & post","RIGHT","RIGHT","j","1","true","","","",""
"","html-keyboard-response","404","676250","0.0-692.0","b22whtly","1280","720","","","","","","","","","","","null","+","Fixation - short","","null","","","","","","","","","","","","","","","","",""
"","canvas-keyboard-response","405","677516","0.0-693.0","b22whtly","","","","","","","","","","","","","null","Cue","Cue","","null","","10","9","","","false","","","","","","","","","","",""
"","html-keyboard-response","406","678283","0.0-694.0","b22whtly","1280","720","","","","","","","","","","","null","+","Fixation - short","","null","","","","","","","","","","","","","","","","",""
"","html-keyboard-response","407","678836","0.0-695.0","b22whtly","","","","","","","","","","","","","553","otr","Diagnostic trial","","f","","10","10","10","true","false","false","both pre & post","LEFT","LEFT","f","1","true","","","",""
"","html-keyboard-response","408","679590","0.0-698.0","b22whtly","1280","720","","","","","","","","","","","null","+","Fixation - short","","null","","","","","","","","","","","","","","","","",""
"","html-keyboard-response","409","680056","0.0-699.0","b22whtly","","","","","","","","","","","","","465","eeu","Diagnostic trial","","f","","10","11","10","true","false","false","both pre & post","RIGHT","LEFT","f","1","false","","","",""
"","html-keyboard-response","410","680819","0.0-702.0","b22whtly","1280","720","","","","","","","","","","","null","+","Fixation - short","","null","","","","","","","","","","","","","","","","",""
"","html-keyboard-response","411","681221","0.0-703.0","b22whtly","","","","","","","","","","","","","402","eeu","Diagnostic trial","","f","","10","12","10","true","false","false","both pre & post","RIGHT","LEFT","f","1","false","","","",""
"","html-keyboard-response","412","681979","0.0-706.0","b22whtly","1280","720","","","","","","","","","","","null","+","Fixation - short","","null","","","","","","","","","","","","","","","","",""
"","html-keyboard-response","413","682648","0.0-707.0","b22whtly","","","","","","","","","","","","","668","eeu","Diagnostic trial","","j","","10","13","10","true","false","true","both pre & post","RIGHT","RIGHT","j","1","true","","","",""
"","html-keyboard-response","414","683412","0.0-710.0","b22whtly","1280","720","","","","","","","","","","","null","+","Fixation - short","","null","","","","","","","","","","","","","","","","",""
"","html-keyboard-response","415","684058","0.0-711.0","b22whtly","","","","","","","","","","","","","645","eeu","Inducer trial","","j","","10","","","","true","","","","","j","1","","false","RIGHT","",""
"","html-keyboard-response","416","684816","0.0-714.0","b22whtly","1280","720","","","","","","","","","","","null","+","Fixation - short","","null","","","","","","","","","","","","","","","","",""
"","html-keyboard-response","417","686291","0.0-715.0","b22whtly","","","","","","","","","","","","","1475","If eht press RIGHT | If bms press LEFT","Inducer instructions",""," ","","11","","","","","","","","","","","","","","",""
"","html-keyboard-response","418","687046","0.0-716.0","b22whtly","1280","720","","","","","","","","","","","null","+","Fixation - short","","null","","","","","","","","","","","","","","","","",""
"","html-keyboard-response","419","687652","0.0-717.0","b22whtly","","","","","","","","","","","","","605","bms","Diagnostic trial","","f","","11","0","11","false","false","false","both pre & post","LEFT","LEFT","f","1","true","","","",""
"","html-keyboard-response","420","688411","0.0-720.0","b22whtly","1280","720","","","","","","","","","","","null","+","Fixation - short","","null","","","","","","","","","","","","","","","","",""
"","html-keyboard-response","421","688913","0.0-721.0","b22whtly","","","","","","","","","","","","","502","eht","Diagnostic trial","","j","","11","1","11","false","false","true","both pre & post","RIGHT","RIGHT","j","1","true","","","",""
"","html-keyboard-response","422","689672","0.0-724.0","b22whtly","1280","720","","","","","","","","","","","null","+","Fixation - short","","null","","","","","","","","","","","","","","","","",""
"","html-keyboard-response","423","690082","0.0-725.0","b22whtly","","","","","","","","","","","","","409","bms","Diagnostic trial","","j","","11","2","11","false","false","true","both pre & post","LEFT","RIGHT","j","1","false","","","",""
"","html-keyboard-response","424","690849","0.0-728.0","b22whtly","1280","720","","","","","","","","","","","null","+","Fixation - short","","null","","","","","","","","","","","","","","","","",""
"","html-keyboard-response","425","691361","0.0-729.0","b22whtly","","","","","","","","","","","","","512","bms","Diagnostic trial","","f","","11","3","11","false","false","false","both pre & post","LEFT","LEFT","f","1","true","","","",""
"","html-keyboard-response","426","692124","0.0-732.0","b22whtly","1280","720","","","","","","","","","","","null","+","Fixation - short","","null","","","","","","","","","","","","","","","","",""
"","html-keyboard-response","427","692487","0.0-733.0","b22whtly","","","","","","","","","","","","","363","bms","Diagnostic trial","","f","","11","4","11","false","false","false","both pre & post","LEFT","LEFT","f","1","true","","","",""
"","html-keyboard-response","428","693253","0.0-736.0","b22whtly","1280","720","","","","","","","","","","","null","+","Fixation - short","","null","","","","","","","","","","","","","","","","",""
"","html-keyboard-response","429","693746","0.0-737.0","b22whtly","","","","","","","","","","","","","492","bms","Diagnostic trial","","j","","11","5","11","false","false","true","both pre & post","LEFT","RIGHT","j","1","false","","","",""
"","html-keyboard-response","430","694501","0.0-740.0","b22whtly","1280","720","","","","","","","","","","","null","+","Fixation - short","","null","","","","","","","","","","","","","","","","",""
"","html-keyboard-response","431","695002","0.0-741.0","b22whtly","","","","","","","","","","","","","500","bms","Diagnostic trial","","f","","11","6","11","false","false","false","both pre & post","LEFT","LEFT","f","1","true","","","",""
"","html-keyboard-response","432","695761","0.0-744.0","b22whtly","1280","720","","","","","","","","","","","null","+","Fixation - short","","null","","","","","","","","","","","","","","","","",""
"","html-keyboard-response","433","696170","0.0-745.0","b22whtly","","","","","","","","","","","","","408","eht","Diagnostic trial","","j","","11","7","11","false","false","true","both pre & post","RIGHT","RIGHT","j","1","true","","","",""
"","html-keyboard-response","434","696924","0.0-748.0","b22whtly","1280","720","","","","","","","","","","","null","+","Fixation - short","","null","","","","","","","","","","","","","","","","",""
"","html-keyboard-response","435","697409","0.0-749.0","b22whtly","","","","","","","","","","","","","485","eht","Diagnostic trial","","j","","11","8","11","false","false","true","both pre & post","RIGHT","RIGHT","j","1","true","","","",""
"","html-keyboard-response","436","698168","0.0-752.0","b22whtly","1280","720","","","","","","","","","","","null","+","Fixation - short","","null","","","","","","","","","","","","","","","","",""
"","html-keyboard-response","437","698618","0.0-753.0","b22whtly","","","","","","","","","","","","","449","bms","Diagnostic trial","","f","","11","9","11","false","false","false","both pre & post","LEFT","LEFT","f","1","true","","","",""
"","html-keyboard-response","438","699378","0.0-756.0","b22whtly","1280","720","","","","","","","","","","","null","+","Fixation - short","","null","","","","","","","","","","","","","","","","",""
"","html-keyboard-response","439","699847","0.0-757.0","b22whtly","","","","","","","","","","","","","468","eht","Diagnostic trial","","j","","11","10","11","false","false","true","both pre & post","RIGHT","RIGHT","j","1","true","","","",""
"","html-keyboard-response","440","700606","0.0-760.0","b22whtly","1280","720","","","","","","","","","","","null","+","Fixation - short","","null","","","","","","","","","","","","","","","","",""
"","canvas-keyboard-response","441","701862","0.0-761.0","b22whtly","","","","","","","","","","","","","null","Cue","Cue","","null","","11","10","","","false","","","","","","","","","","",""
"","html-keyboard-response","442","702625","0.0-762.0","b22whtly","1280","720","","","","","","","","","","","null","+","Fixation - short","","null","","","","","","","","","","","","","","","","",""
"","html-keyboard-response","443","703153","0.0-763.0","b22whtly","","","","","","","","","","","","","526","eht","Diagnostic trial","","f","","11","11","11","true","false","false","both pre & post","RIGHT","LEFT","f","1","false","","","",""
"","html-keyboard-response","444","703917","0.0-766.0","b22whtly","1280","720","","","","","","","","","","","null","+","Fixation - short","","null","","","","","","","","","","","","","","","","",""
"","html-keyboard-response","445","704402","0.0-767.0","b22whtly","","","","","","","","","","","","","484","bms","Diagnostic trial","","j","","11","12","11","true","false","true","both pre & post","LEFT","RIGHT","j","1","false","","","",""
"","html-keyboard-response","446","705160","0.0-770.0","b22whtly","1280","720","","","","","","","","","","","null","+","Fixation - short","","null","","","","","","","","","","","","","","","","",""
"","html-keyboard-response","447","705660","0.0-771.0","b22whtly","","","","","","","","","","","","","499","bms","Diagnostic trial","","j","","11","13","11","true","false","true","both pre & post","LEFT","RIGHT","j","1","false","","","",""
"","html-keyboard-response","448","706416","0.0-774.0","b22whtly","1280","720","","","","","","","","","","","null","+","Fixation - short","","null","","","","","","","","","","","","","","","","",""
"","html-keyboard-response","449","706904","0.0-775.0","b22whtly","","","","","","","","","","","","","487","eht","Diagnostic trial","","j","","11","14","11","true","false","true","both pre & post","RIGHT","RIGHT","j","1","true","","","",""
"","html-keyboard-response","450","707662","0.0-778.0","b22whtly","1280","720","","","","","","","","","","","null","+","Fixation - short","","null","","","","","","","","","","","","","","","","",""
"","html-keyboard-response","451","708191","0.0-779.0","b22whtly","","","","","","","","","","","","","528","eht","Inducer trial","","j","","11","","","","true","","","","","j","1","","false","RIGHT","",""
"","html-keyboard-response","452","708950","0.0-782.0","b22whtly","1280","720","","","","","","","","","","","null","+","Fixation - short","","null","","","","","","","","","","","","","","","","",""
"","html-keyboard-response","453","710666","0.0-783.0","b22whtly","","","","","","","","","","","","","1715","If ibg press RIGHT | If amb press LEFT","Inducer instructions",""," ","","12","","","","","","","","","","","","","","",""
"","html-keyboard-response","454","711418","0.0-784.0","b22whtly","1280","720","","","","","","","","","","","null","+","Fixation - short","","null","","","","","","","","","","","","","","","","",""
"","html-keyboard-response","455","712005","0.0-785.0","b22whtly","","","","","","","","","","","","","586","amb","Diagnostic trial","","j","","12","0","10","false","false","true","both pre & post","LEFT","RIGHT","j","1","false","","","",""
"","html-keyboard-response","456","712767","0.0-788.0","b22whtly","1280","720","","","","","","","","","","","null","+","Fixation - short","","null","","","","","","","","","","","","","","","","",""
"","html-keyboard-response","457","713101","0.0-789.0","b22whtly","","","","","","","","","","","","","333","amb","Diagnostic trial","","j","","12","1","10","false","false","true","both pre & post","LEFT","RIGHT","j","1","false","","","",""
