"value","trial_type","trial_index","time_elapsed","internal_node_id","id","width","height","webaudio","browser","browser_version","mobile","os","fullscreen","vsync_rate","webcam","microphone","view_history","rt","stimulus","trial_info","success","response","exp_parameters","inducer_run","diagnostic_run","cue_num","post_cue","inducer_trial","italic","forced_equal_run","correct_inducer_response_side","correct_diag_response_side","correct_response_key","correct_response","congruent","force_equal","correct_indu_response_side","accuracy","interactive"
"","call-function","0","6","0.0-0.0","3kwsdp2q","","","","","","","","","","","","","","","","","","","","","","","","","","","","","","","","","",""
"","browser-check","1","3137","0.0-1.0","3kwsdp2q","1154","644","true","edge-chromium","122.0.0","false","Windows 10","true","60.42","true","true","","","","","","","","","","","","","","","","","","","","","","",""
"","instructions","2","36828","0.0-2.0","3kwsdp2q","","","","","","","","","","","","[{""page_index"":0,""viewing_time"":16825},{""page_index"":1,""viewing_time"":13703},{""page_index"":2,""viewing_time"":3161}]","33689","The experiment and consent","The experiment and consent","","","","","","","","","","","","","","","","","","",""
"","fullscreen","3","45044","0.0-3.0","3kwsdp2q","","","","","","","","","","","","","7205","","Full screen","true","","","","","","","","","","","","","","","","","",""
"","instructions","4","73371","0.0-4.0","3kwsdp2q","","","","","","","","","","","","[{""page_index"":0,""viewing_time"":19148},{""page_index"":1,""viewing_time"":9177}]","28325","Instructions","Basic overview explanation","","","","","","","","","","","","","","","","","","",""
"","html-keyboard-response","5","94322","0.0-5.0","3kwsdp2q","","","","","","","","","","","","","19442","If italic press RIGHT | If upright press LEFT","Diagnostic instructions",""," ","{""debug"":false,""skip_instructions"":false,""skip_practice"":false,""save_local_data"":false,""studu_name"":""exp2"",""default_background_colour"":""#cccccc"",""wrong_response_colour"":""#d22d2d"",""instruction_delay"":20000,""trial_duration"":2000,""short_fixation"":750,""long_fixation"":1500,""wrong_response_delay"":300,""too_slow_delay"":300,""instruction_font_size"":""24px"",""general_font_size"":""42px"",""fixation_size"":""48px"",""allowed_responses"":[""f"",""j""],""cue_min_length"":0,""cue_max_length"":4,""tot_post_cue_len"":72,""cue_colour"":""blue"",""cue_shape"":""Triangle"",""cue_size"":70,""cue_duration"":1250,""avg_number_of_cues"":3,""inducer_colour"":""yellow"",""number_of_inducers"":24,""pre_cue_italic_forced_equal"":true,""post_cue_italic_forced_equal"":true,""prac_diagnostic_rounds"":16,""prac_inducer_rounds"":6,""prac_cue_rounds"":16,""prac_post_cue_num"":3}","","","","","","","","","","","","","","","",""
"","html-keyboard-response","6","95076","0.0-6.0","3kwsdp2q","1200","800","","","","","","","","","","","null","+","Fixation - short","","null","","","","","","","","","","","","","","","","",""
"","html-keyboard-response","7","95770","0.0-7.0","3kwsdp2q","","","","","","","","","","","","","693","mvv","Diagnostic practice","","f","","Diagnostic practice","0","-84","true","false","false","prac equal","RIGHT","LEFT","f","1","false","","","",""
"","html-keyboard-response","8","96529","0.0-10.0","3kwsdp2q","1200","800","","","","","","","","","","","null","+","Fixation - short","","null","","","","","","","","","","","","","","","","",""
"","html-keyboard-response","9","97154","0.0-11.0","3kwsdp2q","","","","","","","","","","","","","624","mvv","Diagnostic practice","","f","","Diagnostic practice","1","-84","true","false","false","prac equal","RIGHT","LEFT","f","1","false","","","",""
"","html-keyboard-response","10","97920","0.0-14.0","3kwsdp2q","1200","800","","","","","","","","","","","null","+","Fixation - short","","null","","","","","","","","","","","","","","","","",""
"","html-keyboard-response","11","98490","0.0-15.0","3kwsdp2q","","","","","","","","","","","","","569","mvv","Diagnostic practice","","j","","Diagnostic practice","2","-84","true","false","true","prac equal","RIGHT","RIGHT","j","1","true","","","",""
"","html-keyboard-response","12","99245","0.0-18.0","3kwsdp2q","1200","800","","","","","","","","","","","null","+","Fixation - short","","null","","","","","","","","","","","","","","","","",""
"","html-keyboard-response","13","99826","0.0-19.0","3kwsdp2q","","","","","","","","","","","","","580","mvv","Diagnostic practice","","j","","Diagnostic practice","3","-84","true","false","true","prac equal","RIGHT","RIGHT","j","1","true","","","",""
"","html-keyboard-response","14","100583","0.0-22.0","3kwsdp2q","1200","800","","","","","","","","","","","null","+","Fixation - short","","null","","","","","","","","","","","","","","","","",""
"","html-keyboard-response","15","101138","0.0-23.0","3kwsdp2q","","","","","","","","","","","","","554","mvv","Diagnostic practice","","f","","Diagnostic practice","4","-84","true","false","false","prac equal","RIGHT","LEFT","f","1","false","","","",""
"","html-keyboard-response","16","101903","0.0-26.0","3kwsdp2q","1200","800","","","","","","","","","","","null","+","Fixation - short","","null","","","","","","","","","","","","","","","","",""
"","html-keyboard-response","17","102458","0.0-27.0","3kwsdp2q","","","","","","","","","","","","","553","mvv","Diagnostic practice","","f","","Diagnostic practice","5","-84","true","false","true","prac equal","RIGHT","RIGHT","j","0","true","","","",""
"","call-function","18","102459","0.0-29.0-0.0","3kwsdp2q","","","","","","","","","","","","","","","","","","","","","","","","","","","","","","","","","",""
"","html-keyboard-response","19","102769","0.0-29.0-1.0","3kwsdp2q","1200","800","","","","","","","","","","","null","Wrong","Feedback","","null","","","","","","","","","","","","","","","","",""
"","call-function","20","102770","0.0-29.0-2.0","3kwsdp2q","","","","","","","","","","","","","","","","","","","","","","","","","","","","","","","","","",""
"","html-keyboard-response","21","103536","0.0-30.0","3kwsdp2q","1200","800","","","","","","","","","","","null","+","Fixation - short","","null","","","","","","","","","","","","","","","","",""
"","html-keyboard-response","22","104226","0.0-31.0","3kwsdp2q","","","","","","","","","","","","","689","mvv","Diagnostic practice","","f","","Diagnostic practice","6","-84","true","false","false","prac equal","RIGHT","LEFT","f","1","false","","","",""
"","html-keyboard-response","23","104990","0.0-34.0","3kwsdp2q","1200","800","","","","","","","","","","","null","+","Fixation - short","","null","","","","","","","","","","","","","","","","",""
"","html-keyboard-response","24","105622","0.0-35.0","3kwsdp2q","","","","","","","","","","","","","631","mvv","Diagnostic practice","","f","","Diagnostic practice","7","-84","true","false","false","prac equal","RIGHT","LEFT","f","1","false","","","",""
"","html-keyboard-response","25","106386","0.0-38.0","3kwsdp2q","1200","800","","","","","","","","","","","null","+","Fixation - short","","null","","","","","","","","","","","","","","","","",""
"","html-keyboard-response","26","106914","0.0-39.0","3kwsdp2q","","","","","","","","","","","","","527","mvv","Diagnostic practice","","j","","Diagnostic practice","8","-84","true","false","true","prac equal","RIGHT","RIGHT","j","1","true","","","",""
"","html-keyboard-response","27","107679","0.0-42.0","3kwsdp2q","1200","800","","","","","","","","","","","null","+","Fixation - short","","null","","","","","","","","","","","","","","","","",""
"","html-keyboard-response","28","108266","0.0-43.0","3kwsdp2q","","","","","","","","","","","","","586","lct","Diagnostic practice","","j","","Diagnostic practice","9","-84","true","false","true","prac equal","LEFT","RIGHT","j","1","false","","","",""
"","html-keyboard-response","29","109030","0.0-46.0","3kwsdp2q","1200","800","","","","","","","","","","","null","+","Fixation - short","","null","","","","","","","","","","","","","","","","",""
"","html-keyboard-response","30","109578","0.0-47.0","3kwsdp2q","","","","","","","","","","","","","546","lct","Diagnostic practice","","j","","Diagnostic practice","10","-84","true","false","true","prac equal","LEFT","RIGHT","j","1","false","","","",""
"","html-keyboard-response","31","110334","0.0-50.0","3kwsdp2q","1200","800","","","","","","","","","","","null","+","Fixation - short","","null","","","","","","","","","","","","","","","","",""
"","html-keyboard-response","32","110850","0.0-51.0","3kwsdp2q","","","","","","","","","","","","","515","mvv","Diagnostic practice","","f","","Diagnostic practice","11","-84","true","false","false","prac equal","RIGHT","LEFT","f","1","false","","","",""
"","html-keyboard-response","33","111611","0.0-54.0","3kwsdp2q","1200","800","","","","","","","","","","","null","+","Fixation - short","","null","","","","","","","","","","","","","","","","",""
"","html-keyboard-response","34","112202","0.0-55.0","3kwsdp2q","","","","","","","","","","","","","589","lct","Diagnostic practice","","j","","Diagnostic practice","12","-84","true","false","true","prac equal","LEFT","RIGHT","j","1","false","","","",""
"","html-keyboard-response","35","112965","0.0-58.0","3kwsdp2q","1200","800","","","","","","","","","","","null","+","Fixation - short","","null","","","","","","","","","","","","","","","","",""
"","html-keyboard-response","36","113530","0.0-59.0","3kwsdp2q","","","","","","","","","","","","","563","mvv","Diagnostic practice","","f","","Diagnostic practice","13","-84","true","false","false","prac equal","RIGHT","LEFT","f","1","false","","","",""
"","html-keyboard-response","37","114292","0.0-62.0","3kwsdp2q","1200","800","","","","","","","","","","","null","+","Fixation - short","","null","","","","","","","","","","","","","","","","",""
"","html-keyboard-response","38","114890","0.0-63.0","3kwsdp2q","","","","","","","","","","","","","597","lct","Diagnostic practice","","j","","Diagnostic practice","14","-84","true","false","true","prac equal","LEFT","RIGHT","j","1","false","","","",""
"","html-keyboard-response","39","115653","0.0-66.0","3kwsdp2q","1200","800","","","","","","","","","","","null","+","Fixation - short","","null","","","","","","","","","","","","","","","","",""
"","html-keyboard-response","40","116342","0.0-67.0","3kwsdp2q","","","","","","","","","","","","","688","lct","Diagnostic practice","","f","","Diagnostic practice","15","-84","true","false","false","prac equal","LEFT","LEFT","f","1","true","","","",""
"","html-keyboard-response","41","117102","0.0-70.0","3kwsdp2q","1200","800","","","","","","","","","","","null","+","Fixation - short","","null","","","","","","","","","","","","","","","","",""
"","instructions","42","131666","0.0-71.0","3kwsdp2q","","","","","","","","","","","","[{""page_index"":0,""viewing_time"":14563}]","14563","Instructions","Final experiment explanation","","","","","","","","","","","","","","","","","","",""
"","html-keyboard-response","43","147286","0.0-72.0","3kwsdp2q","","","","","","","","","","","","","14114","If pte press RIGHT | If eht press LEFT","Inducer practice",""," ","","Practice","","","","","","","","","","","","","","",""
"","html-keyboard-response","44","148049","0.0-73.0","3kwsdp2q","1200","800","","","","","","","","","","","null","+","Fixation - short","","null","","","","","","","","","","","","","","","","",""
"","html-keyboard-response","45","148570","0.0-74.0","3kwsdp2q","","","","","","","","","","","","","519","pte","Inducer practice","","j","","Practice","","","","true","","","","","j","1","","true","RIGHT","",""
"","html-keyboard-response","46","149332","0.0-77.0","3kwsdp2q","1200","800","","","","","","","","","","","null","+","Fixation - short","","null","","","","","","","","","","","","","","","","",""
"","html-keyboard-response","47","151978","0.0-78.0","3kwsdp2q","","","","","","","","","","","","","2644","If saj press RIGHT | If ccx press LEFT","Inducer practice",""," ","","Practice","","","","","","","","","","","","","","",""
"","html-keyboard-response","48","152741","0.0-79.0","3kwsdp2q","1200","800","","","","","","","","","","","null","+","Fixation - short","","null","","","","","","","","","","","","","","","","",""
"","html-keyboard-response","49","153250","0.0-80.0","3kwsdp2q","","","","","","","","","","","","","508","saj","Inducer practice","","j","","Practice","","","","true","","","","","j","1","","true","RIGHT","",""
"","html-keyboard-response","50","154014","0.0-83.0","3kwsdp2q","1200","800","","","","","","","","","","","null","+","Fixation - short","","null","","","","","","","","","","","","","","","","",""
"","html-keyboard-response","51","156882","0.0-84.0","3kwsdp2q","","","","","","","","","","","","","2867","If cer press RIGHT | If ume press LEFT","Inducer practice",""," ","","Practice","","","","","","","","","","","","","","",""
"","html-keyboard-response","52","157644","0.0-85.0","3kwsdp2q","1200","800","","","","","","","","","","","null","+","Fixation - short","","null","","","","","","","","","","","","","","","","",""
"","html-keyboard-response","53","158133","0.0-86.0","3kwsdp2q","","","","","","","","","","","","","487","cer","Inducer practice","","j","","Practice","","","","true","","","","","j","1","","true","RIGHT","",""
"","html-keyboard-response","54","158889","0.0-89.0","3kwsdp2q","1200","800","","","","","","","","","","","null","+","Fixation - short","","null","","","","","","","","","","","","","","","","",""
"","html-keyboard-response","55","160674","0.0-90.0","3kwsdp2q","","","","","","","","","","","","","1784","If kue press RIGHT | If mts press LEFT","Inducer practice",""," ","","Practice","","","","","","","","","","","","","","",""
"","html-keyboard-response","56","161436","0.0-91.0","3kwsdp2q","1200","800","","","","","","","","","","","null","+","Fixation - short","","null","","","","","","","","","","","","","","","","",""
"","html-keyboard-response","57","161906","0.0-92.0","3kwsdp2q","","","","","","","","","","","","","469","mts","Inducer practice","","f","","Practice","","","","true","","","","","f","1","","true","LEFT","",""
"","html-keyboard-response","58","162669","0.0-95.0","3kwsdp2q","1200","800","","","","","","","","","","","null","+","Fixation - short","","null","","","","","","","","","","","","","","","","",""
"","html-keyboard-response","59","164282","0.0-96.0","3kwsdp2q","","","","","","","","","","","","","1612","If amb press RIGHT | If cmj press LEFT","Inducer practice",""," ","","Practice","","","","","","","","","","","","","","",""
"","html-keyboard-response","60","165046","0.0-97.0","3kwsdp2q","1200","800","","","","","","","","","","","null","+","Fixation - short","","null","","","","","","","","","","","","","","","","",""
"","html-keyboard-response","61","165794","0.0-98.0","3kwsdp2q","","","","","","","","","","","","","747","cmj","Inducer practice","","f","","Practice","","","","true","","","","","f","1","","true","LEFT","",""
"","html-keyboard-response","62","166557","0.0-101.0","3kwsdp2q","1200","800","","","","","","","","","","","null","+","Fixation - short","","null","","","","","","","","","","","","","","","","",""
"","html-keyboard-response","63","168106","0.0-102.0","3kwsdp2q","","","","","","","","","","","","","1548","If byy press RIGHT | If oez press LEFT","Inducer practice",""," ","","Practice","","","","","","","","","","","","","","",""
"","html-keyboard-response","64","168870","0.0-103.0","3kwsdp2q","1200","800","","","","","","","","","","","null","+","Fixation - short","","null","","","","","","","","","","","","","","","","",""
"","html-keyboard-response","65","169374","0.0-104.0","3kwsdp2q","","","","","","","","","","","","","503","oez","Inducer practice","","f","","Practice","","","","true","","","","","f","1","","true","LEFT","",""
"","html-keyboard-response","66","170137","0.0-107.0","3kwsdp2q","1200","800","","","","","","","","","","","null","+","Fixation - short","","null","","","","","","","","","","","","","","","","",""
"","instructions","67","268618","0.0-108.0","3kwsdp2q","","","","","","","","","","","","[{""page_index"":0,""viewing_time"":98479}]","98479","Instructions","Final experiment explanation","","","","","","","","","","","","","","","","","","",""
"","html-keyboard-response","68","272561","0.0-109.0","3kwsdp2q","","","","","","","","","","","","","2432","If iei press RIGHT | If hhd press LEFT","Cue practice",""," ","","Practice","","","","","","","","","","","","","","",""
"","html-keyboard-response","69","273324","0.0-110.0","3kwsdp2q","1200","800","","","","","","","","","","","null","+","Fixation - short","","null","","","","","","","","","","","","","","","","",""
"","html-keyboard-response","70","273857","0.0-111.0","3kwsdp2q","","","","","","","","","","","","","532","hhd","Cue practice","","f","","Practice","0","13","false","false","true","both pre & post","LEFT","RIGHT","j","0","false","","","",""
"","call-function","71","273857","0.0-113.0-0.0","3kwsdp2q","","","","","","","","","","","","","","","","","","","","","","","","","","","","","","","","","",""
"","html-keyboard-response","72","274168","0.0-113.0-1.0","3kwsdp2q","1200","800","","","","","","","","","","","null","Wrong","Feedback","","null","","","","","","","","","","","","","","","","",""
"","call-function","73","274169","0.0-113.0-2.0","3kwsdp2q","","","","","","","","","","","","","","","","","","","","","","","","","","","","","","","","","",""
"","html-keyboard-response","74","274932","0.0-114.0","3kwsdp2q","1200","800","","","","","","","","","","","null","+","Fixation - short","","null","","","","","","","","","","","","","","","","",""
"","html-keyboard-response","75","275905","0.0-115.0","3kwsdp2q","","","","","","","","","","","","","972","hhd","Cue practice","","j","","Practice","1","13","false","false","true","both pre & post","LEFT","RIGHT","j","1","false","","","",""
"","html-keyboard-response","76","276669","0.0-118.0","3kwsdp2q","1200","800","","","","","","","","","","","null","+","Fixation - short","","null","","","","","","","","","","","","","","","","",""
"","html-keyboard-response","77","277457","0.0-119.0","3kwsdp2q","","","","","","","","","","","","","787","iei","Cue practice","","j","","Practice","2","13","false","false","true","both pre & post","RIGHT","RIGHT","j","1","true","","","",""
"","html-keyboard-response","78","278219","0.0-122.0","3kwsdp2q","1200","800","","","","","","","","","","","null","+","Fixation - short","","null","","","","","","","","","","","","","","","","",""
"","html-keyboard-response","79","278838","0.0-123.0","3kwsdp2q","","","","","","","","","","","","","617","hhd","Cue practice","","f","","Practice","3","13","false","false","false","both pre & post","LEFT","LEFT","f","1","true","","","",""
"","html-keyboard-response","80","279600","0.0-126.0","3kwsdp2q","1200","800","","","","","","","","","","","null","+","Fixation - short","","null","","","","","","","","","","","","","","","","",""
"","html-keyboard-response","81","280377","0.0-127.0","3kwsdp2q","","","","","","","","","","","","","776","iei","Cue practice","","j","","Practice","4","13","false","false","true","both pre & post","RIGHT","RIGHT","j","1","true","","","",""
"","html-keyboard-response","82","281140","0.0-130.0","3kwsdp2q","1200","800","","","","","","","","","","","null","+","Fixation - short","","null","","","","","","","","","","","","","","","","",""
"","html-keyboard-response","83","281769","0.0-131.0","3kwsdp2q","","","","","","","","","","","","","628","iei","Cue practice","","f","","Practice","5","13","false","false","false","both pre & post","RIGHT","LEFT","f","1","false","","","",""
"","html-keyboard-response","84","282532","0.0-134.0","3kwsdp2q","1200","800","","","","","","","","","","","null","+","Fixation - short","","null","","","","","","","","","","","","","","","","",""
"","html-keyboard-response","85","283241","0.0-135.0","3kwsdp2q","","","","","","","","","","","","","708","iei","Cue practice","","j","","Practice","6","13","false","false","true","both pre & post","RIGHT","RIGHT","j","1","true","","","",""
"","html-keyboard-response","86","284005","0.0-138.0","3kwsdp2q","1200","800","","","","","","","","","","","null","+","Fixation - short","","null","","","","","","","","","","","","","","","","",""
"","html-keyboard-response","87","284769","0.0-139.0","3kwsdp2q","","","","","","","","","","","","","763","hhd","Cue practice","","j","","Practice","7","13","false","false","true","both pre & post","LEFT","RIGHT","j","1","false","","","",""
"","html-keyboard-response","88","285534","0.0-142.0","3kwsdp2q","1200","800","","","","","","","","","","","null","+","Fixation - short","","null","","","","","","","","","","","","","","","","",""
"","html-keyboard-response","89","286233","0.0-143.0","3kwsdp2q","","","","","","","","","","","","","698","hhd","Cue practice","","f","","Practice","8","13","false","false","false","both pre & post","LEFT","LEFT","f","1","true","","","",""
"","html-keyboard-response","90","286997","0.0-146.0","3kwsdp2q","1200","800","","","","","","","","","","","null","+","Fixation - short","","null","","","","","","","","","","","","","","","","",""
"","html-keyboard-response","91","287801","0.0-147.0","3kwsdp2q","","","","","","","","","","","","","804","iei","Cue practice","","f","","Practice","9","13","false","false","false","both pre & post","RIGHT","LEFT","f","1","false","","","",""
"","html-keyboard-response","92","288565","0.0-150.0","3kwsdp2q","1200","800","","","","","","","","","","","null","+","Fixation - short","","null","","","","","","","","","","","","","","","","",""
"","html-keyboard-response","93","289269","0.0-151.0","3kwsdp2q","","","","","","","","","","","","","703","hhd","Cue practice","","f","","Practice","10","13","false","false","false","both pre & post","LEFT","LEFT","f","1","true","","","",""
"","html-keyboard-response","94","290032","0.0-154.0","3kwsdp2q","1200","800","","","","","","","","","","","null","+","Fixation - short","","null","","","","","","","","","","","","","","","","",""
"","html-keyboard-response","95","290817","0.0-155.0","3kwsdp2q","","","","","","","","","","","","","784","iei","Cue practice","","j","","Practice","11","13","false","false","false","both pre & post","RIGHT","LEFT","f","0","false","","","",""
"","call-function","96","290817","0.0-157.0-0.0","3kwsdp2q","","","","","","","","","","","","","","","","","","","","","","","","","","","","","","","","","",""
"","html-keyboard-response","97","291123","0.0-157.0-1.0","3kwsdp2q","1200","800","","","","","","","","","","","null","Wrong","Feedback","","null","","","","","","","","","","","","","","","","",""
"","call-function","98","291123","0.0-157.0-2.0","3kwsdp2q","","","","","","","","","","","","","","","","","","","","","","","","","","","","","","","","","",""
"","html-keyboard-response","99","291878","0.0-158.0","3kwsdp2q","1200","800","","","","","","","","","","","null","+","Fixation - short","","null","","","","","","","","","","","","","","","","",""
"","html-keyboard-response","100","292625","0.0-159.0","3kwsdp2q","","","","","","","","","","","","","746","iei","Cue practice","","j","","Practice","12","13","false","false","true","both pre & post","RIGHT","RIGHT","j","1","true","","","",""
"","html-keyboard-response","101","293388","0.0-162.0","3kwsdp2q","1200","800","","","","","","","","","","","null","+","Fixation - short","","null","","","","","","","","","","","","","","","","",""
"","canvas-keyboard-response","102","294650","0.0-163.0","3kwsdp2q","","","","","","","","","","","","","null","Cue","Cue","","null","","Practice","12","","","false","","","","","","","","","","",""
"","html-keyboard-response","103","295412","0.0-164.0","3kwsdp2q","1200","800","","","","","","","","","","","null","+","Fixation - short","","null","","","","","","","","","","","","","","","","",""
"","html-keyboard-response","104","296281","0.0-165.0","3kwsdp2q","","","","","","","","","","","","","868","iei","Cue practice","","f","","Practice","13","13","true","false","false","both pre & post","RIGHT","LEFT","f","1","false","","","",""
"","html-keyboard-response","105","297042","0.0-168.0","3kwsdp2q","1200","800","","","","","","","","","","","null","+","Fixation - short","","null","","","","","","","","","","","","","","","","",""
"","html-keyboard-response","106","297809","0.0-169.0","3kwsdp2q","","","","","","","","","","","","","766","iei","Cue practice","","j","","Practice","14","13","true","false","true","both pre & post","RIGHT","RIGHT","j","1","true","","","",""
"","html-keyboard-response","107","298571","0.0-172.0","3kwsdp2q","1200","800","","","","","","","","","","","null","+","Fixation - short","","null","","","","","","","","","","","","","","","","",""
"","html-keyboard-response","108","299357","0.0-173.0","3kwsdp2q","","","","","","","","","","","","","786","hhd","Cue practice","","j","","Practice","15","13","true","false","true","both pre & post","LEFT","RIGHT","j","1","false","","","",""
"","html-keyboard-response","109","300121","0.0-176.0","3kwsdp2q","1200","800","","","","","","","","","","","null","+","Fixation - short","","null","","","","","","","","","","","","","","","","",""
"","html-keyboard-response","110","300841","0.0-177.0","3kwsdp2q","","","","","","","","","","","","","719","hhd","Inducer practice","","f","","Practice","","","","true","","","","","f","1","","false","LEFT","",""
"","html-keyboard-response","111","301604","0.0-180.0","3kwsdp2q","1200","800","","","","","","","","","","","null","+","Fixation - short","","null","","","","","","","","","","","","","","","","",""
"","instructions","112","334754","0.0-181.0","3kwsdp2q","","","","","","","","","","","","[{""page_index"":0,""viewing_time"":33148}]","33148","End practice","End of practice","","","","","","","","","","","","","","","","","","",""
"","html-keyboard-response","113","337780","0.0-182.0","3kwsdp2q","1200","800","","","","","","","","","","","null","+","Fixation - long","","null","","","","","","","","","","","","","","","","",""
"","html-keyboard-response","114","353101","0.0-183.0","3kwsdp2q","","","","","","","","","","","","","15320","If nga press RIGHT | If jft press LEFT","Inducer instructions",""," ","","0","","","","","","","","","","","","","","",""
"","html-keyboard-response","115","353857","0.0-184.0","3kwsdp2q","1200","800","","","","","","","","","","","null","+","Fixation - short","","null","","","","","","","","","","","","","","","","",""
"","html-keyboard-response","116","354617","0.0-185.0","3kwsdp2q","","","","","","","","","","","","","759","nga","Diagnostic trial","","j","","0","0","6","false","false","false","both pre & post","RIGHT","LEFT","f","0","false","","","",""
"","call-function","117","354618","0.0-187.0-0.0","3kwsdp2q","","","","","","","","","","","","","","","","","","","","","","","","","","","","","","","","","",""
"","html-keyboard-response","118","354928","0.0-187.0-1.0","3kwsdp2q","1200","800","","","","","","","","","","","null","Wrong","Feedback","","null","","","","","","","","","","","","","","","","",""
"","call-function","119","354929","0.0-187.0-2.0","3kwsdp2q","","","","","","","","","","","","","","","","","","","","","","","","","","","","","","","","","",""
"","html-keyboard-response","120","355692","0.0-188.0","3kwsdp2q","1200","800","","","","","","","","","","","null","+","Fixation - short","","null","","","","","","","","","","","","","","","","",""
"","html-keyboard-response","121","356609","0.0-189.0","3kwsdp2q","","","","","","","","","","","","","915","jft","Diagnostic trial","","j","","0","1","6","false","false","true","both pre & post","LEFT","RIGHT","j","1","false","","","",""
"","html-keyboard-response","122","357373","0.0-192.0","3kwsdp2q","1200","800","","","","","","","","","","","null","+","Fixation - short","","null","","","","","","","","","","","","","","","","",""
"","html-keyboard-response","123","358217","0.0-193.0","3kwsdp2q","","","","","","","","","","","","","843","nga","Diagnostic trial","","f","","0","2","6","false","false","false","both pre & post","RIGHT","LEFT","f","1","false","","","",""
"","html-keyboard-response","124","358980","0.0-196.0","3kwsdp2q","1200","800","","","","","","","","","","","null","+","Fixation - short","","null","","","","","","","","","","","","","","","","",""
"","html-keyboard-response","125","359681","0.0-197.0","3kwsdp2q","","","","","","","","","","","","","701","nga","Diagnostic trial","","f","","0","3","6","false","false","false","both pre & post","RIGHT","LEFT","f","1","false","","","",""
"","html-keyboard-response","126","360438","0.0-200.0","3kwsdp2q","1200","800","","","","","","","","","","","null","+","Fixation - short","","null","","","","","","","","","","","","","","","","",""
"","html-keyboard-response","127","361049","0.0-201.0","3kwsdp2q","","","","","","","","","","","","","610","nga","Diagnostic trial","","f","","0","4","6","false","false","false","both pre & post","RIGHT","LEFT","f","1","false","","","",""
"","html-keyboard-response","128","361814","0.0-204.0","3kwsdp2q","1200","800","","","","","","","","","","","null","+","Fixation - short","","null","","","","","","","","","","","","","","","","",""
"","html-keyboard-response","129","362273","0.0-205.0","3kwsdp2q","","","","","","","","","","","","","458","jft","Diagnostic trial","","j","","0","5","6","false","false","true","both pre & post","LEFT","RIGHT","j","1","false","","","",""
"","html-keyboard-response","130","363037","0.0-208.0","3kwsdp2q","1200","800","","","","","","","","","","","null","+","Fixation - short","","null","","","","","","","","","","","","","","","","",""
"","canvas-keyboard-response","131","364300","0.0-209.0","3kwsdp2q","","","","","","","","","","","","","null","Cue","Cue","","null","","0","5","","","false","","","","","","","","","","",""
"","html-keyboard-response","132","365062","0.0-210.0","3kwsdp2q","1200","800","","","","","","","","","","","null","+","Fixation - short","","null","","","","","","","","","","","","","","","","",""
"","html-keyboard-response","133","365917","0.0-211.0","3kwsdp2q","","","","","","","","","","","","","854","jft","Diagnostic trial","","f","","0","6","6","true","false","false","both pre & post","LEFT","LEFT","f","1","true","","","",""
"","html-keyboard-response","134","366681","0.0-214.0","3kwsdp2q","1200","800","","","","","","","","","","","null","+","Fixation - short","","null","","","","","","","","","","","","","","","","",""
"","html-keyboard-response","135","367449","0.0-215.0","3kwsdp2q","","","","","","","","","","","","","767","jft","Diagnostic trial","","j","","0","7","6","true","false","true","both pre & post","LEFT","RIGHT","j","1","false","","","",""
"","html-keyboard-response","136","368213","0.0-218.0","3kwsdp2q","1200","800","","","","","","","","","","","null","+","Fixation - short","","null","","","","","","","","","","","","","","","","",""
"","html-keyboard-response","137","368969","0.0-219.0","3kwsdp2q","","","","","","","","","","","","","755","nga","Inducer trial","","f","","0","","","","true","","","","","j","0","","false","RIGHT","",""
"","call-function","138","368969","0.0-221.0-0.0","3kwsdp2q","","","","","","","","","","","","","","","","","","","","","","","","","","","","","","","","","",""
"","html-keyboard-response","139","369281","0.0-221.0-1.0","3kwsdp2q","1200","800","","","","","","","","","","","null","Wrong","Feedback","","null","","","","","","","","","","","","","","","","",""
"","call-function","140","369282","0.0-221.0-2.0","3kwsdp2q","","","","","","","","","","","","","","","","","","","","","","","","","","","","","","","","","",""
"","html-keyboard-response","141","370044","0.0-222.0","3kwsdp2q","1200","800","","","","","","","","","","","null","+","Fixation - short","","null","","","","","","","","","","","","","","","","",""
"","html-keyboard-response","142","376925","0.0-223.0","3kwsdp2q","","","","","","","","","","","","","6881","If zpl press RIGHT | If cui press LEFT","Inducer instructions",""," ","","1","","","","","","","","","","","","","","",""
"","html-keyboard-response","143","377688","0.0-224.0","3kwsdp2q","1200","800","","","","","","","","","","","null","+","Fixation - short","","null","","","","","","","","","","","","","","","","",""
"","html-keyboard-response","144","378689","0.0-225.0","3kwsdp2q","","","","","","","","","","","","","1000","cui","Diagnostic trial","","f","","1","0","11","false","false","false","both pre & post","LEFT","LEFT","f","1","true","","","",""
"","html-keyboard-response","145","379452","0.0-228.0","3kwsdp2q","1200","800","","","","","","","","","","","null","+","Fixation - short","","null","","","","","","","","","","","","","","","","",""
"","html-keyboard-response","146","380329","0.0-229.0","3kwsdp2q","","","","","","","","","","","","","876","cui","Diagnostic trial","","f","","1","1","11","false","false","false","both pre & post","LEFT","LEFT","f","1","true","","","",""
"","html-keyboard-response","147","381091","0.0-232.0","3kwsdp2q","1200","800","","","","","","","","","","","null","+","Fixation - short","","null","","","","","","","","","","","","","","","","",""
"","html-keyboard-response","148","381937","0.0-233.0","3kwsdp2q","","","","","","","","","","","","","845","zpl","Diagnostic trial","","f","","1","2","11","false","false","false","both pre & post","RIGHT","LEFT","f","1","false","","","",""
"","html-keyboard-response","149","382701","0.0-236.0","3kwsdp2q","1200","800","","","","","","","","","","","null","+","Fixation - short","","null","","","","","","","","","","","","","","","","",""
"","html-keyboard-response","150","383489","0.0-237.0","3kwsdp2q","","","","","","","","","","","","","787","zpl","Diagnostic trial","","f","","1","3","11","false","false","false","both pre & post","RIGHT","LEFT","f","1","false","","","",""
"","html-keyboard-response","151","384252","0.0-240.0","3kwsdp2q","1200","800","","","","","","","","","","","null","+","Fixation - short","","null","","","","","","","","","","","","","","","","",""
"","html-keyboard-response","152","385089","0.0-241.0","3kwsdp2q","","","","","","","","","","","","","836","zpl","Diagnostic trial","","f","","1","4","11","false","false","false","both pre & post","RIGHT","LEFT","f","1","false","","","",""
"","html-keyboard-response","153","385852","0.0-244.0","3kwsdp2q","1200","800","","","","","","","","","","","null","+","Fixation - short","","null","","","","","","","","","","","","","","","","",""
"","html-keyboard-response","154","386641","0.0-245.0","3kwsdp2q","","","","","","","","","","","","","788","zpl","Diagnostic trial","","j","","1","5","11","false","false","true","both pre & post","RIGHT","RIGHT","j","1","true","","","",""
"","html-keyboard-response","155","387405","0.0-248.0","3kwsdp2q","1200","800","","","","","","","","","","","null","+","Fixation - short","","null","","","","","","","","","","","","","","","","",""
"","html-keyboard-response","156","388109","0.0-249.0","3kwsdp2q","","","","","","","","","","","","","703","cui","Diagnostic trial","","f","","1","6","11","false","false","false","both pre & post","LEFT","LEFT","f","1","true","","","",""
"","html-keyboard-response","157","388872","0.0-252.0","3kwsdp2q","1200","800","","","","","","","","","","","null","+","Fixation - short","","null","","","","","","","","","","","","","","","","",""
"","html-keyboard-response","158","389401","0.0-253.0","3kwsdp2q","","","","","","","","","","","","","528","cui","Diagnostic trial","","f","","1","7","11","false","false","false","both pre & post","LEFT","LEFT","f","1","true","","","",""
"","html-keyboard-response","159","390165","0.0-256.0","3kwsdp2q","1200","800","","","","","","","","","","","null","+","Fixation - short","","null","","","","","","","","","","","","","","","","",""
"","html-keyboard-response","160","390777","0.0-257.0","3kwsdp2q","","","","","","","","","","","","","611","cui","Diagnostic trial","","j","","1","8","11","false","false","true","both pre & post","LEFT","RIGHT","j","1","false","","","",""
"","html-keyboard-response","161","391540","0.0-260.0","3kwsdp2q","1200","800","","","","","","","","","","","null","+","Fixation - short","","null","","","","","","","","","","","","","","","","",""
"","html-keyboard-response","162","392177","0.0-261.0","3kwsdp2q","","","","","","","","","","","","","636","zpl","Diagnostic trial","","f","","1","9","11","false","false","false","both pre & post","RIGHT","LEFT","f","1","false","","","",""
"","html-keyboard-response","163","392940","0.0-264.0","3kwsdp2q","1200","800","","","","","","","","","","","null","+","Fixation - short","","null","","","","","","","","","","","","","","","","",""
"","html-keyboard-response","164","393563","0.0-265.0","3kwsdp2q","","","","","","","","","","","","","628","zpl","Diagnostic trial","","f","","1","10","11","false","false","false","both pre & post","RIGHT","LEFT","f","1","false","","","",""
"","html-keyboard-response","165","394326","0.0-268.0","3kwsdp2q","1200","800","","","","","","","","","","","null","+","Fixation - short","","null","","","","","","","","","","","","","","","","",""
"","canvas-keyboard-response","166","395593","0.0-269.0","3kwsdp2q","","","","","","","","","","","","","null","Cue","Cue","","null","","1","10","","","false","","","","","","","","","","",""
"","html-keyboard-response","167","396356","0.0-270.0","3kwsdp2q","1200","800","","","","","","","","","","","null","+","Fixation - short","","null","","","","","","","","","","","","","","","","",""
"","html-keyboard-response","168","397043","0.0-271.0","3kwsdp2q","","","","","","","","","","","","","686","zpl","Diagnostic trial","","j","","1","11","11","true","false","true","both pre & post","RIGHT","RIGHT","j","1","true","","","",""
"","html-keyboard-response","169","397808","0.0-274.0","3kwsdp2q","1200","800","","","","","","","","","","","null","+","Fixation - short","","null","","","","","","","","","","","","","","","","",""
"","html-keyboard-response","170","399168","0.0-275.0","3kwsdp2q","","","","","","","","","","","","","1359","zpl","Inducer trial","","j","","1","","","","true","","","","","j","1","","false","RIGHT","",""
"","html-keyboard-response","171","399931","0.0-278.0","3kwsdp2q","1200","800","","","","","","","","","","","null","+","Fixation - short","","null","","","","","","","","","","","","","","","","",""
"","html-keyboard-response","172","402475","0.0-279.0","3kwsdp2q","","","","","","","","","","","","","2543","If mda press RIGHT | If bgi press LEFT","Inducer instructions",""," ","","2","","","","","","","","","","","","","","",""
"","html-keyboard-response","173","403238","0.0-280.0","3kwsdp2q","1200","800","","","","","","","","","","","null","+","Fixation - short","","null","","","","","","","","","","","","","","","","",""
"","html-keyboard-response","174","404011","0.0-281.0","3kwsdp2q","","","","","","","","","","","","","772","mda","Diagnostic trial","","j","","2","0","4","false","false","true","both pre & post","RIGHT","RIGHT","j","1","true","","","",""
"","html-keyboard-response","175","404770","0.0-284.0","3kwsdp2q","1200","800","","","","","","","","","","","null","+","Fixation - short","","null","","","","","","","","","","","","","","","","",""
"","html-keyboard-response","176","405411","0.0-285.0","3kwsdp2q","","","","","","","","","","","","","641","bgi","Diagnostic trial","","f","","2","1","4","false","false","true","both pre & post","LEFT","RIGHT","j","0","false","","","",""
"","call-function","177","405412","0.0-287.0-0.0","3kwsdp2q","","","","","","","","","","","","","","","","","","","","","","","","","","","","","","","","","",""
"","html-keyboard-response","178","405729","0.0-287.0-1.0","3kwsdp2q","1200","800","","","","","","","","","","","null","Wrong","Feedback","","null","","","","","","","","","","","","","","","","",""
"","call-function","179","405729","0.0-287.0-2.0","3kwsdp2q","","","","","","","","","","","","","","","","","","","","","","","","","","","","","","","","","",""
"","html-keyboard-response","180","406487","0.0-288.0","3kwsdp2q","1200","800","","","","","","","","","","","null","+","Fixation - short","","null","","","","","","","","","","","","","","","","",""
"","html-keyboard-response","181","407196","0.0-289.0","3kwsdp2q","","","","","","","","","","","","","708","mda","Diagnostic trial","","j","","2","2","4","false","false","true","both pre & post","RIGHT","RIGHT","j","1","true","","","",""
"","html-keyboard-response","182","407959","0.0-292.0","3kwsdp2q","1200","800","","","","","","","","","","","null","+","Fixation - short","","null","","","","","","","","","","","","","","","","",""
"","html-keyboard-response","183","408563","0.0-293.0","3kwsdp2q","","","","","","","","","","","","","604","bgi","Diagnostic trial","","j","","2","3","4","false","false","true","both pre & post","LEFT","RIGHT","j","1","false","","","",""
"","html-keyboard-response","184","409326","0.0-296.0","3kwsdp2q","1200","800","","","","","","","","","","","null","+","Fixation - short","","null","","","","","","","","","","","","","","","","",""
"","canvas-keyboard-response","185","410590","0.0-297.0","3kwsdp2q","","","","","","","","","","","","","null","Cue","Cue","","null","","2","3","","","false","","","","","","","","","","",""
"","html-keyboard-response","186","411353","0.0-298.0","3kwsdp2q","1200","800","","","","","","","","","","","null","+","Fixation - short","","null","","","","","","","","","","","","","","","","",""
"","html-keyboard-response","187","412096","0.0-299.0","3kwsdp2q","","","","","","","","","","","","","743","bgi","Diagnostic trial","","j","","2","4","4","true","false","true","both pre & post","LEFT","RIGHT","j","1","false","","","",""
"","html-keyboard-response","188","412860","0.0-302.0","3kwsdp2q","1200","800","","","","","","","","","","","null","+","Fixation - short","","null","","","","","","","","","","","","","","","","",""
"","html-keyboard-response","189","413476","0.0-303.0","3kwsdp2q","","","","","","","","","","","","","615","mda","Diagnostic trial","","j","","2","5","4","true","false","true","both pre & post","RIGHT","RIGHT","j","1","true","","","",""
"","html-keyboard-response","190","414238","0.0-306.0","3kwsdp2q","1200","800","","","","","","","","","","","null","+","Fixation - short","","null","","","","","","","","","","","","","","","","",""
"","html-keyboard-response","191","414883","0.0-307.0","3kwsdp2q","","","","","","","","","","","","","645","mda","Inducer trial","","f","","2","","","","true","","","","","j","0","","false","RIGHT","",""
"","call-function","192","414884","0.0-309.0-0.0","3kwsdp2q","","","","","","","","","","","","","","","","","","","","","","","","","","","","","","","","","",""
"","html-keyboard-response","193","415195","0.0-309.0-1.0","3kwsdp2q","1200","800","","","","","","","","","","","null","Wrong","Feedback","","null","","","","","","","","","","","","","","","","",""
"","call-function","194","415196","0.0-309.0-2.0","3kwsdp2q","","","","","","","","","","","","","","","","","","","","","","","","","","","","","","","","","",""
"","html-keyboard-response","195","415960","0.0-310.0","3kwsdp2q","1200","800","","","","","","","","","","","null","+","Fixation - short","","null","","","","","","","","","","","","","","","","",""
"","html-keyboard-response","196","418595","0.0-311.0","3kwsdp2q","","","","","","","","","","","","","2635","If ibg press RIGHT | If jey press LEFT","Inducer instructions",""," ","","3","","","","","","","","","","","","","","",""
"","html-keyboard-response","197","419359","0.0-312.0","3kwsdp2q","1200","800","","","","","","","","","","","null","+","Fixation - short","","null","","","","","","","","","","","","","","","","",""
"","html-keyboard-response","198","420108","0.0-313.0","3kwsdp2q","","","","","","","","","","","","","747","ibg","Diagnostic trial","","j","","3","0","9","false","false","true","both pre & post","RIGHT","RIGHT","j","1","true","","","",""
"","html-keyboard-response","199","420871","0.0-316.0","3kwsdp2q","1200","800","","","","","","","","","","","null","+","Fixation - short","","null","","","","","","","","","","","","","","","","",""
"","html-keyboard-response","200","421475","0.0-317.0","3kwsdp2q","","","","","","","","","","","","","604","jey","Diagnostic trial","","f","","3","1","9","false","false","false","both pre & post","LEFT","LEFT","f","1","true","","","",""
"","html-keyboard-response","201","422239","0.0-320.0","3kwsdp2q","1200","800","","","","","","","","","","","null","+","Fixation - short","","null","","","","","","","","","","","","","","","","",""
"","html-keyboard-response","202","422800","0.0-321.0","3kwsdp2q","","","","","","","","","","","","","560","ibg","Diagnostic trial","","j","","3","2","9","false","false","true","both pre & post","RIGHT","RIGHT","j","1","true","","","",""
"","html-keyboard-response","203","423563","0.0-324.0","3kwsdp2q","1200","800","","","","","","","","","","","null","+","Fixation - short","","null","","","","","","","","","","","","","","","","",""
"","html-keyboard-response","204","424172","0.0-325.0","3kwsdp2q","","","","","","","","","","","","","608","ibg","Diagnostic trial","","j","","3","3","9","false","false","true","both pre & post","RIGHT","RIGHT","j","1","true","","","",""
"","html-keyboard-response","205","424935","0.0-328.0","3kwsdp2q","1200","800","","","","","","","","","","","null","+","Fixation - short","","null","","","","","","","","","","","","","","","","",""
"","html-keyboard-response","206","425516","0.0-329.0","3kwsdp2q","","","","","","","","","","","","","580","ibg","Diagnostic trial","","j","","3","4","9","false","false","true","both pre & post","RIGHT","RIGHT","j","1","true","","","",""
"","html-keyboard-response","207","426279","0.0-332.0","3kwsdp2q","1200","800","","","","","","","","","","","null","+","Fixation - short","","null","","","","","","","","","","","","","","","","",""
"","html-keyboard-response","208","427251","0.0-333.0","3kwsdp2q","","","","","","","","","","","","","972","ibg","Diagnostic trial","","f","","3","5","9","false","false","false","both pre & post","RIGHT","LEFT","f","1","false","","","",""
"","html-keyboard-response","209","428015","0.0-336.0","3kwsdp2q","1200","800","","","","","","","","","","","null","+","Fixation - short","","null","","","","","","","","","","","","","","","","",""
"","html-keyboard-response","210","428748","0.0-337.0","3kwsdp2q","","","","","","","","","","","","","732","jey","Diagnostic trial","","j","","3","6","9","false","false","true","both pre & post","LEFT","RIGHT","j","1","false","","","",""
"","html-keyboard-response","211","429511","0.0-340.0","3kwsdp2q","1200","800","","","","","","","","","","","null","+","Fixation - short","","null","","","","","","","","","","","","","","","","",""
"","html-keyboard-response","212","430403","0.0-341.0","3kwsdp2q","","","","","","","","","","","","","892","ibg","Diagnostic trial","","f","","3","7","9","false","false","false","both pre & post","RIGHT","LEFT","f","1","false","","","",""
"","html-keyboard-response","213","431167","0.0-344.0","3kwsdp2q","1200","800","","","","","","","","","","","null","+","Fixation - short","","null","","","","","","","","","","","","","","","","",""
"","html-keyboard-response","214","431987","0.0-345.0","3kwsdp2q","","","","","","","","","","","","","819","ibg","Diagnostic trial","","f","","3","8","9","false","false","false","both pre & post","RIGHT","LEFT","f","1","false","","","",""
"","html-keyboard-response","215","432750","0.0-348.0","3kwsdp2q","1200","800","","","","","","","","","","","null","+","Fixation - short","","null","","","","","","","","","","","","","","","","",""
"","canvas-keyboard-response","216","434013","0.0-349.0","3kwsdp2q","","","","","","","","","","","","","null","Cue","Cue","","null","","3","8","","","false","","","","","","","","","","",""
"","html-keyboard-response","217","434776","0.0-350.0","3kwsdp2q","1200","800","","","","","","","","","","","null","+","Fixation - short","","null","","","","","","","","","","","","","","","","",""
"","html-keyboard-response","218","435480","0.0-351.0","3kwsdp2q","","","","","","","","","","","","","703","ibg","Diagnostic trial","","j","","3","9","9","true","false","true","both pre & post","RIGHT","RIGHT","j","1","true","","","",""
"","html-keyboard-response","219","436243","0.0-354.0","3kwsdp2q","1200","800","","","","","","","","","","","null","+","Fixation - short","","null","","","","","","","","","","","","","","","","",""
"","html-keyboard-response","220","436971","0.0-355.0","3kwsdp2q","","","","","","","","","","","","","727","ibg","Diagnostic trial","","f","","3","10","9","true","false","false","both pre & post","RIGHT","LEFT","f","1","false","","","",""
"","html-keyboard-response","221","437734","0.0-358.0","3kwsdp2q","1200","800","","","","","","","","","","","null","+","Fixation - short","","null","","","","","","","","","","","","","","","","",""
"","html-keyboard-response","222","438427","0.0-359.0","3kwsdp2q","","","","","","","","","","","","","692","jey","Diagnostic trial","","j","","3","11","9","true","false","false","both pre & post","LEFT","LEFT","f","0","true","","","",""
"","call-function","223","438428","0.0-361.0-0.0","3kwsdp2q","","","","","","","","","","","","","","","","","","","","","","","","","","","","","","","","","",""
"","html-keyboard-response","224","438732","0.0-361.0-1.0","3kwsdp2q","1200","800","","","","","","","","","","","null","Wrong","Feedback","","null","","","","","","","","","","","","","","","","",""
"","call-function","225","438733","0.0-361.0-2.0","3kwsdp2q","","","","","","","","","","","","","","","","","","","","","","","","","","","","","","","","","",""
"","html-keyboard-response","226","439488","0.0-362.0","3kwsdp2q","1200","800","","","","","","","","","","","null","+","Fixation - short","","null","","","","","","","","","","","","","","","","",""
"","html-keyboard-response","227","440459","0.0-363.0","3kwsdp2q","","","","","","","","","","","","","971","jey","Diagnostic trial","","j","","3","12","9","true","false","true","both pre & post","LEFT","RIGHT","j","1","false","","","",""
"","html-keyboard-response","228","441222","0.0-366.0","3kwsdp2q","1200","800","","","","","","","","","","","null","+","Fixation - short","","null","","","","","","","","","","","","","","","","",""
"","html-keyboard-response","229","442211","0.0-367.0","3kwsdp2q","","","","","","","","","","","","","988","ibg","Inducer trial","","f","","3","","","","true","","","","","j","0","","false","RIGHT","",""
"","call-function","230","442212","0.0-369.0-0.0","3kwsdp2q","","","","","","","","","","","","","","","","","","","","","","","","","","","","","","","","","",""
"","html-keyboard-response","231","442523","0.0-369.0-1.0","3kwsdp2q","1200","800","","","","","","","","","","","null","Wrong","Feedback","","null","","","","","","","","","","","","","","","","",""
"","call-function","232","442524","0.0-369.0-2.0","3kwsdp2q","","","","","","","","","","","","","","","","","","","","","","","","","","","","","","","","","",""
"","html-keyboard-response","233","443287","0.0-370.0","3kwsdp2q","1200","800","","","","","","","","","","","null","+","Fixation - short","","null","","","","","","","","","","","","","","","","",""
"","html-keyboard-response","234","447032","0.0-371.0","3kwsdp2q","","","","","","","","","","","","","3744","If wwt press RIGHT | If cta press LEFT","Inducer instructions",""," ","","4","","","","","","","","","","","","","","",""
"","html-keyboard-response","235","447797","0.0-372.0","3kwsdp2q","1200","800","","","","","","","","","","","null","+","Fixation - short","","null","","","","","","","","","","","","","","","","",""
"","html-keyboard-response","236","448675","0.0-373.0","3kwsdp2q","","","","","","","","","","","","","877","wwt","Diagnostic trial","","j","","4","0","4","false","false","true","both pre & post","RIGHT","RIGHT","j","1","true","","","",""
"","html-keyboard-response","237","449439","0.0-376.0","3kwsdp2q","1200","800","","","","","","","","","","","null","+","Fixation - short","","null","","","","","","","","","","","","","","","","",""
"","html-keyboard-response","238","450107","0.0-377.0","3kwsdp2q","","","","","","","","","","","","","668","wwt","Diagnostic trial","","j","","4","1","4","false","false","true","both pre & post","RIGHT","RIGHT","j","1","true","","","",""
"","html-keyboard-response","239","450874","0.0-380.0","3kwsdp2q","1200","800","","","","","","","","","","","null","+","Fixation - short","","null","","","","","","","","","","","","","","","","",""
"","html-keyboard-response","240","451651","0.0-381.0","3kwsdp2q","","","","","","","","","","","","","777","cta","Diagnostic trial","","f","","4","2","4","false","false","false","both pre & post","LEFT","LEFT","f","1","true","","","",""
"","html-keyboard-response","241","452402","0.0-384.0","3kwsdp2q","1200","800","","","","","","","","","","","null","+","Fixation - short","","null","","","","","","","","","","","","","","","","",""
"","html-keyboard-response","242","453139","0.0-385.0","3kwsdp2q","","","","","","","","","","","","","736","wwt","Diagnostic trial","","j","","4","3","4","false","false","true","both pre & post","RIGHT","RIGHT","j","1","true","","","",""
"","html-keyboard-response","243","453909","0.0-388.0","3kwsdp2q","1200","800","","","","","","","","","","","null","+","Fixation - short","","null","","","","","","","","","","","","","","","","",""
"","canvas-keyboard-response","244","455172","0.0-389.0","3kwsdp2q","","","","","","","","","","","","","null","Cue","Cue","","null","","4","3","","","false","","","","","","","","","","",""
"","html-keyboard-response","245","455935","0.0-390.0","3kwsdp2q","1200","800","","","","","","","","","","","null","+","Fixation - short","","null","","","","","","","","","","","","","","","","",""
"","html-keyboard-response","246","456744","0.0-391.0","3kwsdp2q","","","","","","","","","","","","","809","cta","Diagnostic trial","","f","","4","4","4","true","false","false","both pre & post","LEFT","LEFT","f","1","true","","","",""
"","html-keyboard-response","247","457509","0.0-394.0","3kwsdp2q","1200","800","","","","","","","","","","","null","+","Fixation - short","","null","","","","","","","","","","","","","","","","",""
"","html-keyboard-response","248","458380","0.0-395.0","3kwsdp2q","","","","","","","","","","","","","871","cta","Diagnostic trial","","j","","4","5","4","true","false","true","both pre & post","LEFT","RIGHT","j","1","false","","","",""
"","html-keyboard-response","249","459144","0.0-398.0","3kwsdp2q","1200","800","","","","","","","","","","","null","+","Fixation - short","","null","","","","","","","","","","","","","","","","",""
"","html-keyboard-response","250","459960","0.0-399.0","3kwsdp2q","","","","","","","","","","","","","815","cta","Diagnostic trial","","f","","4","6","4","true","false","false","both pre & post","LEFT","LEFT","f","1","true","","","",""
"","html-keyboard-response","251","460720","0.0-402.0","3kwsdp2q","1200","800","","","","","","","","","","","null","+","Fixation - short","","null","","","","","","","","","","","","","","","","",""
"","html-keyboard-response","252","461416","0.0-403.0","3kwsdp2q","","","","","","","","","","","","","696","wwt","Diagnostic trial","","j","","4","7","4","true","false","true","both pre & post","RIGHT","RIGHT","j","1","true","","","",""
"","html-keyboard-response","253","462180","0.0-406.0","3kwsdp2q","1200","800","","","","","","","","","","","null","+","Fixation - short","","null","","","","","","","","","","","","","","","","",""
"","html-keyboard-response","254","463240","0.0-407.0","3kwsdp2q","","","","","","","","","","","","","1059","wwt","Inducer trial","","j","","4","","","","true","","","","","j","1","","false","RIGHT","",""
"","html-keyboard-response","255","464004","0.0-410.0","3kwsdp2q","1200","800","","","","","","","","","","","null","+","Fixation - short","","null","","","","","","","","","","","","","","","","",""
"","html-keyboard-response","256","466328","0.0-411.0","3kwsdp2q","","","","","","","","","","","","","2323","If ofa press RIGHT | If jcr press LEFT","Inducer instructions",""," ","","5","","","","","","","","","","","","","","",""
"","html-keyboard-response","257","467091","0.0-412.0","3kwsdp2q","1200","800","","","","","","","","","","","null","+","Fixation - short","","null","","","","","","","","","","","","","","","","",""
"","html-keyboard-response","258","467808","0.0-413.0","3kwsdp2q","","","","","","","","","","","","","716","ofa","Diagnostic trial","","j","","5","0","6","false","false","true","both pre & post","RIGHT","RIGHT","j","1","true","","","",""
"","html-keyboard-response","259","468571","0.0-416.0","3kwsdp2q","1200","800","","","","","","","","","","","null","+","Fixation - short","","null","","","","","","","","","","","","","","","","",""
"","html-keyboard-response","260","469204","0.0-417.0","3kwsdp2q","","","","","","","","","","","","","632","jcr","Diagnostic trial","","j","","5","1","6","false","false","true","both pre & post","LEFT","RIGHT","j","1","false","","","",""
"","html-keyboard-response","261","469967","0.0-420.0","3kwsdp2q","1200","800","","","","","","","","","","","null","+","Fixation - short","","null","","","","","","","","","","","","","","","","",""
"","html-keyboard-response","262","470632","0.0-421.0","3kwsdp2q","","","","","","","","","","","","","663","jcr","Diagnostic trial","","f","","5","2","6","false","false","false","both pre & post","LEFT","LEFT","f","1","true","","","",""
"","html-keyboard-response","263","471395","0.0-424.0","3kwsdp2q","1200","800","","","","","","","","","","","null","+","Fixation - short","","null","","","","","","","","","","","","","","","","",""
"","html-keyboard-response","264","472080","0.0-425.0","3kwsdp2q","","","","","","","","","","","","","684","ofa","Diagnostic trial","","j","","5","3","6","false","false","true","both pre & post","RIGHT","RIGHT","j","1","true","","","",""
"","html-keyboard-response","265","472843","0.0-428.0","3kwsdp2q","1200","800","","","","","","","","","","","null","+","Fixation - short","","null","","","","","","","","","","","","","","","","",""
"","html-keyboard-response","266","473656","0.0-429.0","3kwsdp2q","","","","","","","","","","","","","812","jcr","Diagnostic trial","","f","","5","4","6","false","false","false","both pre & post","LEFT","LEFT","f","1","true","","","",""
"","html-keyboard-response","267","474411","0.0-432.0","3kwsdp2q","1200","800","","","","","","","","","","","null","+","Fixation - short","","null","","","","","","","","","","","","","","","","",""
"","html-keyboard-response","268","475040","0.0-433.0","3kwsdp2q","","","","","","","","","","","","","628","jcr","Diagnostic trial","","j","","5","5","6","false","false","true","both pre & post","LEFT","RIGHT","j","1","false","","","",""
"","html-keyboard-response","269","475796","0.0-436.0","3kwsdp2q","1200","800","","","","","","","","","","","null","+","Fixation - short","","null","","","","","","","","","","","","","","","","",""
"","canvas-keyboard-response","270","477060","0.0-437.0","3kwsdp2q","","","","","","","","","","","","","null","Cue","Cue","","null","","5","5","","","false","","","","","","","","","","",""
"","html-keyboard-response","271","477823","0.0-438.0","3kwsdp2q","1200","800","","","","","","","","","","","null","+","Fixation - short","","null","","","","","","","","","","","","","","","","",""
"","html-keyboard-response","272","478664","0.0-439.0","3kwsdp2q","","","","","","","","","","","","","840","ofa","Diagnostic trial","","f","","5","6","6","true","false","false","both pre & post","RIGHT","LEFT","f","1","false","","","",""
"","html-keyboard-response","273","479429","0.0-442.0","3kwsdp2q","1200","800","","","","","","","","","","","null","+","Fixation - short","","null","","","","","","","","","","","","","","","","",""
"","html-keyboard-response","274","480004","0.0-443.0","3kwsdp2q","","","","","","","","","","","","","574","jcr","Diagnostic trial","","j","","5","7","6","true","false","true","both pre & post","LEFT","RIGHT","j","1","false","","","",""
"","html-keyboard-response","275","480767","0.0-446.0","3kwsdp2q","1200","800","","","","","","","","","","","null","+","Fixation - short","","null","","","","","","","","","","","","","","","","",""
"","html-keyboard-response","276","481400","0.0-447.0","3kwsdp2q","","","","","","","","","","","","","633","ofa","Diagnostic trial","","f","","5","8","6","true","false","false","both pre & post","RIGHT","LEFT","f","1","false","","","",""
"","html-keyboard-response","277","482163","0.0-450.0","3kwsdp2q","1200","800","","","","","","","","","","","null","+","Fixation - short","","null","","","","","","","","","","","","","","","","",""
"","html-keyboard-response","278","482928","0.0-451.0","3kwsdp2q","","","","","","","","","","","","","764","jcr","Diagnostic trial","","f","","5","9","6","true","false","false","both pre & post","LEFT","LEFT","f","1","true","","","",""
"","html-keyboard-response","279","483691","0.0-454.0","3kwsdp2q","1200","800","","","","","","","","","","","null","+","Fixation - short","","null","","","","","","","","","","","","","","","","",""
"","html-keyboard-response","280","484360","0.0-455.0","3kwsdp2q","","","","","","","","","","","","","668","jcr","Inducer trial","","j","","5","","","","true","","","","","f","0","","false","LEFT","",""
"","call-function","281","484361","0.0-457.0-0.0","3kwsdp2q","","","","","","","","","","","","","","","","","","","","","","","","","","","","","","","","","",""
"","html-keyboard-response","282","484671","0.0-457.0-1.0","3kwsdp2q","1200","800","","","","","","","","","","","null","Wrong","Feedback","","null","","","","","","","","","","","","","","","","",""
"","call-function","283","484672","0.0-457.0-2.0","3kwsdp2q","","","","","","","","","","","","","","","","","","","","","","","","","","","","","","","","","",""
"","html-keyboard-response","284","485431","0.0-458.0","3kwsdp2q","1200","800","","","","","","","","","","","null","+","Fixation - short","","null","","","","","","","","","","","","","","","","",""
"","html-keyboard-response","285","487272","0.0-459.0","3kwsdp2q","","","","","","","","","","","","","1840","If eeu press RIGHT | If vrm press LEFT","Inducer instructions",""," ","","6","","","","","","","","","","","","","","",""
"","html-keyboard-response","286","488036","0.0-460.0","3kwsdp2q","1200","800","","","","","","","","","","","null","+","Fixation - short","","null","","","","","","","","","","","","","","","","",""
"","html-keyboard-response","287","489616","0.0-461.0","3kwsdp2q","","","","","","","","","","","","","1579","vrm","Diagnostic trial","","f","","6","0","5","false","false","false","both pre & post","LEFT","LEFT","f","1","true","","","",""
"","html-keyboard-response","288","490380","0.0-464.0","3kwsdp2q","1200","800","","","","","","","","","","","null","+","Fixation - short","","null","","","","","","","","","","","","","","","","",""
"","html-keyboard-response","289","491108","0.0-465.0","3kwsdp2q","","","","","","","","","","","","","727","vrm","Diagnostic trial","","f","","6","1","5","false","false","false","both pre & post","LEFT","LEFT","f","1","true","","","",""
"","html-keyboard-response","290","491871","0.0-468.0","3kwsdp2q","1200","800","","","","","","","","","","","null","+","Fixation - short","","null","","","","","","","","","","","","","","","","",""
"","html-keyboard-response","291","492520","0.0-469.0","3kwsdp2q","","","","","","","","","","","","","648","eeu","Diagnostic trial","","j","","6","2","5","false","false","true","both pre & post","RIGHT","RIGHT","j","1","true","","","",""
"","html-keyboard-response","292","493283","0.0-472.0","3kwsdp2q","1200","800","","","","","","","","","","","null","+","Fixation - short","","null","","","","","","","","","","","","","","","","",""
"","html-keyboard-response","293","493944","0.0-473.0","3kwsdp2q","","","","","","","","","","","","","660","vrm","Diagnostic trial","","j","","6","3","5","false","false","true","both pre & post","LEFT","RIGHT","j","1","false","","","",""
"","html-keyboard-response","294","494708","0.0-476.0","3kwsdp2q","1200","800","","","","","","","","","","","null","+","Fixation - short","","null","","","","","","","","","","","","","","","","",""
"","html-keyboard-response","295","495312","0.0-477.0","3kwsdp2q","","","","","","","","","","","","","604","vrm","Diagnostic trial","","j","","6","4","5","false","false","true","both pre & post","LEFT","RIGHT","j","1","false","","","",""
"","html-keyboard-response","296","496074","0.0-480.0","3kwsdp2q","1200","800","","","","","","","","","","","null","+","Fixation - short","","null","","","","","","","","","","","","","","","","",""
"","canvas-keyboard-response","297","497338","0.0-481.0","3kwsdp2q","","","","","","","","","","","","","null","Cue","Cue","","null","","6","4","","","false","","","","","","","","","","",""
"","html-keyboard-response","298","498101","0.0-482.0","3kwsdp2q","1200","800","","","","","","","","","","","null","+","Fixation - short","","null","","","","","","","","","","","","","","","","",""
"","html-keyboard-response","299","498856","0.0-483.0","3kwsdp2q","","","","","","","","","","","","","754","vrm","Diagnostic trial","","j","","6","5","5","true","false","true","both pre & post","LEFT","RIGHT","j","1","false","","","",""
"","html-keyboard-response","300","499620","0.0-486.0","3kwsdp2q","1200","800","","","","","","","","","","","null","+","Fixation - short","","null","","","","","","","","","","","","","","","","",""
"","html-keyboard-response","301","500512","0.0-487.0","3kwsdp2q","","","","","","","","","","","","","891","eeu","Inducer trial","","f","","6","","","","true","","","","","j","0","","false","RIGHT","",""
"","call-function","302","500513","0.0-489.0-0.0","3kwsdp2q","","","","","","","","","","","","","","","","","","","","","","","","","","","","","","","","","",""
"","html-keyboard-response","303","500823","0.0-489.0-1.0","3kwsdp2q","1200","800","","","","","","","","","","","null","Wrong","Feedback","","null","","","","","","","","","","","","","","","","",""
"","call-function","304","500824","0.0-489.0-2.0","3kwsdp2q","","","","","","","","","","","","","","","","","","","","","","","","","","","","","","","","","",""
"","html-keyboard-response","305","501588","0.0-490.0","3kwsdp2q","1200","800","","","","","","","","","","","null","+","Fixation - short","","null","","","","","","","","","","","","","","","","",""
"","html-keyboard-response","306","519664","0.0-491.0","3kwsdp2q","","","","","","","","","","","","","18088","If idy press RIGHT | If rif press LEFT","Inducer instructions",""," ","","7","","","","","","","","","","","","","","",""
"","html-keyboard-response","307","520428","0.0-492.0","3kwsdp2q","1200","800","","","","","","","","","","","null","+","Fixation - short","","null","","","","","","","","","","","","","","","","",""
"","html-keyboard-response","308","521268","0.0-493.0","3kwsdp2q","","","","","","","","","","","","","839","idy","Diagnostic trial","","f","","7","0","10","false","false","false","both pre & post","RIGHT","LEFT","f","1","false","","","",""
"","html-keyboard-response","309","522028","0.0-496.0","3kwsdp2q","1200","800","","","","","","","","","","","null","+","Fixation - short","","null","","","","","","","","","","","","","","","","",""
"","html-keyboard-response","310","522756","0.0-497.0","3kwsdp2q","","","","","","","","","","","","","728","rif","Diagnostic trial","","f","","7","1","10","false","false","false","both pre & post","LEFT","LEFT","f","1","true","","","",""
"","html-keyboard-response","311","523520","0.0-500.0","3kwsdp2q","1200","800","","","","","","","","","","","null","+","Fixation - short","","null","","","","","","","","","","","","","","","","",""
"","html-keyboard-response","312","524139","0.0-501.0","3kwsdp2q","","","","","","","","","","","","","619","idy","Diagnostic trial","","j","","7","2","10","false","false","true","both pre & post","RIGHT","RIGHT","j","1","true","","","",""
"","html-keyboard-response","313","524904","0.0-504.0","3kwsdp2q","1200","800","","","","","","","","","","","null","+","Fixation - short","","null","","","","","","","","","","","","","","","","",""
"","html-keyboard-response","314","525627","0.0-505.0","3kwsdp2q","","","","","","","","","","","","","723","rif","Diagnostic trial","","f","","7","3","10","false","false","false","both pre & post","LEFT","LEFT","f","1","true","","","",""
"","html-keyboard-response","315","526392","0.0-508.0","3kwsdp2q","1200","800","","","","","","","","","","","null","+","Fixation - short","","null","","","","","","","","","","","","","","","","",""
"","html-keyboard-response","316","527243","0.0-509.0","3kwsdp2q","","","","","","","","","","","","","851","idy","Diagnostic trial","","j","","7","4","10","false","false","true","both pre & post","RIGHT","RIGHT","j","1","true","","","",""
"","html-keyboard-response","317","528007","0.0-512.0","3kwsdp2q","1200","800","","","","","","","","","","","null","+","Fixation - short","","null","","","","","","","","","","","","","","","","",""
"","html-keyboard-response","318","528571","0.0-513.0","3kwsdp2q","","","","","","","","","","","","","563","idy","Diagnostic trial","","f","","7","5","10","false","false","false","both pre & post","RIGHT","LEFT","f","1","false","","","",""
"","html-keyboard-response","319","529334","0.0-516.0","3kwsdp2q","1200","800","","","","","","","","","","","null","+","Fixation - short","","null","","","","","","","","","","","","","","","","",""
"","html-keyboard-response","320","530111","0.0-517.0","3kwsdp2q","","","","","","","","","","","","","776","rif","Diagnostic trial","","f","","7","6","10","false","false","false","both pre & post","LEFT","LEFT","f","1","true","","","",""
"","html-keyboard-response","321","530874","0.0-520.0","3kwsdp2q","1200","800","","","","","","","","","","","null","+","Fixation - short","","null","","","","","","","","","","","","","","","","",""
"","html-keyboard-response","322","531515","0.0-521.0","3kwsdp2q","","","","","","","","","","","","","640","idy","Diagnostic trial","","j","","7","7","10","false","false","true","both pre & post","RIGHT","RIGHT","j","1","true","","","",""
"","html-keyboard-response","323","532278","0.0-524.0","3kwsdp2q","1200","800","","","","","","","","","","","null","+","Fixation - short","","null","","","","","","","","","","","","","","","","",""
"","html-keyboard-response","324","533027","0.0-525.0","3kwsdp2q","","","","","","","","","","","","","748","idy","Diagnostic trial","","f","","7","8","10","false","false","false","both pre & post","RIGHT","LEFT","f","1","false","","","",""
"","html-keyboard-response","325","533790","0.0-528.0","3kwsdp2q","1200","800","","","","","","","","","","","null","+","Fixation - short","","null","","","","","","","","","","","","","","","","",""
"","html-keyboard-response","326","534563","0.0-529.0","3kwsdp2q","","","","","","","","","","","","","772","rif","Diagnostic trial","","f","","7","9","10","false","false","false","both pre & post","LEFT","LEFT","f","1","true","","","",""
"","html-keyboard-response","327","535327","0.0-532.0","3kwsdp2q","1200","800","","","","","","","","","","","null","+","Fixation - short","","null","","","","","","","","","","","","","","","","",""
"","canvas-keyboard-response","328","536590","0.0-533.0","3kwsdp2q","","","","","","","","","","","","","null","Cue","Cue","","null","","7","9","","","false","","","","","","","","","","",""
"","html-keyboard-response","329","537353","0.0-534.0","3kwsdp2q","1200","800","","","","","","","","","","","null","+","Fixation - short","","null","","","","","","","","","","","","","","","","",""
"","html-keyboard-response","330","538083","0.0-535.0","3kwsdp2q","","","","","","","","","","","","","729","idy","Diagnostic trial","","j","","7","10","10","true","false","true","both pre & post","RIGHT","RIGHT","j","1","true","","","",""
"","html-keyboard-response","331","538847","0.0-538.0","3kwsdp2q","1200","800","","","","","","","","","","","null","+","Fixation - short","","null","","","","","","","","","","","","","","","","",""
"","html-keyboard-response","332","539611","0.0-539.0","3kwsdp2q","","","","","","","","","","","","","764","idy","Diagnostic trial","","f","","7","11","10","true","false","false","both pre & post","RIGHT","LEFT","f","1","false","","","",""
"","html-keyboard-response","333","540375","0.0-542.0","3kwsdp2q","1200","800","","","","","","","","","","","null","+","Fixation - short","","null","","","","","","","","","","","","","","","","",""
"","html-keyboard-response","334","541184","0.0-543.0","3kwsdp2q","","","","","","","","","","","","","807","rif","Diagnostic trial","","f","","7","12","10","true","false","false","both pre & post","LEFT","LEFT","f","1","true","","","",""
"","html-keyboard-response","335","541946","0.0-546.0","3kwsdp2q","1200","800","","","","","","","","","","","null","+","Fixation - short","","null","","","","","","","","","","","","","","","","",""
"","html-keyboard-response","336","542619","0.0-547.0","3kwsdp2q","","","","","","","","","","","","","672","rif","Diagnostic trial","","f","","7","13","10","true","false","false","both pre & post","LEFT","LEFT","f","1","true","","","",""
"","html-keyboard-response","337","543383","0.0-550.0","3kwsdp2q","1200","800","","","","","","","","","","","null","+","Fixation - short","","null","","","","","","","","","","","","","","","","",""
"","html-keyboard-response","338","544091","0.0-551.0","3kwsdp2q","","","","","","","","","","","","","708","rif","Inducer trial","","j","","7","","","","true","","","","","f","0","","false","LEFT","",""
"","call-function","339","544092","0.0-553.0-0.0","3kwsdp2q","","","","","","","","","","","","","","","","","","","","","","","","","","","","","","","","","",""
"","html-keyboard-response","340","544404","0.0-553.0-1.0","3kwsdp2q","1200","800","","","","","","","","","","","null","Wrong","Feedback","","null","","","","","","","","","","","","","","","","",""
"","call-function","341","544404","0.0-553.0-2.0","3kwsdp2q","","","","","","","","","","","","","","","","","","","","","","","","","","","","","","","","","",""
"","html-keyboard-response","342","545168","0.0-554.0","3kwsdp2q","1200","800","","","","","","","","","","","null","+","Fixation - short","","null","","","","","","","","","","","","","","","","",""
"","html-keyboard-response","343","565181","0.0-555.0","3kwsdp2q","","","","","","","","","","","","","null","If dij press RIGHT | If dlg press LEFT","Inducer instructions","","null","","8","","","","","","","","","","","","","","",""
"","html-keyboard-response","344","565944","0.0-556.0","3kwsdp2q","1200","800","","","","","","","","","","","null","+","Fixation - short","","null","","","","","","","","","","","","","","","","",""
"","html-keyboard-response","345","567959","0.0-557.0","3kwsdp2q","","","","","","","","","","","","","null","dlg","Diagnostic trial","","null","","8","0","7","false","false","false","both pre & post","LEFT","LEFT","f","NaN","true","","","",""
"","call-function","346","567960","0.0-558.0-0.0","3kwsdp2q","","","","","","","","","","","","","","","","","","","","","","","","","","","","","","","","","",""
"","html-keyboard-response","347","568270","0.0-558.0-1.0","3kwsdp2q","1200","800","","","","","","","","","","","null","Slow","Feedback","","null","","","","","","","","","","","","","","","","",""
"","call-function","348","568271","0.0-558.0-2.0","3kwsdp2q","","","","","","","","","","","","","","","","","","","","","","","","","","","","","","","","","",""
"","html-keyboard-response","349","569035","0.0-560.0","3kwsdp2q","1200","800","","","","","","","","","","","null","+","Fixation - short","","null","","","","","","","","","","","","","","","","",""
"","html-keyboard-response","350","569755","0.0-561.0","3kwsdp2q","","","","","","","","","","","","","719","dlg","Diagnostic trial","","j","","8","1","7","false","false","true","both pre & post","LEFT","RIGHT","j","1","false","","","",""
"","html-keyboard-response","351","570519","0.0-564.0","3kwsdp2q","1200","800","","","","","","","","","","","null","+","Fixation - short","","null","","","","","","","","","","","","","","","","",""
"","html-keyboard-response","352","571291","0.0-565.0","3kwsdp2q","","","","","","","","","","","","","771","dlg","Diagnostic trial","","f","","8","2","7","false","false","false","both pre & post","LEFT","LEFT","f","1","true","","","",""
"","html-keyboard-response","353","572054","0.0-568.0","3kwsdp2q","1200","800","","","","","","","","","","","null","+","Fixation - short","","null","","","","","","","","","","","","","","","","",""
"","html-keyboard-response","354","572827","0.0-569.0","3kwsdp2q","","","","","","","","","","","","","772","dij","Diagnostic trial","","f","","8","3","7","false","false","false","both pre & post","RIGHT","LEFT","f","1","false","","","",""
"","html-keyboard-response","355","573592","0.0-572.0","3kwsdp2q","1200","800","","","","","","","","","","","null","+","Fixation - short","","null","","","","","","","","","","","","","","","","",""
"","html-keyboard-response","356","574403","0.0-573.0","3kwsdp2q","","","","","","","","","","","","","810","dij","Diagnostic trial","","f","","8","4","7","false","false","false","both pre & post","RIGHT","LEFT","f","1","false","","","",""
"","html-keyboard-response","357","575155","0.0-576.0","3kwsdp2q","1200","800","","","","","","","","","","","null","+","Fixation - short","","null","","","","","","","","","","","","","","","","",""
"","html-keyboard-response","358","575779","0.0-577.0","3kwsdp2q","","","","","","","","","","","","","623","dij","Diagnostic trial","","f","","8","5","7","false","false","false","both pre & post","RIGHT","LEFT","f","1","false","","","",""
"","html-keyboard-response","359","576532","0.0-580.0","3kwsdp2q","1200","800","","","","","","","","","","","null","+","Fixation - short","","null","","","","","","","","","","","","","","","","",""
"","html-keyboard-response","360","577067","0.0-581.0","3kwsdp2q","","","","","","","","","","","","","535","dij","Diagnostic trial","","f","","8","6","7","false","false","false","both pre & post","RIGHT","LEFT","f","1","false","","","",""
"","html-keyboard-response","361","577823","0.0-584.0","3kwsdp2q","1200","800","","","","","","","","","","","null","+","Fixation - short","","null","","","","","","","","","","","","","","","","",""
"","canvas-keyboard-response","362","579087","0.0-585.0","3kwsdp2q","","","","","","","","","","","","","null","Cue","Cue","","null","","8","6","","","false","","","","","","","","","","",""
"","html-keyboard-response","363","579863","0.0-586.0","3kwsdp2q","1200","800","","","","","","","","","","","null","+","Fixation - short","","null","","","","","","","","","","","","","","","","",""
"","html-keyboard-response","364","580860","0.0-587.0","3kwsdp2q","","","","","","","","","","","","","996","dlg","Inducer trial","","j","","8","","","","true","","","","","f","0","","false","LEFT","",""
"","call-function","365","580860","0.0-589.0-0.0","3kwsdp2q","","","","","","","","","","","","","","","","","","","","","","","","","","","","","","","","","",""
"","html-keyboard-response","366","581172","0.0-589.0-1.0","3kwsdp2q","1200","800","","","","","","","","","","","null","Wrong","Feedback","","null","","","","","","","","","","","","","","","","",""
"","call-function","367","581173","0.0-589.0-2.0","3kwsdp2q","","","","","","","","","","","","","","","","","","","","","","","","","","","","","","","","","",""
"","html-keyboard-response","368","581936","0.0-590.0","3kwsdp2q","1200","800","","","","","","","","","","","null","+","Fixation - short","","null","","","","","","","","","","","","","","","","",""
"","html-keyboard-response","369","583528","0.0-591.0","3kwsdp2q","","","","","","","","","","","","","1591","If sdw press RIGHT | If pbz press LEFT","Inducer instructions",""," ","","9","","","","","","","","","","","","","","",""
"","html-keyboard-response","370","584291","0.0-592.0","3kwsdp2q","1200","800","","","","","","","","","","","null","+","Fixation - short","","null","","","","","","","","","","","","","","","","",""
"","html-keyboard-response","371","585096","0.0-593.0","3kwsdp2q","","","","","","","","","","","","","804","pbz","Diagnostic trial","","j","","9","0","4","false","false","true","both pre & post","LEFT","RIGHT","j","1","false","","","",""
"","html-keyboard-response","372","585859","0.0-596.0","3kwsdp2q","1200","800","","","","","","","","","","","null","+","Fixation - short","","null","","","","","","","","","","","","","","","","",""
"","html-keyboard-response","373","586624","0.0-597.0","3kwsdp2q","","","","","","","","","","","","","764","sdw","Diagnostic trial","","j","","9","1","4","false","false","true","both pre & post","RIGHT","RIGHT","j","1","true","","","",""
"","html-keyboard-response","374","587388","0.0-600.0","3kwsdp2q","1200","800","","","","","","","","","","","null","+","Fixation - short","","null","","","","","","","","","","","","","","","","",""
"","html-keyboard-response","375","587951","0.0-601.0","3kwsdp2q","","","","","","","","","","","","","563","sdw","Diagnostic trial","","j","","9","2","4","false","false","true","both pre & post","RIGHT","RIGHT","j","1","true","","","",""
"","html-keyboard-response","376","588715","0.0-604.0","3kwsdp2q","1200","800","","","","","","","","","","","null","+","Fixation - short","","null","","","","","","","","","","","","","","","","",""
"","html-keyboard-response","377","589199","0.0-605.0","3kwsdp2q","","","","","","","","","","","","","483","pbz","Diagnostic trial","","j","","9","3","4","false","false","true","both pre & post","LEFT","RIGHT","j","1","false","","","",""
"","html-keyboard-response","378","589963","0.0-608.0","3kwsdp2q","1200","800","","","","","","","","","","","null","+","Fixation - short","","null","","","","","","","","","","","","","","","","",""
"","canvas-keyboard-response","379","591226","0.0-609.0","3kwsdp2q","","","","","","","","","","","","","null","Cue","Cue","","null","","9","3","","","false","","","","","","","","","","",""
"","html-keyboard-response","380","591989","0.0-610.0","3kwsdp2q","1200","800","","","","","","","","","","","null","+","Fixation - short","","null","","","","","","","","","","","","","","","","",""
"","html-keyboard-response","381","592668","0.0-611.0","3kwsdp2q","","","","","","","","","","","","","678","pbz","Diagnostic trial","","j","","9","4","4","true","false","true","both pre & post","LEFT","RIGHT","j","1","false","","","",""
"","html-keyboard-response","382","593431","0.0-614.0","3kwsdp2q","1200","800","","","","","","","","","","","null","+","Fixation - short","","null","","","","","","","","","","","","","","","","",""
"","html-keyboard-response","383","594096","0.0-615.0","3kwsdp2q","","","","","","","","","","","","","663","pbz","Diagnostic trial","","f","","9","5","4","true","false","false","both pre & post","LEFT","LEFT","f","1","true","","","",""
"","html-keyboard-response","384","594859","0.0-618.0","3kwsdp2q","1200","800","","","","","","","","","","","null","+","Fixation - short","","null","","","","","","","","","","","","","","","","",""
"","html-keyboard-response","385","595615","0.0-619.0","3kwsdp2q","","","","","","","","","","","","","756","sdw","Diagnostic trial","","j","","9","6","4","true","false","true","both pre & post","RIGHT","RIGHT","j","1","true","","","",""
"","html-keyboard-response","386","596379","0.0-622.0","3kwsdp2q","1200","800","","","","","","","","","","","null","+","Fixation - short","","null","","","","","","","","","","","","","","","","",""
"","html-keyboard-response","387","596992","0.0-623.0","3kwsdp2q","","","","","","","","","","","","","612","sdw","Diagnostic trial","","j","","9","7","4","true","false","true","both pre & post","RIGHT","RIGHT","j","1","true","","","",""
"","html-keyboard-response","388","597755","0.0-626.0","3kwsdp2q","1200","800","","","","","","","","","","","null","+","Fixation - short","","null","","","","","","","","","","","","","","","","",""
"","html-keyboard-response","389","598831","0.0-627.0","3kwsdp2q","","","","","","","","","","","","","1076","sdw","Inducer trial","","f","","9","","","","true","","","","","j","0","","false","RIGHT","",""
"","call-function","390","598832","0.0-629.0-0.0","3kwsdp2q","","","","","","","","","","","","","","","","","","","","","","","","","","","","","","","","","",""
"","html-keyboard-response","391","599141","0.0-629.0-1.0","3kwsdp2q","1200","800","","","","","","","","","","","null","Wrong","Feedback","","null","","","","","","","","","","","","","","","","",""
"","call-function","392","599142","0.0-629.0-2.0","3kwsdp2q","","","","","","","","","","","","","","","","","","","","","","","","","","","","","","","","","",""
"","html-keyboard-response","393","599894","0.0-630.0","3kwsdp2q","1200","800","","","","","","","","","","","null","+","Fixation - short","","null","","","","","","","","","","","","","","","","",""
"","html-keyboard-response","394","601088","0.0-631.0","3kwsdp2q","","","","","","","","","","","","","1192","If hrc press RIGHT | If gdn press LEFT","Inducer instructions",""," ","","10","","","","","","","","","","","","","","",""
"","html-keyboard-response","395","601851","0.0-632.0","3kwsdp2q","1200","800","","","","","","","","","","","null","+","Fixation - short","","null","","","","","","","","","","","","","","","","",""
"","html-keyboard-response","396","602860","0.0-633.0","3kwsdp2q","","","","","","","","","","","","","1007","gdn","Diagnostic trial","","j","","10","0","5","false","false","true","both pre & post","LEFT","RIGHT","j","1","false","","","",""
"","html-keyboard-response","397","603624","0.0-636.0","3kwsdp2q","1200","800","","","","","","","","","","","null","+","Fixation - short","","null","","","","","","","","","","","","","","","","",""
"","html-keyboard-response","398","604279","0.0-637.0","3kwsdp2q","","","","","","","","","","","","","655","gdn","Diagnostic trial","","f","","10","1","5","false","false","false","both pre & post","LEFT","LEFT","f","1","true","","","",""
"","html-keyboard-response","399","605042","0.0-640.0","3kwsdp2q","1200","800","","","","","","","","","","","null","+","Fixation - short","","null","","","","","","","","","","","","","","","","",""
"","html-keyboard-response","400","605744","0.0-641.0","3kwsdp2q","","","","","","","","","","","","","701","gdn","Diagnostic trial","","j","","10","2","5","false","false","true","both pre & post","LEFT","RIGHT","j","1","false","","","",""
"","html-keyboard-response","401","606507","0.0-644.0","3kwsdp2q","1200","800","","","","","","","","","","","null","+","Fixation - short","","null","","","","","","","","","","","","","","","","",""
"","html-keyboard-response","402","607168","0.0-645.0","3kwsdp2q","","","","","","","","","","","","","660","hrc","Diagnostic trial","","f","","10","3","5","false","false","false","both pre & post","RIGHT","LEFT","f","1","false","","","",""
"","html-keyboard-response","403","607931","0.0-648.0","3kwsdp2q","1200","800","","","","","","","","","","","null","+","Fixation - short","","null","","","","","","","","","","","","","","","","",""
"","html-keyboard-response","404","608424","0.0-649.0","3kwsdp2q","","","","","","","","","","","","","491","hrc","Diagnostic trial","","f","","10","4","5","false","false","false","both pre & post","RIGHT","LEFT","f","1","false","","","",""
"","html-keyboard-response","405","609187","0.0-652.0","3kwsdp2q","1200","800","","","","","","","","","","","null","+","Fixation - short","","null","","","","","","","","","","","","","","","","",""
"","canvas-keyboard-response","406","610450","0.0-653.0","3kwsdp2q","","","","","","","","","","","","","null","Cue","Cue","","null","","10","4","","","false","","","","","","","","","","",""
"","html-keyboard-response","407","611213","0.0-654.0","3kwsdp2q","1200","800","","","","","","","","","","","null","+","Fixation - short","","null","","","","","","","","","","","","","","","","",""
"","html-keyboard-response","408","611928","0.0-655.0","3kwsdp2q","","","","","","","","","","","","","713","hrc","Diagnostic trial","","j","","10","5","5","true","false","true","both pre & post","RIGHT","RIGHT","j","1","true","","","",""
"","html-keyboard-response","409","612691","0.0-658.0","3kwsdp2q","1200","800","","","","","","","","","","","null","+","Fixation - short","","null","","","","","","","","","","","","","","","","",""
"","html-keyboard-response","410","613444","0.0-659.0","3kwsdp2q","","","","","","","","","","","","","753","hrc","Diagnostic trial","","f","","10","6","5","true","false","false","both pre & post","RIGHT","LEFT","f","1","false","","","",""
"","html-keyboard-response","411","614208","0.0-662.0","3kwsdp2q","1200","800","","","","","","","","","","","null","+","Fixation - short","","null","","","","","","","","","","","","","","","","",""
"","html-keyboard-response","412","614807","0.0-663.0","3kwsdp2q","","","","","","","","","","","","","599","hrc","Diagnostic trial","","f","","10","7","5","true","false","false","both pre & post","RIGHT","LEFT","f","1","false","","","",""
"","html-keyboard-response","413","615572","0.0-666.0","3kwsdp2q","1200","800","","","","","","","","","","","null","+","Fixation - short","","null","","","","","","","","","","","","","","","","",""
"","html-keyboard-response","414","616135","0.0-667.0","3kwsdp2q","","","","","","","","","","","","","563","gdn","Diagnostic trial","","j","","10","8","5","true","false","true","both pre & post","LEFT","RIGHT","j","1","false","","","",""
"","html-keyboard-response","415","616900","0.0-670.0","3kwsdp2q","1200","800","","","","","","","","","","","null","+","Fixation - short","","null","","","","","","","","","","","","","","","","",""
"","html-keyboard-response","416","617720","0.0-671.0","3kwsdp2q","","","","","","","","","","","","","819","gdn","Inducer trial","","j","","10","","","","true","","","","","f","0","","false","LEFT","",""
"","call-function","417","617720","0.0-673.0-0.0","3kwsdp2q","","","","","","","","","","","","","","","","","","","","","","","","","","","","","","","","","",""
"","html-keyboard-response","418","618030","0.0-673.0-1.0","3kwsdp2q","1200","800","","","","","","","","","","","null","Wrong","Feedback","","null","","","","","","","","","","","","","","","","",""
"","call-function","419","618031","0.0-673.0-2.0","3kwsdp2q","","","","","","","","","","","","","","","","","","","","","","","","","","","","","","","","","",""
"","html-keyboard-response","420","618795","0.0-674.0","3kwsdp2q","1200","800","","","","","","","","","","","null","+","Fixation - short","","null","","","","","","","","","","","","","","","","",""
"","html-keyboard-response","421","621352","0.0-675.0","3kwsdp2q","","","","","","","","","","","","","2556","If geb press RIGHT | If hlb press LEFT","Inducer instructions",""," ","","11","","","","","","","","","","","","","","",""
"","html-keyboard-response","422","622116","0.0-676.0","3kwsdp2q","1200","800","","","","","","","","","","","null","+","Fixation - short","","null","","","","","","","","","","","","","","","","",""
"","html-keyboard-response","423","622863","0.0-677.0","3kwsdp2q","","","","","","","","","","","","","747","hlb","Diagnostic trial","","j","","11","0","5","false","false","true","both pre & post","LEFT","RIGHT","j","1","false","","","",""
"","html-keyboard-response","424","623627","0.0-680.0","3kwsdp2q","1200","800","","","","","","","","","","","null","+","Fixation - short","","null","","","","","","","","","","","","","","","","",""
"","html-keyboard-response","425","624268","0.0-681.0","3kwsdp2q","","","","","","","","","","","","","640","geb","Diagnostic trial","","f","","11","1","5","false","false","false","both pre & post","RIGHT","LEFT","f","1","false","","","",""
"","html-keyboard-response","426","625034","0.0-684.0","3kwsdp2q","1200","800","","","","","","","","","","","null","+","Fixation - short","","null","","","","","","","","","","","","","","","","",""
"","html-keyboard-response","427","625888","0.0-685.0","3kwsdp2q","","","","","","","","","","","","","853","geb","Diagnostic trial","","j","","11","2","5","false","false","true","both pre & post","RIGHT","RIGHT","j","1","true","","","",""
"","html-keyboard-response","428","626651","0.0-688.0","3kwsdp2q","1200","800","","","","","","","","","","","null","+","Fixation - short","","null","","","","","","","","","","","","","","","","",""
"","html-keyboard-response","429","627303","0.0-689.0","3kwsdp2q","","","","","","","","","","","","","652","geb","Diagnostic trial","","f","","11","3","5","false","false","false","both pre & post","RIGHT","LEFT","f","1","false","","","",""
"","html-keyboard-response","430","628067","0.0-692.0","3kwsdp2q","1200","800","","","","","","","","","","","null","+","Fixation - short","","null","","","","","","","","","","","","","","","","",""
"","html-keyboard-response","431","628656","0.0-693.0","3kwsdp2q","","","","","","","","","","","","","587","hlb","Diagnostic trial","","j","","11","4","5","false","false","true","both pre & post","LEFT","RIGHT","j","1","false","","","",""
"","html-keyboard-response","432","629419","0.0-696.0","3kwsdp2q","1200","800","","","","","","","","","","","null","+","Fixation - short","","null","","","","","","","","","","","","","","","","",""
"","canvas-keyboard-response","433","630674","0.0-697.0","3kwsdp2q","","","","","","","","","","","","","null","Cue","Cue","","null","","11","4","","","false","","","","","","","","","","",""
"","html-keyboard-response","434","631437","0.0-698.0","3kwsdp2q","1200","800","","","","","","","","","","","null","+","Fixation - short","","null","","","","","","","","","","","","","","","","",""
"","html-keyboard-response","435","632423","0.0-699.0","3kwsdp2q","","","","","","","","","","","","","985","geb","Diagnostic trial","","j","","11","5","5","true","false","true","both pre & post","RIGHT","RIGHT","j","1","true","","","",""
"","html-keyboard-response","436","633186","0.0-702.0","3kwsdp2q","1200","800","","","","","","","","","","","null","+","Fixation - short","","null","","","","","","","","","","","","","","","","",""
"","html-keyboard-response","437","633920","0.0-703.0","3kwsdp2q","","","","","","","","","","","","","733","hlb","Diagnostic trial","","f","","11","6","5","true","false","false","both pre & post","LEFT","LEFT","f","1","true","","","",""
"","html-keyboard-response","438","634683","0.0-706.0","3kwsdp2q","1200","800","","","","","","","","","","","null","+","Fixation - short","","null","","","","","","","","","","","","","","","","",""
"","html-keyboard-response","439","635316","0.0-707.0","3kwsdp2q","","","","","","","","","","","","","632","geb","Diagnostic trial","","f","","11","7","5","true","false","false","both pre & post","RIGHT","LEFT","f","1","false","","","",""
"","html-keyboard-response","440","636080","0.0-710.0","3kwsdp2q","1200","800","","","","","","","","","","","null","+","Fixation - short","","null","","","","","","","","","","","","","","","","",""
"","html-keyboard-response","441","636951","0.0-711.0","3kwsdp2q","","","","","","","","","","","","","871","geb","Inducer trial","","j","","11","","","","true","","","","","j","1","","false","RIGHT","",""
"","html-keyboard-response","442","637714","0.0-714.0","3kwsdp2q","1200","800","","","","","","","","","","","null","+","Fixation - short","","null","","","","","","","","","","","","","","","","",""
"","html-keyboard-response","443","639127","0.0-715.0","3kwsdp2q","","","","","","","","","","","","","1412","If mmo press RIGHT | If wrz press LEFT","Inducer instructions",""," ","","12","","","","","","","","","","","","","","",""
"","html-keyboard-response","444","639891","0.0-716.0","3kwsdp2q","1200","800","","","","","","","","","","","null","+","Fixation - short","","null","","","","","","","","","","","","","","","","",""
"","html-keyboard-response","445","640840","0.0-717.0","3kwsdp2q","","","","","","","","","","","","","948","mmo","Diagnostic trial","","j","","12","0","9","false","false","true","both pre & post","RIGHT","RIGHT","j","1","true","","","",""
"","html-keyboard-response","446","641603","0.0-720.0","3kwsdp2q","1200","800","","","","","","","","","","","null","+","Fixation - short","","null","","","","","","","","","","","","","","","","",""
"","html-keyboard-response","447","642248","0.0-721.0","3kwsdp2q","","","","","","","","","","","","","644","mmo","Diagnostic trial","","j","","12","1","9","false","false","false","both pre & post","RIGHT","LEFT","f","0","false","","","",""
"","call-function","448","642248","0.0-723.0-0.0","3kwsdp2q","","","","","","","","","","","","","","","","","","","","","","","","","","","","","","","","","",""
"","html-keyboard-response","449","642560","0.0-723.0-1.0","3kwsdp2q","1200","800","","","","","","","","","","","null","Wrong","Feedback","","null","","","","","","","","","","","","","","","","",""
"","call-function","450","642561","0.0-723.0-2.0","3kwsdp2q","","","","","","","","","","","","","","","","","","","","","","","","","","","","","","","","","",""
"","html-keyboard-response","451","643327","0.0-724.0","3kwsdp2q","1200","800","","","","","","","","","","","null","+","Fixation - short","","null","","","","","","","","","","","","","","","","",""
"","html-keyboard-response","452","644304","0.0-725.0","3kwsdp2q","","","","","","","","","","","","","976","wrz","Diagnostic trial","","j","","12","2","9","false","false","true","both pre & post","LEFT","RIGHT","j","1","false","","","",""
"","html-keyboard-response","453","645067","0.0-728.0","3kwsdp2q","1200","800","","","","","","","","","","","null","+","Fixation - short","","null","","","","","","","","","","","","","","","","",""
"","html-keyboard-response","454","645836","0.0-729.0","3kwsdp2q","","","","","","","","","","","","","768","wrz","Diagnostic trial","","j","","12","3","9","false","false","true","both pre & post","LEFT","RIGHT","j","1","false","","","",""
"","html-keyboard-response","455","646600","0.0-732.0","3kwsdp2q","1200","800","","","","","","","","","","","null","+","Fixation - short","","null","","","","","","","","","","","","","","","","",""
"","html-keyboard-response","456","647264","0.0-733.0","3kwsdp2q","","","","","","","","","","","","","662","mmo","Diagnostic trial","","j","","12","4","9","false","false","true","both pre & post","RIGHT","RIGHT","j","1","true","","","",""
"","html-keyboard-response","457","648027","0.0-736.0","3kwsdp2q","1200","800","","","","","","","","","","","null","+","Fixation - short","","null","","","","","","","","","","","","","","","","",""
"","html-keyboard-response","458","648576","0.0-737.0","3kwsdp2q","","","","","","","","","","","","","548","mmo","Diagnostic trial","","f","","12","5","9","false","false","false","both pre & post","RIGHT","LEFT","f","1","false","","","",""
"","html-keyboard-response","459","649341","0.0-740.0","3kwsdp2q","1200","800","","","","","","","","","","","null","+","Fixation - short","","null","","","","","","","","","","","","","","","","",""
"","html-keyboard-response","460","649871","0.0-741.0","3kwsdp2q","","","","","","","","","","","","","530","mmo","Diagnostic trial","","f","","12","6","9","false","false","true","both pre & post","RIGHT","RIGHT","j","0","true","","","",""
"","call-function","461","649872","0.0-743.0-0.0","3kwsdp2q","","","","","","","","","","","","","","","","","","","","","","","","","","","","","","","","","",""
"","html-keyboard-response","462","650182","0.0-743.0-1.0","3kwsdp2q","1200","800","","","","","","","","","","","null","Wrong","Feedback","","null","","","","","","","","","","","","","","","","",""
"","call-function","463","650182","0.0-743.0-2.0","3kwsdp2q","","","","","","","","","","","","","","","","","","","","","","","","","","","","","","","","","",""
