"value","trial_type","trial_index","time_elapsed","internal_node_id","id","width","height","webaudio","browser","browser_version","mobile","os","fullscreen","vsync_rate","webcam","microphone","view_history","rt","stimulus","trial_info","success","response","exp_parameters","inducer_run","diagnostic_run","cue_num","post_cue","inducer_trial","italic","forced_equal_run","correct_inducer_response_side","correct_diag_response_side","correct_response_key","correct_response","congruent","force_equal","correct_indu_response_side","accuracy","interactive"
"","call-function","0","20","0.0-0.0","uhkj9p6g","","","","","","","","","","","","","","","","","","","","","","","","","","","","","","","","","",""
"","browser-check","1","1029","0.0-1.0","uhkj9p6g","1920","927","true","firefox","116.0.0","false","Windows 10","true","60.12","true","true","","","","","","","","","","","","","","","","","","","","","","",""
"","instructions","2","36700","0.0-2.0","uhkj9p6g","","","","","","","","","","","","[{""page_index"":0,""viewing_time"":14558},{""page_index"":1,""viewing_time"":16857},{""page_index"":2,""viewing_time"":4255}]","35671","The experiment and consent","The experiment and consent","","","","","","","","","","","","","","","","","","",""
"","fullscreen","3","42261","0.0-3.0","uhkj9p6g","","","","","","","","","","","","","4494","","Full screen","true","","","","","","","","","","","","","","","","","",""
"","instructions","4","69101","0.0-4.0","uhkj9p6g","","","","","","","","","","","","[{""page_index"":0,""viewing_time"":15070},{""page_index"":1,""viewing_time"":11769}]","26839","Instructions","Basic overview explanation","","","","","","","","","","","","","","","","","","",""
"","html-keyboard-response","5","78046","0.0-5.0","uhkj9p6g","","","","","","","","","","","","","7435","If italic press LEFT | If upright press RIGHT","Diagnostic instructions",""," ","{""debug"":false,""skip_instructions"":false,""skip_practice"":false,""save_local_data"":false,""studu_name"":""exp2"",""default_background_colour"":""#cccccc"",""wrong_response_colour"":""#d22d2d"",""instruction_delay"":20000,""trial_duration"":2000,""short_fixation"":750,""long_fixation"":1500,""wrong_response_delay"":300,""too_slow_delay"":300,""instruction_font_size"":""24px"",""general_font_size"":""42px"",""fixation_size"":""48px"",""allowed_responses"":[""f"",""j""],""cue_min_length"":0,""cue_max_length"":4,""tot_post_cue_len"":72,""cue_colour"":""blue"",""cue_shape"":""Square"",""cue_size"":70,""cue_duration"":1250,""avg_number_of_cues"":3,""inducer_colour"":""red"",""number_of_inducers"":24,""pre_cue_italic_forced_equal"":true,""post_cue_italic_forced_equal"":true,""prac_diagnostic_rounds"":16,""prac_inducer_rounds"":6,""prac_cue_rounds"":16,""prac_post_cue_num"":3}","","","","","","","","","","","","","","","",""
"","html-keyboard-response","6","78808","0.0-6.0","uhkj9p6g","1920","1080","","","","","","","","","","","null","+","Fixation - short","","null","","","","","","","","","","","","","","","","",""
"","html-keyboard-response","7","79256","0.0-7.0","uhkj9p6g","","","","","","","","","","","","","445","cui","Diagnostic practice","","f","","Diagnostic practice","0","-84","true","false","true","prac equal","RIGHT","LEFT","f","1","false","","","",""
"","html-keyboard-response","8","80010","0.0-10.0","uhkj9p6g","1920","1080","","","","","","","","","","","null","+","Fixation - short","","null","","","","","","","","","","","","","","","","",""
"","html-keyboard-response","9","80471","0.0-11.0","uhkj9p6g","","","","","","","","","","","","","460","gfm","Diagnostic practice","","f","","Diagnostic practice","1","-84","true","false","true","prac equal","LEFT","LEFT","f","1","true","","","",""
"","html-keyboard-response","10","81230","0.0-14.0","uhkj9p6g","1920","1080","","","","","","","","","","","null","+","Fixation - short","","null","","","","","","","","","","","","","","","","",""
"","html-keyboard-response","11","81634","0.0-15.0","uhkj9p6g","","","","","","","","","","","","","402","gfm","Diagnostic practice","","f","","Diagnostic practice","2","-84","true","false","true","prac equal","LEFT","LEFT","f","1","true","","","",""
"","html-keyboard-response","12","82400","0.0-18.0","uhkj9p6g","1920","1080","","","","","","","","","","","null","+","Fixation - short","","null","","","","","","","","","","","","","","","","",""
"","html-keyboard-response","13","82855","0.0-19.0","uhkj9p6g","","","","","","","","","","","","","454","gfm","Diagnostic practice","","j","","Diagnostic practice","3","-84","true","false","false","prac equal","LEFT","RIGHT","j","1","false","","","",""
"","html-keyboard-response","14","83620","0.0-22.0","uhkj9p6g","1920","1080","","","","","","","","","","","null","+","Fixation - short","","null","","","","","","","","","","","","","","","","",""
"","html-keyboard-response","15","84091","0.0-23.0","uhkj9p6g","","","","","","","","","","","","","469","gfm","Diagnostic practice","","f","","Diagnostic practice","4","-84","true","false","true","prac equal","LEFT","LEFT","f","1","true","","","",""
"","html-keyboard-response","16","84851","0.0-26.0","uhkj9p6g","1920","1080","","","","","","","","","","","null","+","Fixation - short","","null","","","","","","","","","","","","","","","","",""
"","html-keyboard-response","17","85354","0.0-27.0","uhkj9p6g","","","","","","","","","","","","","502","gfm","Diagnostic practice","","j","","Diagnostic practice","5","-84","true","false","false","prac equal","LEFT","RIGHT","j","1","false","","","",""
"","html-keyboard-response","18","86109","0.0-30.0","uhkj9p6g","1920","1080","","","","","","","","","","","null","+","Fixation - short","","null","","","","","","","","","","","","","","","","",""
"","html-keyboard-response","19","86563","0.0-31.0","uhkj9p6g","","","","","","","","","","","","","452","cui","Diagnostic practice","","f","","Diagnostic practice","6","-84","true","false","true","prac equal","RIGHT","LEFT","f","1","false","","","",""
"","html-keyboard-response","20","87358","0.0-34.0","uhkj9p6g","1920","1080","","","","","","","","","","","null","+","Fixation - short","","null","","","","","","","","","","","","","","","","",""
"","html-keyboard-response","21","87763","0.0-35.0","uhkj9p6g","","","","","","","","","","","","","402","cui","Diagnostic practice","","j","","Diagnostic practice","7","-84","true","false","false","prac equal","RIGHT","RIGHT","j","1","true","","","",""
"","html-keyboard-response","22","88528","0.0-38.0","uhkj9p6g","1920","1080","","","","","","","","","","","null","+","Fixation - short","","null","","","","","","","","","","","","","","","","",""
"","html-keyboard-response","23","89043","0.0-39.0","uhkj9p6g","","","","","","","","","","","","","512","gfm","Diagnostic practice","","j","","Diagnostic practice","8","-84","true","false","false","prac equal","LEFT","RIGHT","j","1","false","","","",""
"","html-keyboard-response","24","89799","0.0-42.0","uhkj9p6g","1920","1080","","","","","","","","","","","null","+","Fixation - short","","null","","","","","","","","","","","","","","","","",""
"","html-keyboard-response","25","90185","0.0-43.0","uhkj9p6g","","","","","","","","","","","","","384","gfm","Diagnostic practice","","f","","Diagnostic practice","9","-84","true","false","true","prac equal","LEFT","LEFT","f","1","true","","","",""
"","html-keyboard-response","26","90948","0.0-46.0","uhkj9p6g","1920","1080","","","","","","","","","","","null","+","Fixation - short","","null","","","","","","","","","","","","","","","","",""
"","html-keyboard-response","27","91418","0.0-47.0","uhkj9p6g","","","","","","","","","","","","","468","gfm","Diagnostic practice","","j","","Diagnostic practice","10","-84","true","false","false","prac equal","LEFT","RIGHT","j","1","false","","","",""
"","html-keyboard-response","28","92181","0.0-50.0","uhkj9p6g","1920","1080","","","","","","","","","","","null","+","Fixation - short","","null","","","","","","","","","","","","","","","","",""
"","html-keyboard-response","29","92704","0.0-51.0","uhkj9p6g","","","","","","","","","","","","","522","cui","Diagnostic practice","","j","","Diagnostic practice","11","-84","true","false","false","prac equal","RIGHT","RIGHT","j","1","true","","","",""
"","html-keyboard-response","30","93469","0.0-54.0","uhkj9p6g","1920","1080","","","","","","","","","","","null","+","Fixation - short","","null","","","","","","","","","","","","","","","","",""
"","html-keyboard-response","31","93939","0.0-55.0","uhkj9p6g","","","","","","","","","","","","","468","cui","Diagnostic practice","","f","","Diagnostic practice","12","-84","true","false","true","prac equal","RIGHT","LEFT","f","1","false","","","",""
"","html-keyboard-response","32","94707","0.0-58.0","uhkj9p6g","1920","1080","","","","","","","","","","","null","+","Fixation - short","","null","","","","","","","","","","","","","","","","",""
"","html-keyboard-response","33","95203","0.0-59.0","uhkj9p6g","","","","","","","","","","","","","494","gfm","Diagnostic practice","","f","","Diagnostic practice","13","-84","true","false","true","prac equal","LEFT","LEFT","f","1","true","","","",""
"","html-keyboard-response","34","95959","0.0-62.0","uhkj9p6g","1920","1080","","","","","","","","","","","null","+","Fixation - short","","null","","","","","","","","","","","","","","","","",""
"","html-keyboard-response","35","96539","0.0-63.0","uhkj9p6g","","","","","","","","","","","","","578","cui","Diagnostic practice","","j","","Diagnostic practice","14","-84","true","false","false","prac equal","RIGHT","RIGHT","j","1","true","","","",""
"","html-keyboard-response","36","97291","0.0-66.0","uhkj9p6g","1920","1080","","","","","","","","","","","null","+","Fixation - short","","null","","","","","","","","","","","","","","","","",""
"","html-keyboard-response","37","97707","0.0-67.0","uhkj9p6g","","","","","","","","","","","","","414","gfm","Diagnostic practice","","j","","Diagnostic practice","15","-84","true","false","false","prac equal","LEFT","RIGHT","j","1","false","","","",""
"","html-keyboard-response","38","98463","0.0-70.0","uhkj9p6g","1920","1080","","","","","","","","","","","null","+","Fixation - short","","null","","","","","","","","","","","","","","","","",""
"","instructions","39","116557","0.0-71.0","uhkj9p6g","","","","","","","","","","","","[{""page_index"":0,""viewing_time"":18092}]","18092","Instructions","Final experiment explanation","","","","","","","","","","","","","","","","","","",""
"","html-keyboard-response","40","125051","0.0-72.0","uhkj9p6g","","","","","","","","","","","","","6988","If jup press LEFT | If cer press RIGHT","Inducer practice",""," ","","Practice","","","","","","","","","","","","","","",""
"","html-keyboard-response","41","125807","0.0-73.0","uhkj9p6g","1920","1080","","","","","","","","","","","null","+","Fixation - short","","null","","","","","","","","","","","","","","","","",""
"","html-keyboard-response","42","126259","0.0-74.0","uhkj9p6g","","","","","","","","","","","","","450","cer","Inducer practice","","j","","Practice","","","","true","","","","","j","1","","true","RIGHT","",""
"","html-keyboard-response","43","127055","0.0-77.0","uhkj9p6g","1920","1080","","","","","","","","","","","null","+","Fixation - short","","null","","","","","","","","","","","","","","","","",""
"","html-keyboard-response","44","130968","0.0-78.0","uhkj9p6g","","","","","","","","","","","","","3912","If bsh press LEFT | If nga press RIGHT","Inducer practice",""," ","","Practice","","","","","","","","","","","","","","",""
"","html-keyboard-response","45","131733","0.0-79.0","uhkj9p6g","1920","1080","","","","","","","","","","","null","+","Fixation - short","","null","","","","","","","","","","","","","","","","",""
"","html-keyboard-response","46","132131","0.0-80.0","uhkj9p6g","","","","","","","","","","","","","394","bsh","Inducer practice","","f","","Practice","","","","true","","","","","f","1","","true","LEFT","",""
"","html-keyboard-response","47","132990","0.0-83.0","uhkj9p6g","1920","1080","","","","","","","","","","","null","+","Fixation - short","","null","","","","","","","","","","","","","","","","",""
"","html-keyboard-response","48","135135","0.0-84.0","uhkj9p6g","","","","","","","","","","","","","2144","If snx press LEFT | If gdn press RIGHT","Inducer practice",""," ","","Practice","","","","","","","","","","","","","","",""
"","html-keyboard-response","49","135893","0.0-85.0","uhkj9p6g","1920","1080","","","","","","","","","","","null","+","Fixation - short","","null","","","","","","","","","","","","","","","","",""
"","html-keyboard-response","50","136402","0.0-86.0","uhkj9p6g","","","","","","","","","","","","","507","snx","Inducer practice","","f","","Practice","","","","true","","","","","f","1","","true","LEFT","",""
"","html-keyboard-response","51","137157","0.0-89.0","uhkj9p6g","1920","1080","","","","","","","","","","","null","+","Fixation - short","","null","","","","","","","","","","","","","","","","",""
"","html-keyboard-response","52","139604","0.0-90.0","uhkj9p6g","","","","","","","","","","","","","2443","If edc press LEFT | If vsc press RIGHT","Inducer practice",""," ","","Practice","","","","","","","","","","","","","","",""
"","html-keyboard-response","53","140366","0.0-91.0","uhkj9p6g","1920","1080","","","","","","","","","","","null","+","Fixation - short","","null","","","","","","","","","","","","","","","","",""
"","html-keyboard-response","54","140785","0.0-92.0","uhkj9p6g","","","","","","","","","","","","","417","edc","Inducer practice","","f","","Practice","","","","true","","","","","f","1","","true","LEFT","",""
"","html-keyboard-response","55","141606","0.0-95.0","uhkj9p6g","1920","1080","","","","","","","","","","","null","+","Fixation - short","","null","","","","","","","","","","","","","","","","",""
"","html-keyboard-response","56","143032","0.0-96.0","uhkj9p6g","","","","","","","","","","","","","1424","If glp press LEFT | If wwt press RIGHT","Inducer practice",""," ","","Practice","","","","","","","","","","","","","","",""
"","html-keyboard-response","57","143788","0.0-97.0","uhkj9p6g","1920","1080","","","","","","","","","","","null","+","Fixation - short","","null","","","","","","","","","","","","","","","","",""
"","html-keyboard-response","58","144168","0.0-98.0","uhkj9p6g","","","","","","","","","","","","","379","wwt","Inducer practice","","j","","Practice","","","","true","","","","","j","1","","true","RIGHT","",""
"","html-keyboard-response","59","144929","0.0-101.0","uhkj9p6g","1920","1080","","","","","","","","","","","null","+","Fixation - short","","null","","","","","","","","","","","","","","","","",""
"","html-keyboard-response","60","149563","0.0-102.0","uhkj9p6g","","","","","","","","","","","","","4634","If dul press LEFT | If uus press RIGHT","Inducer practice",""," ","","Practice","","","","","","","","","","","","","","",""
"","html-keyboard-response","61","150326","0.0-103.0","uhkj9p6g","1920","1080","","","","","","","","","","","null","+","Fixation - short","","null","","","","","","","","","","","","","","","","",""
"","html-keyboard-response","62","150859","0.0-104.0","uhkj9p6g","","","","","","","","","","","","","530","uus","Inducer practice","","j","","Practice","","","","true","","","","","j","1","","true","RIGHT","",""
"","html-keyboard-response","63","151629","0.0-107.0","uhkj9p6g","1920","1080","","","","","","","","","","","null","+","Fixation - short","","null","","","","","","","","","","","","","","","","",""
"","instructions","64","178548","0.0-108.0","uhkj9p6g","","","","","","","","","","","","[{""page_index"":0,""viewing_time"":26918}]","26918","Instructions","Final experiment explanation","","","","","","","","","","","","","","","","","","",""
"","html-keyboard-response","65","184964","0.0-109.0","uhkj9p6g","","","","","","","","","","","","","4906","If ila press LEFT | If dgv press RIGHT","Cue practice",""," ","","Practice","","","","","","","","","","","","","","",""
"","html-keyboard-response","66","185720","0.0-110.0","uhkj9p6g","1920","1080","","","","","","","","","","","null","+","Fixation - short","","null","","","","","","","","","","","","","","","","",""
"","html-keyboard-response","67","186179","0.0-111.0","uhkj9p6g","","","","","","","","","","","","","456","dgv","Cue practice","","f","","Practice","0","13","false","false","true","both pre & post","RIGHT","LEFT","f","1","false","","","",""
"","html-keyboard-response","68","186938","0.0-114.0","uhkj9p6g","1920","1080","","","","","","","","","","","null","+","Fixation - short","","null","","","","","","","","","","","","","","","","",""
"","html-keyboard-response","69","187515","0.0-115.0","uhkj9p6g","","","","","","","","","","","","","574","ila","Cue practice","","f","","Practice","1","13","false","false","true","both pre & post","LEFT","LEFT","f","1","true","","","",""
"","html-keyboard-response","70","188272","0.0-118.0","uhkj9p6g","1920","1080","","","","","","","","","","","null","+","Fixation - short","","null","","","","","","","","","","","","","","","","",""
"","html-keyboard-response","71","188895","0.0-119.0","uhkj9p6g","","","","","","","","","","","","","622","ila","Cue practice","","f","","Practice","2","13","false","false","true","both pre & post","LEFT","LEFT","f","1","true","","","",""
"","html-keyboard-response","72","189661","0.0-122.0","uhkj9p6g","1920","1080","","","","","","","","","","","null","+","Fixation - short","","null","","","","","","","","","","","","","","","","",""
"","html-keyboard-response","73","190256","0.0-123.0","uhkj9p6g","","","","","","","","","","","","","594","dgv","Cue practice","","f","","Practice","3","13","false","false","true","both pre & post","RIGHT","LEFT","f","1","false","","","",""
"","html-keyboard-response","74","191019","0.0-126.0","uhkj9p6g","1920","1080","","","","","","","","","","","null","+","Fixation - short","","null","","","","","","","","","","","","","","","","",""
"","html-keyboard-response","75","191529","0.0-127.0","uhkj9p6g","","","","","","","","","","","","","509","ila","Cue practice","","j","","Practice","4","13","false","false","false","both pre & post","LEFT","RIGHT","j","1","false","","","",""
"","html-keyboard-response","76","192283","0.0-130.0","uhkj9p6g","1920","1080","","","","","","","","","","","null","+","Fixation - short","","null","","","","","","","","","","","","","","","","",""
"","html-keyboard-response","77","192923","0.0-131.0","uhkj9p6g","","","","","","","","","","","","","638","ila","Cue practice","","j","","Practice","5","13","false","false","false","both pre & post","LEFT","RIGHT","j","1","false","","","",""
"","html-keyboard-response","78","193684","0.0-134.0","uhkj9p6g","1920","1080","","","","","","","","","","","null","+","Fixation - short","","null","","","","","","","","","","","","","","","","",""
"","html-keyboard-response","79","194235","0.0-135.0","uhkj9p6g","","","","","","","","","","","","","549","dgv","Cue practice","","f","","Practice","6","13","false","false","true","both pre & post","RIGHT","LEFT","f","1","false","","","",""
"","html-keyboard-response","80","195002","0.0-138.0","uhkj9p6g","1920","1080","","","","","","","","","","","null","+","Fixation - short","","null","","","","","","","","","","","","","","","","",""
"","html-keyboard-response","81","195587","0.0-139.0","uhkj9p6g","","","","","","","","","","","","","584","ila","Cue practice","","f","","Practice","7","13","false","false","true","both pre & post","LEFT","LEFT","f","1","true","","","",""
"","html-keyboard-response","82","196340","0.0-142.0","uhkj9p6g","1920","1080","","","","","","","","","","","null","+","Fixation - short","","null","","","","","","","","","","","","","","","","",""
"","html-keyboard-response","83","196794","0.0-143.0","uhkj9p6g","","","","","","","","","","","","","452","dgv","Cue practice","","j","","Practice","8","13","false","false","false","both pre & post","RIGHT","RIGHT","j","1","true","","","",""
"","html-keyboard-response","84","197558","0.0-146.0","uhkj9p6g","1920","1080","","","","","","","","","","","null","+","Fixation - short","","null","","","","","","","","","","","","","","","","",""
"","html-keyboard-response","85","198147","0.0-147.0","uhkj9p6g","","","","","","","","","","","","","586","dgv","Cue practice","","j","","Practice","9","13","false","false","false","both pre & post","RIGHT","RIGHT","j","1","true","","","",""
"","html-keyboard-response","86","198908","0.0-150.0","uhkj9p6g","1920","1080","","","","","","","","","","","null","+","Fixation - short","","null","","","","","","","","","","","","","","","","",""
"","html-keyboard-response","87","199379","0.0-151.0","uhkj9p6g","","","","","","","","","","","","","469","ila","Cue practice","","j","","Practice","10","13","false","false","false","both pre & post","LEFT","RIGHT","j","1","false","","","",""
"","html-keyboard-response","88","200148","0.0-154.0","uhkj9p6g","1920","1080","","","","","","","","","","","null","+","Fixation - short","","null","","","","","","","","","","","","","","","","",""
"","html-keyboard-response","89","200699","0.0-155.0","uhkj9p6g","","","","","","","","","","","","","548","ila","Cue practice","","f","","Practice","11","13","false","false","true","both pre & post","LEFT","LEFT","f","1","true","","","",""
"","html-keyboard-response","90","201452","0.0-158.0","uhkj9p6g","1920","1080","","","","","","","","","","","null","+","Fixation - short","","null","","","","","","","","","","","","","","","","",""
"","html-keyboard-response","91","202002","0.0-159.0","uhkj9p6g","","","","","","","","","","","","","549","ila","Cue practice","","j","","Practice","12","13","false","false","false","both pre & post","LEFT","RIGHT","j","1","false","","","",""
"","html-keyboard-response","92","202769","0.0-162.0","uhkj9p6g","1920","1080","","","","","","","","","","","null","+","Fixation - short","","null","","","","","","","","","","","","","","","","",""
"","canvas-keyboard-response","93","204042","0.0-163.0","uhkj9p6g","","","","","","","","","","","","","null","Cue","Cue","","null","","Practice","12","","","false","","","","","","","","","","",""
"","html-keyboard-response","94","204807","0.0-164.0","uhkj9p6g","1920","1080","","","","","","","","","","","null","+","Fixation - short","","null","","","","","","","","","","","","","","","","",""
"","html-keyboard-response","95","205331","0.0-165.0","uhkj9p6g","","","","","","","","","","","","","522","ila","Cue practice","","f","","Practice","13","13","true","false","true","both pre & post","LEFT","LEFT","f","1","true","","","",""
"","html-keyboard-response","96","206092","0.0-168.0","uhkj9p6g","1920","1080","","","","","","","","","","","null","+","Fixation - short","","null","","","","","","","","","","","","","","","","",""
"","html-keyboard-response","97","206623","0.0-169.0","uhkj9p6g","","","","","","","","","","","","","531","ila","Cue practice","","f","","Practice","14","13","true","false","true","both pre & post","LEFT","LEFT","f","1","true","","","",""
"","html-keyboard-response","98","207379","0.0-172.0","uhkj9p6g","1920","1080","","","","","","","","","","","null","+","Fixation - short","","null","","","","","","","","","","","","","","","","",""
"","html-keyboard-response","99","207968","0.0-173.0","uhkj9p6g","","","","","","","","","","","","","586","ila","Cue practice","","j","","Practice","15","13","true","false","false","both pre & post","LEFT","RIGHT","j","1","false","","","",""
"","html-keyboard-response","100","208728","0.0-176.0","uhkj9p6g","1920","1080","","","","","","","","","","","null","+","Fixation - short","","null","","","","","","","","","","","","","","","","",""
"","html-keyboard-response","101","209567","0.0-177.0","uhkj9p6g","","","","","","","","","","","","","839","ila","Inducer practice","","f","","Practice","","","","true","","","","","f","1","","false","LEFT","",""
"","html-keyboard-response","102","210332","0.0-180.0","uhkj9p6g","1920","1080","","","","","","","","","","","null","+","Fixation - short","","null","","","","","","","","","","","","","","","","",""
"","instructions","103","223225","0.0-181.0","uhkj9p6g","","","","","","","","","","","","[{""page_index"":0,""viewing_time"":12891}]","12891","End practice","End of practice","","","","","","","","","","","","","","","","","","",""
"","html-keyboard-response","104","226227","0.0-182.0","uhkj9p6g","1920","1080","","","","","","","","","","","null","+","Fixation - long","","null","","","","","","","","","","","","","","","","",""
"","html-keyboard-response","105","230991","0.0-183.0","uhkj9p6g","","","","","","","","","","","","","4764","If wrz press LEFT | If psl press RIGHT","Inducer instructions",""," ","","0","","","","","","","","","","","","","","",""
"","html-keyboard-response","106","231756","0.0-184.0","uhkj9p6g","1920","1080","","","","","","","","","","","null","+","Fixation - short","","null","","","","","","","","","","","","","","","","",""
"","html-keyboard-response","107","232431","0.0-185.0","uhkj9p6g","","","","","","","","","","","","","675","psl","Diagnostic trial","","j","","0","0","12","false","false","false","both pre & post","RIGHT","RIGHT","j","1","true","","","",""
"","html-keyboard-response","108","233192","0.0-188.0","uhkj9p6g","1920","1080","","","","","","","","","","","null","+","Fixation - short","","null","","","","","","","","","","","","","","","","",""
"","html-keyboard-response","109","233719","0.0-189.0","uhkj9p6g","","","","","","","","","","","","","526","psl","Diagnostic trial","","j","","0","1","12","false","false","false","both pre & post","RIGHT","RIGHT","j","1","true","","","",""
"","html-keyboard-response","110","234479","0.0-192.0","uhkj9p6g","1920","1080","","","","","","","","","","","null","+","Fixation - short","","null","","","","","","","","","","","","","","","","",""
"","html-keyboard-response","111","235007","0.0-193.0","uhkj9p6g","","","","","","","","","","","","","527","psl","Diagnostic trial","","f","","0","2","12","false","false","true","both pre & post","RIGHT","LEFT","f","1","false","","","",""
"","html-keyboard-response","112","235766","0.0-196.0","uhkj9p6g","1920","1080","","","","","","","","","","","null","+","Fixation - short","","null","","","","","","","","","","","","","","","","",""
"","html-keyboard-response","113","236355","0.0-197.0","uhkj9p6g","","","","","","","","","","","","","586","psl","Diagnostic trial","","j","","0","3","12","false","false","false","both pre & post","RIGHT","RIGHT","j","1","true","","","",""
"","html-keyboard-response","114","237115","0.0-200.0","uhkj9p6g","1920","1080","","","","","","","","","","","null","+","Fixation - short","","null","","","","","","","","","","","","","","","","",""
"","html-keyboard-response","115","237631","0.0-201.0","uhkj9p6g","","","","","","","","","","","","","515","wrz","Diagnostic trial","","f","","0","4","12","false","false","true","both pre & post","LEFT","LEFT","f","1","true","","","",""
"","html-keyboard-response","116","238387","0.0-204.0","uhkj9p6g","1920","1080","","","","","","","","","","","null","+","Fixation - short","","null","","","","","","","","","","","","","","","","",""
"","html-keyboard-response","117","238851","0.0-205.0","uhkj9p6g","","","","","","","","","","","","","461","psl","Diagnostic trial","","j","","0","5","12","false","false","false","both pre & post","RIGHT","RIGHT","j","1","true","","","",""
"","html-keyboard-response","118","239637","0.0-208.0","uhkj9p6g","1920","1080","","","","","","","","","","","null","+","Fixation - short","","null","","","","","","","","","","","","","","","","",""
"","html-keyboard-response","119","240055","0.0-209.0","uhkj9p6g","","","","","","","","","","","","","418","psl","Diagnostic trial","","f","","0","6","12","false","false","true","both pre & post","RIGHT","LEFT","f","1","false","","","",""
"","html-keyboard-response","120","240808","0.0-212.0","uhkj9p6g","1920","1080","","","","","","","","","","","null","+","Fixation - short","","null","","","","","","","","","","","","","","","","",""
"","html-keyboard-response","121","241551","0.0-213.0","uhkj9p6g","","","","","","","","","","","","","742","psl","Diagnostic trial","","j","","0","7","12","false","false","false","both pre & post","RIGHT","RIGHT","j","1","true","","","",""
"","html-keyboard-response","122","242312","0.0-216.0","uhkj9p6g","1920","1080","","","","","","","","","","","null","+","Fixation - short","","null","","","","","","","","","","","","","","","","",""
"","html-keyboard-response","123","242955","0.0-217.0","uhkj9p6g","","","","","","","","","","","","","639","wrz","Diagnostic trial","","j","","0","8","12","false","false","false","both pre & post","LEFT","RIGHT","j","1","false","","","",""
"","html-keyboard-response","124","243746","0.0-220.0","uhkj9p6g","1920","1080","","","","","","","","","","","null","+","Fixation - short","","null","","","","","","","","","","","","","","","","",""
"","html-keyboard-response","125","244267","0.0-221.0","uhkj9p6g","","","","","","","","","","","","","519","psl","Diagnostic trial","","f","","0","9","12","false","false","true","both pre & post","RIGHT","LEFT","f","1","false","","","",""
"","html-keyboard-response","126","245019","0.0-224.0","uhkj9p6g","1920","1080","","","","","","","","","","","null","+","Fixation - short","","null","","","","","","","","","","","","","","","","",""
"","html-keyboard-response","127","245451","0.0-225.0","uhkj9p6g","","","","","","","","","","","","","428","psl","Diagnostic trial","","f","","0","10","12","false","false","true","both pre & post","RIGHT","LEFT","f","1","false","","","",""
"","html-keyboard-response","128","246206","0.0-228.0","uhkj9p6g","1920","1080","","","","","","","","","","","null","+","Fixation - short","","null","","","","","","","","","","","","","","","","",""
"","html-keyboard-response","129","246650","0.0-229.0","uhkj9p6g","","","","","","","","","","","","","443","wrz","Diagnostic trial","","f","","0","11","12","false","false","true","both pre & post","LEFT","LEFT","f","1","true","","","",""
"","html-keyboard-response","130","247409","0.0-232.0","uhkj9p6g","1920","1080","","","","","","","","","","","null","+","Fixation - short","","null","","","","","","","","","","","","","","","","",""
"","canvas-keyboard-response","131","248760","0.0-233.0","uhkj9p6g","","","","","","","","","","","","","null","Cue","Cue","","null","","0","11","","","false","","","","","","","","","","",""
"","html-keyboard-response","132","249513","0.0-234.0","uhkj9p6g","1920","1080","","","","","","","","","","","null","+","Fixation - short","","null","","","","","","","","","","","","","","","","",""
"","html-keyboard-response","133","250047","0.0-235.0","uhkj9p6g","","","","","","","","","","","","","534","psl","Diagnostic trial","","f","","0","12","12","true","false","true","both pre & post","RIGHT","LEFT","f","1","false","","","",""
"","html-keyboard-response","134","250802","0.0-238.0","uhkj9p6g","1920","1080","","","","","","","","","","","null","+","Fixation - short","","null","","","","","","","","","","","","","","","","",""
"","html-keyboard-response","135","251322","0.0-239.0","uhkj9p6g","","","","","","","","","","","","","518","wrz","Diagnostic trial","","j","","0","13","12","true","false","false","both pre & post","LEFT","RIGHT","j","1","false","","","",""
"","html-keyboard-response","136","252083","0.0-242.0","uhkj9p6g","1920","1080","","","","","","","","","","","null","+","Fixation - short","","null","","","","","","","","","","","","","","","","",""
"","html-keyboard-response","137","252755","0.0-243.0","uhkj9p6g","","","","","","","","","","","","","669","psl","Diagnostic trial","","j","","0","14","12","true","false","false","both pre & post","RIGHT","RIGHT","j","1","true","","","",""
"","html-keyboard-response","138","253522","0.0-246.0","uhkj9p6g","1920","1080","","","","","","","","","","","null","+","Fixation - short","","null","","","","","","","","","","","","","","","","",""
"","html-keyboard-response","139","254130","0.0-247.0","uhkj9p6g","","","","","","","","","","","","","607","wrz","Diagnostic trial","","j","","0","15","12","true","false","false","both pre & post","LEFT","RIGHT","j","1","false","","","",""
"","html-keyboard-response","140","254955","0.0-250.0","uhkj9p6g","1920","1080","","","","","","","","","","","null","+","Fixation - short","","null","","","","","","","","","","","","","","","","",""
"","html-keyboard-response","141","255968","0.0-251.0","uhkj9p6g","","","","","","","","","","","","","1012","psl","Inducer trial","","j","","0","","","","true","","","","","j","1","","false","RIGHT","",""
"","html-keyboard-response","142","256726","0.0-254.0","uhkj9p6g","1920","1080","","","","","","","","","","","null","+","Fixation - short","","null","","","","","","","","","","","","","","","","",""
"","html-keyboard-response","143","262135","0.0-255.0","uhkj9p6g","","","","","","","","","","","","","5409","If drk press LEFT | If jey press RIGHT","Inducer instructions",""," ","","1","","","","","","","","","","","","","","",""
"","html-keyboard-response","144","262888","0.0-256.0","uhkj9p6g","1920","1080","","","","","","","","","","","null","+","Fixation - short","","null","","","","","","","","","","","","","","","","",""
"","html-keyboard-response","145","263632","0.0-257.0","uhkj9p6g","","","","","","","","","","","","","743","jey","Diagnostic trial","","j","","1","0","4","false","false","false","both pre & post","RIGHT","RIGHT","j","1","true","","","",""
"","html-keyboard-response","146","264392","0.0-260.0","uhkj9p6g","1920","1080","","","","","","","","","","","null","+","Fixation - short","","null","","","","","","","","","","","","","","","","",""
"","html-keyboard-response","147","264803","0.0-261.0","uhkj9p6g","","","","","","","","","","","","","408","drk","Diagnostic trial","","f","","1","1","4","false","false","true","both pre & post","LEFT","LEFT","f","1","true","","","",""
"","html-keyboard-response","148","265561","0.0-264.0","uhkj9p6g","1920","1080","","","","","","","","","","","null","+","Fixation - short","","null","","","","","","","","","","","","","","","","",""
"","html-keyboard-response","149","266035","0.0-265.0","uhkj9p6g","","","","","","","","","","","","","470","jey","Diagnostic trial","","j","","1","2","4","false","false","false","both pre & post","RIGHT","RIGHT","j","1","true","","","",""
"","html-keyboard-response","150","266797","0.0-268.0","uhkj9p6g","1920","1080","","","","","","","","","","","null","+","Fixation - short","","null","","","","","","","","","","","","","","","","",""
"","html-keyboard-response","151","267506","0.0-269.0","uhkj9p6g","","","","","","","","","","","","","707","jey","Diagnostic trial","","f","","1","3","4","false","false","true","both pre & post","RIGHT","LEFT","f","1","false","","","",""
"","html-keyboard-response","152","268270","0.0-272.0","uhkj9p6g","1920","1080","","","","","","","","","","","null","+","Fixation - short","","null","","","","","","","","","","","","","","","","",""
"","canvas-keyboard-response","153","269540","0.0-273.0","uhkj9p6g","","","","","","","","","","","","","null","Cue","Cue","","null","","1","3","","","false","","","","","","","","","","",""
"","html-keyboard-response","154","270302","0.0-274.0","uhkj9p6g","1920","1080","","","","","","","","","","","null","+","Fixation - short","","null","","","","","","","","","","","","","","","","",""
"","html-keyboard-response","155","270807","0.0-275.0","uhkj9p6g","","","","","","","","","","","","","505","jey","Diagnostic trial","","f","","1","4","4","true","false","true","both pre & post","RIGHT","LEFT","f","1","false","","","",""
"","html-keyboard-response","156","271560","0.0-278.0","uhkj9p6g","1920","1080","","","","","","","","","","","null","+","Fixation - short","","null","","","","","","","","","","","","","","","","",""
"","html-keyboard-response","157","272055","0.0-279.0","uhkj9p6g","","","","","","","","","","","","","494","jey","Diagnostic trial","","f","","1","5","4","true","false","true","both pre & post","RIGHT","LEFT","f","1","false","","","",""
"","html-keyboard-response","158","272810","0.0-282.0","uhkj9p6g","1920","1080","","","","","","","","","","","null","+","Fixation - short","","null","","","","","","","","","","","","","","","","",""
"","html-keyboard-response","159","273407","0.0-283.0","uhkj9p6g","","","","","","","","","","","","","597","jey","Inducer trial","","j","","1","","","","true","","","","","j","1","","false","RIGHT","",""
"","html-keyboard-response","160","274166","0.0-286.0","uhkj9p6g","1920","1080","","","","","","","","","","","null","+","Fixation - short","","null","","","","","","","","","","","","","","","","",""
"","html-keyboard-response","161","281850","0.0-287.0","uhkj9p6g","","","","","","","","","","","","","7682","If yrp press LEFT | If mvv press RIGHT","Inducer instructions",""," ","","2","","","","","","","","","","","","","","",""
"","html-keyboard-response","162","282612","0.0-288.0","uhkj9p6g","1920","1080","","","","","","","","","","","null","+","Fixation - short","","null","","","","","","","","","","","","","","","","",""
"","html-keyboard-response","163","283434","0.0-289.0","uhkj9p6g","","","","","","","","","","","","","819","mvv","Diagnostic trial","","j","","2","0","6","false","false","false","both pre & post","RIGHT","RIGHT","j","1","true","","","",""
"","html-keyboard-response","164","284201","0.0-292.0","uhkj9p6g","1920","1080","","","","","","","","","","","null","+","Fixation - short","","null","","","","","","","","","","","","","","","","",""
"","html-keyboard-response","165","284695","0.0-293.0","uhkj9p6g","","","","","","","","","","","","","494","mvv","Diagnostic trial","","f","","2","1","6","false","false","true","both pre & post","RIGHT","LEFT","f","1","false","","","",""
"","html-keyboard-response","166","285451","0.0-296.0","uhkj9p6g","1920","1080","","","","","","","","","","","null","+","Fixation - short","","null","","","","","","","","","","","","","","","","",""
"","html-keyboard-response","167","285939","0.0-297.0","uhkj9p6g","","","","","","","","","","","","","486","mvv","Diagnostic trial","","j","","2","2","6","false","false","false","both pre & post","RIGHT","RIGHT","j","1","true","","","",""
"","html-keyboard-response","168","286691","0.0-300.0","uhkj9p6g","1920","1080","","","","","","","","","","","null","+","Fixation - short","","null","","","","","","","","","","","","","","","","",""
"","html-keyboard-response","169","287146","0.0-301.0","uhkj9p6g","","","","","","","","","","","","","454","yrp","Diagnostic trial","","f","","2","3","6","false","false","true","both pre & post","LEFT","LEFT","f","1","true","","","",""
"","html-keyboard-response","170","287910","0.0-304.0","uhkj9p6g","1920","1080","","","","","","","","","","","null","+","Fixation - short","","null","","","","","","","","","","","","","","","","",""
"","html-keyboard-response","171","288379","0.0-305.0","uhkj9p6g","","","","","","","","","","","","","466","mvv","Diagnostic trial","","f","","2","4","6","false","false","true","both pre & post","RIGHT","LEFT","f","1","false","","","",""
"","html-keyboard-response","172","289143","0.0-308.0","uhkj9p6g","1920","1080","","","","","","","","","","","null","+","Fixation - short","","null","","","","","","","","","","","","","","","","",""
"","html-keyboard-response","173","289699","0.0-309.0","uhkj9p6g","","","","","","","","","","","","","553","yrp","Diagnostic trial","","j","","2","5","6","false","false","false","both pre & post","LEFT","RIGHT","j","1","false","","","",""
"","html-keyboard-response","174","290461","0.0-312.0","uhkj9p6g","1920","1080","","","","","","","","","","","null","+","Fixation - short","","null","","","","","","","","","","","","","","","","",""
"","canvas-keyboard-response","175","291864","0.0-313.0","uhkj9p6g","","","","","","","","","","","","","null","Cue","Cue","","null","","2","5","","","false","","","","","","","","","","",""
"","html-keyboard-response","176","292619","0.0-314.0","uhkj9p6g","1920","1080","","","","","","","","","","","null","+","Fixation - short","","null","","","","","","","","","","","","","","","","",""
"","html-keyboard-response","177","292991","0.0-315.0","uhkj9p6g","","","","","","","","","","","","","372","yrp","Diagnostic trial","","f","","2","6","6","true","false","true","both pre & post","LEFT","LEFT","f","1","true","","","",""
"","html-keyboard-response","178","293752","0.0-318.0","uhkj9p6g","1920","1080","","","","","","","","","","","null","+","Fixation - short","","null","","","","","","","","","","","","","","","","",""
"","html-keyboard-response","179","295071","0.0-319.0","uhkj9p6g","","","","","","","","","","","","","1319","yrp","Inducer trial","","f","","2","","","","true","","","","","f","1","","false","LEFT","",""
"","html-keyboard-response","180","295824","0.0-322.0","uhkj9p6g","1920","1080","","","","","","","","","","","null","+","Fixation - short","","null","","","","","","","","","","","","","","","","",""
"","html-keyboard-response","181","299835","0.0-323.0","uhkj9p6g","","","","","","","","","","","","","4008","If mts press LEFT | If zpl press RIGHT","Inducer instructions",""," ","","3","","","","","","","","","","","","","","",""
"","html-keyboard-response","182","300602","0.0-324.0","uhkj9p6g","1920","1080","","","","","","","","","","","null","+","Fixation - short","","null","","","","","","","","","","","","","","","","",""
"","html-keyboard-response","183","301280","0.0-325.0","uhkj9p6g","","","","","","","","","","","","","677","mts","Diagnostic trial","","f","","3","0","4","false","false","true","both pre & post","LEFT","LEFT","f","1","true","","","",""
"","html-keyboard-response","184","302083","0.0-328.0","uhkj9p6g","1920","1080","","","","","","","","","","","null","+","Fixation - short","","null","","","","","","","","","","","","","","","","",""
"","html-keyboard-response","185","302648","0.0-329.0","uhkj9p6g","","","","","","","","","","","","","564","zpl","Diagnostic trial","","j","","3","1","4","false","false","false","both pre & post","RIGHT","RIGHT","j","1","true","","","",""
"","html-keyboard-response","186","303406","0.0-332.0","uhkj9p6g","1920","1080","","","","","","","","","","","null","+","Fixation - short","","null","","","","","","","","","","","","","","","","",""
"","html-keyboard-response","187","303971","0.0-333.0","uhkj9p6g","","","","","","","","","","","","","563","mts","Diagnostic trial","","f","","3","2","4","false","false","true","both pre & post","LEFT","LEFT","f","1","true","","","",""
"","html-keyboard-response","188","304723","0.0-336.0","uhkj9p6g","1920","1080","","","","","","","","","","","null","+","Fixation - short","","null","","","","","","","","","","","","","","","","",""
"","html-keyboard-response","189","305215","0.0-337.0","uhkj9p6g","","","","","","","","","","","","","492","zpl","Diagnostic trial","","f","","3","3","4","false","false","true","both pre & post","RIGHT","LEFT","f","1","false","","","",""
"","html-keyboard-response","190","305973","0.0-340.0","uhkj9p6g","1920","1080","","","","","","","","","","","null","+","Fixation - short","","null","","","","","","","","","","","","","","","","",""
"","canvas-keyboard-response","191","307230","0.0-341.0","uhkj9p6g","","","","","","","","","","","","","null","Cue","Cue","","null","","3","3","","","false","","","","","","","","","","",""
"","html-keyboard-response","192","307992","0.0-342.0","uhkj9p6g","1920","1080","","","","","","","","","","","null","+","Fixation - short","","null","","","","","","","","","","","","","","","","",""
"","html-keyboard-response","193","308681","0.0-343.0","uhkj9p6g","","","","","","","","","","","","","687","mts","Diagnostic trial","","j","","3","4","4","true","false","false","both pre & post","LEFT","RIGHT","j","1","false","","","",""
"","html-keyboard-response","194","309434","0.0-346.0","uhkj9p6g","1920","1080","","","","","","","","","","","null","+","Fixation - short","","null","","","","","","","","","","","","","","","","",""
"","html-keyboard-response","195","310115","0.0-347.0","uhkj9p6g","","","","","","","","","","","","","678","zpl","Diagnostic trial","","j","","3","5","4","true","false","false","both pre & post","RIGHT","RIGHT","j","1","true","","","",""
"","html-keyboard-response","196","310868","0.0-350.0","uhkj9p6g","1920","1080","","","","","","","","","","","null","+","Fixation - short","","null","","","","","","","","","","","","","","","","",""
"","html-keyboard-response","197","311698","0.0-351.0","uhkj9p6g","","","","","","","","","","","","","828","mts","Inducer trial","","f","","3","","","","true","","","","","f","1","","false","LEFT","",""
"","html-keyboard-response","198","312455","0.0-354.0","uhkj9p6g","1920","1080","","","","","","","","","","","null","+","Fixation - short","","null","","","","","","","","","","","","","","","","",""
"","html-keyboard-response","199","316107","0.0-355.0","uhkj9p6g","","","","","","","","","","","","","3648","If bgi press LEFT | If jsf press RIGHT","Inducer instructions",""," ","","4","","","","","","","","","","","","","","",""
"","html-keyboard-response","200","316866","0.0-356.0","uhkj9p6g","1920","1080","","","","","","","","","","","null","+","Fixation - short","","null","","","","","","","","","","","","","","","","",""
"","html-keyboard-response","201","317426","0.0-357.0","uhkj9p6g","","","","","","","","","","","","","559","jsf","Diagnostic trial","","j","","4","0","9","false","false","false","both pre & post","RIGHT","RIGHT","j","1","true","","","",""
"","html-keyboard-response","202","318184","0.0-360.0","uhkj9p6g","1920","1080","","","","","","","","","","","null","+","Fixation - short","","null","","","","","","","","","","","","","","","","",""
"","html-keyboard-response","203","318623","0.0-361.0","uhkj9p6g","","","","","","","","","","","","","438","bgi","Diagnostic trial","","f","","4","1","9","false","false","true","both pre & post","LEFT","LEFT","f","1","true","","","",""
"","html-keyboard-response","204","319385","0.0-364.0","uhkj9p6g","1920","1080","","","","","","","","","","","null","+","Fixation - short","","null","","","","","","","","","","","","","","","","",""
"","html-keyboard-response","205","319930","0.0-365.0","uhkj9p6g","","","","","","","","","","","","","544","jsf","Diagnostic trial","","f","","4","2","9","false","false","true","both pre & post","RIGHT","LEFT","f","1","false","","","",""
"","html-keyboard-response","206","320689","0.0-368.0","uhkj9p6g","1920","1080","","","","","","","","","","","null","+","Fixation - short","","null","","","","","","","","","","","","","","","","",""
"","html-keyboard-response","207","321210","0.0-369.0","uhkj9p6g","","","","","","","","","","","","","518","jsf","Diagnostic trial","","f","","4","3","9","false","false","true","both pre & post","RIGHT","LEFT","f","1","false","","","",""
"","html-keyboard-response","208","321976","0.0-372.0","uhkj9p6g","1920","1080","","","","","","","","","","","null","+","Fixation - short","","null","","","","","","","","","","","","","","","","",""
"","html-keyboard-response","209","322506","0.0-373.0","uhkj9p6g","","","","","","","","","","","","","527","jsf","Diagnostic trial","","j","","4","4","9","false","false","false","both pre & post","RIGHT","RIGHT","j","1","true","","","",""
"","html-keyboard-response","210","323264","0.0-376.0","uhkj9p6g","1920","1080","","","","","","","","","","","null","+","Fixation - short","","null","","","","","","","","","","","","","","","","",""
"","html-keyboard-response","211","323930","0.0-377.0","uhkj9p6g","","","","","","","","","","","","","665","jsf","Diagnostic trial","","f","","4","5","9","false","false","true","both pre & post","RIGHT","LEFT","f","1","false","","","",""
"","html-keyboard-response","212","324728","0.0-380.0","uhkj9p6g","1920","1080","","","","","","","","","","","null","+","Fixation - short","","null","","","","","","","","","","","","","","","","",""
"","html-keyboard-response","213","325298","0.0-381.0","uhkj9p6g","","","","","","","","","","","","","567","jsf","Diagnostic trial","","f","","4","6","9","false","false","true","both pre & post","RIGHT","LEFT","f","1","false","","","",""
"","html-keyboard-response","214","326052","0.0-384.0","uhkj9p6g","1920","1080","","","","","","","","","","","null","+","Fixation - short","","null","","","","","","","","","","","","","","","","",""
"","html-keyboard-response","215","326663","0.0-385.0","uhkj9p6g","","","","","","","","","","","","","610","jsf","Diagnostic trial","","f","","4","7","9","false","false","true","both pre & post","RIGHT","LEFT","f","1","false","","","",""
"","html-keyboard-response","216","327418","0.0-388.0","uhkj9p6g","1920","1080","","","","","","","","","","","null","+","Fixation - short","","null","","","","","","","","","","","","","","","","",""
"","html-keyboard-response","217","328050","0.0-389.0","uhkj9p6g","","","","","","","","","","","","","632","bgi","Diagnostic trial","","f","","4","8","9","false","false","true","both pre & post","LEFT","LEFT","f","1","true","","","",""
"","html-keyboard-response","218","328874","0.0-392.0","uhkj9p6g","1920","1080","","","","","","","","","","","null","+","Fixation - short","","null","","","","","","","","","","","","","","","","",""
"","canvas-keyboard-response","219","330139","0.0-393.0","uhkj9p6g","","","","","","","","","","","","","null","Cue","Cue","","null","","4","8","","","false","","","","","","","","","","",""
"","html-keyboard-response","220","330893","0.0-394.0","uhkj9p6g","1920","1080","","","","","","","","","","","null","+","Fixation - short","","null","","","","","","","","","","","","","","","","",""
"","html-keyboard-response","221","331434","0.0-395.0","uhkj9p6g","","","","","","","","","","","","","539","bgi","Diagnostic trial","","j","","4","9","9","true","false","false","both pre & post","LEFT","RIGHT","j","1","false","","","",""
"","html-keyboard-response","222","332194","0.0-398.0","uhkj9p6g","1920","1080","","","","","","","","","","","null","+","Fixation - short","","null","","","","","","","","","","","","","","","","",""
"","html-keyboard-response","223","332642","0.0-399.0","uhkj9p6g","","","","","","","","","","","","","446","bgi","Diagnostic trial","","j","","4","10","9","true","false","false","both pre & post","LEFT","RIGHT","j","1","false","","","",""
"","html-keyboard-response","224","333397","0.0-402.0","uhkj9p6g","1920","1080","","","","","","","","","","","null","+","Fixation - short","","null","","","","","","","","","","","","","","","","",""
"","html-keyboard-response","225","333962","0.0-403.0","uhkj9p6g","","","","","","","","","","","","","565","bgi","Diagnostic trial","","j","","4","11","9","true","false","false","both pre & post","LEFT","RIGHT","j","1","false","","","",""
"","html-keyboard-response","226","334716","0.0-406.0","uhkj9p6g","1920","1080","","","","","","","","","","","null","+","Fixation - short","","null","","","","","","","","","","","","","","","","",""
"","html-keyboard-response","227","335259","0.0-407.0","uhkj9p6g","","","","","","","","","","","","","541","bgi","Diagnostic trial","","j","","4","12","9","true","false","false","both pre & post","LEFT","RIGHT","j","1","false","","","",""
"","html-keyboard-response","228","336018","0.0-410.0","uhkj9p6g","1920","1080","","","","","","","","","","","null","+","Fixation - short","","null","","","","","","","","","","","","","","","","",""
"","html-keyboard-response","229","336815","0.0-411.0","uhkj9p6g","","","","","","","","","","","","","796","jsf","Inducer trial","","j","","4","","","","true","","","","","j","1","","false","RIGHT","",""
"","html-keyboard-response","230","337651","0.0-414.0","uhkj9p6g","1920","1080","","","","","","","","","","","null","+","Fixation - short","","null","","","","","","","","","","","","","","","","",""
"","html-keyboard-response","231","348663","0.0-415.0","uhkj9p6g","","","","","","","","","","","","","11012","If aor press LEFT | If hfs press RIGHT","Inducer instructions",""," ","","5","","","","","","","","","","","","","","",""
"","html-keyboard-response","232","349425","0.0-416.0","uhkj9p6g","1920","1080","","","","","","","","","","","null","+","Fixation - short","","null","","","","","","","","","","","","","","","","",""
"","html-keyboard-response","233","349898","0.0-417.0","uhkj9p6g","","","","","","","","","","","","","471","hfs","Diagnostic trial","","j","","5","0","4","false","false","false","both pre & post","RIGHT","RIGHT","j","1","true","","","",""
"","html-keyboard-response","234","350674","0.0-420.0","uhkj9p6g","1920","1080","","","","","","","","","","","null","+","Fixation - short","","null","","","","","","","","","","","","","","","","",""
"","html-keyboard-response","235","351081","0.0-421.0","uhkj9p6g","","","","","","","","","","","","","406","aor","Diagnostic trial","","f","","5","1","4","false","false","true","both pre & post","LEFT","LEFT","f","1","true","","","",""
"","html-keyboard-response","236","351847","0.0-424.0","uhkj9p6g","1920","1080","","","","","","","","","","","null","+","Fixation - short","","null","","","","","","","","","","","","","","","","",""
"","html-keyboard-response","237","352258","0.0-425.0","uhkj9p6g","","","","","","","","","","","","","409","hfs","Diagnostic trial","","f","","5","2","4","false","false","true","both pre & post","RIGHT","LEFT","f","1","false","","","",""
"","html-keyboard-response","238","353017","0.0-428.0","uhkj9p6g","1920","1080","","","","","","","","","","","null","+","Fixation - short","","null","","","","","","","","","","","","","","","","",""
"","html-keyboard-response","239","353426","0.0-429.0","uhkj9p6g","","","","","","","","","","","","","406","hfs","Diagnostic trial","","f","","5","3","4","false","false","true","both pre & post","RIGHT","LEFT","f","1","false","","","",""
"","html-keyboard-response","240","354183","0.0-432.0","uhkj9p6g","1920","1080","","","","","","","","","","","null","+","Fixation - short","","null","","","","","","","","","","","","","","","","",""
"","canvas-keyboard-response","241","355440","0.0-433.0","uhkj9p6g","","","","","","","","","","","","","null","Cue","Cue","","null","","5","3","","","false","","","","","","","","","","",""
"","html-keyboard-response","242","356209","0.0-434.0","uhkj9p6g","1920","1080","","","","","","","","","","","null","+","Fixation - short","","null","","","","","","","","","","","","","","","","",""
"","html-keyboard-response","243","356738","0.0-435.0","uhkj9p6g","","","","","","","","","","","","","526","hfs","Diagnostic trial","","j","","5","4","4","true","false","false","both pre & post","RIGHT","RIGHT","j","1","true","","","",""
"","html-keyboard-response","244","357511","0.0-438.0","uhkj9p6g","1920","1080","","","","","","","","","","","null","+","Fixation - short","","null","","","","","","","","","","","","","","","","",""
"","html-keyboard-response","245","358066","0.0-439.0","uhkj9p6g","","","","","","","","","","","","","553","hfs","Diagnostic trial","","j","","5","5","4","true","false","false","both pre & post","RIGHT","RIGHT","j","1","true","","","",""
"","html-keyboard-response","246","358829","0.0-442.0","uhkj9p6g","1920","1080","","","","","","","","","","","null","+","Fixation - short","","null","","","","","","","","","","","","","","","","",""
"","html-keyboard-response","247","359418","0.0-443.0","uhkj9p6g","","","","","","","","","","","","","586","hfs","Diagnostic trial","","j","","5","6","4","true","false","false","both pre & post","RIGHT","RIGHT","j","1","true","","","",""
"","html-keyboard-response","248","360181","0.0-446.0","uhkj9p6g","1920","1080","","","","","","","","","","","null","+","Fixation - short","","null","","","","","","","","","","","","","","","","",""
"","html-keyboard-response","249","360872","0.0-447.0","uhkj9p6g","","","","","","","","","","","","","690","aor","Diagnostic trial","","j","","5","7","4","true","false","false","both pre & post","LEFT","RIGHT","j","1","false","","","",""
"","html-keyboard-response","250","361638","0.0-450.0","uhkj9p6g","1920","1080","","","","","","","","","","","null","+","Fixation - short","","null","","","","","","","","","","","","","","","","",""
"","html-keyboard-response","251","362242","0.0-451.0","uhkj9p6g","","","","","","","","","","","","","601","aor","Inducer trial","","f","","5","","","","true","","","","","f","1","","false","LEFT","",""
"","html-keyboard-response","252","363004","0.0-454.0","uhkj9p6g","1920","1080","","","","","","","","","","","null","+","Fixation - short","","null","","","","","","","","","","","","","","","","",""
"","html-keyboard-response","253","367055","0.0-455.0","uhkj9p6g","","","","","","","","","","","","","4050","If ori press LEFT | If bwe press RIGHT","Inducer instructions",""," ","","6","","","","","","","","","","","","","","",""
"","html-keyboard-response","254","367808","0.0-456.0","uhkj9p6g","1920","1080","","","","","","","","","","","null","+","Fixation - short","","null","","","","","","","","","","","","","","","","",""
"","html-keyboard-response","255","368495","0.0-457.0","uhkj9p6g","","","","","","","","","","","","","687","bwe","Diagnostic trial","","f","","6","0","12","false","false","true","both pre & post","RIGHT","LEFT","f","1","false","","","",""
"","html-keyboard-response","256","369266","0.0-460.0","uhkj9p6g","1920","1080","","","","","","","","","","","null","+","Fixation - short","","null","","","","","","","","","","","","","","","","",""
"","html-keyboard-response","257","369696","0.0-461.0","uhkj9p6g","","","","","","","","","","","","","429","bwe","Diagnostic trial","","f","","6","1","12","false","false","true","both pre & post","RIGHT","LEFT","f","1","false","","","",""
"","html-keyboard-response","258","370455","0.0-464.0","uhkj9p6g","1920","1080","","","","","","","","","","","null","+","Fixation - short","","null","","","","","","","","","","","","","","","","",""
"","html-keyboard-response","259","370967","0.0-465.0","uhkj9p6g","","","","","","","","","","","","","511","ori","Diagnostic trial","","f","","6","2","12","false","false","true","both pre & post","LEFT","LEFT","f","1","true","","","",""
"","html-keyboard-response","260","371721","0.0-468.0","uhkj9p6g","1920","1080","","","","","","","","","","","null","+","Fixation - short","","null","","","","","","","","","","","","","","","","",""
"","html-keyboard-response","261","372154","0.0-469.0","uhkj9p6g","","","","","","","","","","","","","430","ori","Diagnostic trial","","j","","6","3","12","false","false","false","both pre & post","LEFT","RIGHT","j","1","false","","","",""
"","html-keyboard-response","262","372907","0.0-472.0","uhkj9p6g","1920","1080","","","","","","","","","","","null","+","Fixation - short","","null","","","","","","","","","","","","","","","","",""
"","html-keyboard-response","263","373434","0.0-473.0","uhkj9p6g","","","","","","","","","","","","","525","bwe","Diagnostic trial","","j","","6","4","12","false","false","false","both pre & post","RIGHT","RIGHT","j","1","true","","","",""
"","html-keyboard-response","264","374192","0.0-476.0","uhkj9p6g","1920","1080","","","","","","","","","","","null","+","Fixation - short","","null","","","","","","","","","","","","","","","","",""
"","html-keyboard-response","265","374770","0.0-477.0","uhkj9p6g","","","","","","","","","","","","","576","ori","Diagnostic trial","","j","","6","5","12","false","false","false","both pre & post","LEFT","RIGHT","j","1","false","","","",""
"","html-keyboard-response","266","375526","0.0-480.0","uhkj9p6g","1920","1080","","","","","","","","","","","null","+","Fixation - short","","null","","","","","","","","","","","","","","","","",""
"","html-keyboard-response","267","376015","0.0-481.0","uhkj9p6g","","","","","","","","","","","","","488","ori","Diagnostic trial","","f","","6","6","12","false","false","true","both pre & post","LEFT","LEFT","f","1","true","","","",""
"","html-keyboard-response","268","376783","0.0-484.0","uhkj9p6g","1920","1080","","","","","","","","","","","null","+","Fixation - short","","null","","","","","","","","","","","","","","","","",""
"","html-keyboard-response","269","377291","0.0-485.0","uhkj9p6g","","","","","","","","","","","","","505","bwe","Diagnostic trial","","f","","6","7","12","false","false","true","both pre & post","RIGHT","LEFT","f","1","false","","","",""
"","html-keyboard-response","270","378048","0.0-488.0","uhkj9p6g","1920","1080","","","","","","","","","","","null","+","Fixation - short","","null","","","","","","","","","","","","","","","","",""
"","html-keyboard-response","271","378471","0.0-489.0","uhkj9p6g","","","","","","","","","","","","","423","ori","Diagnostic trial","","f","","6","8","12","false","false","true","both pre & post","LEFT","LEFT","f","1","true","","","",""
"","html-keyboard-response","272","379233","0.0-492.0","uhkj9p6g","1920","1080","","","","","","","","","","","null","+","Fixation - short","","null","","","","","","","","","","","","","","","","",""
"","html-keyboard-response","273","379627","0.0-493.0","uhkj9p6g","","","","","","","","","","","","","391","bwe","Diagnostic trial","","j","","6","9","12","false","false","false","both pre & post","RIGHT","RIGHT","j","1","true","","","",""
"","html-keyboard-response","274","380391","0.0-496.0","uhkj9p6g","1920","1080","","","","","","","","","","","null","+","Fixation - short","","null","","","","","","","","","","","","","","","","",""
"","html-keyboard-response","275","381046","0.0-497.0","uhkj9p6g","","","","","","","","","","","","","655","bwe","Diagnostic trial","","f","","6","10","12","false","false","true","both pre & post","RIGHT","LEFT","f","1","false","","","",""
"","html-keyboard-response","276","381811","0.0-500.0","uhkj9p6g","1920","1080","","","","","","","","","","","null","+","Fixation - short","","null","","","","","","","","","","","","","","","","",""
"","html-keyboard-response","277","382403","0.0-501.0","uhkj9p6g","","","","","","","","","","","","","589","ori","Diagnostic trial","","f","","6","11","12","false","false","true","both pre & post","LEFT","LEFT","f","1","true","","","",""
"","html-keyboard-response","278","383160","0.0-504.0","uhkj9p6g","1920","1080","","","","","","","","","","","null","+","Fixation - short","","null","","","","","","","","","","","","","","","","",""
"","canvas-keyboard-response","279","384414","0.0-505.0","uhkj9p6g","","","","","","","","","","","","","null","Cue","Cue","","null","","6","11","","","false","","","","","","","","","","",""
"","html-keyboard-response","280","385178","0.0-506.0","uhkj9p6g","1920","1080","","","","","","","","","","","null","+","Fixation - short","","null","","","","","","","","","","","","","","","","",""
"","html-keyboard-response","281","385858","0.0-507.0","uhkj9p6g","","","","","","","","","","","","","678","bwe","Diagnostic trial","","f","","6","12","12","true","false","true","both pre & post","RIGHT","LEFT","f","1","false","","","",""
"","html-keyboard-response","282","386622","0.0-510.0","uhkj9p6g","1920","1080","","","","","","","","","","","null","+","Fixation - short","","null","","","","","","","","","","","","","","","","",""
"","html-keyboard-response","283","387288","0.0-511.0","uhkj9p6g","","","","","","","","","","","","","665","ori","Diagnostic trial","","j","","6","13","12","true","false","false","both pre & post","LEFT","RIGHT","j","1","false","","","",""
"","html-keyboard-response","284","388039","0.0-514.0","uhkj9p6g","1920","1080","","","","","","","","","","","null","+","Fixation - short","","null","","","","","","","","","","","","","","","","",""
"","html-keyboard-response","285","388618","0.0-515.0","uhkj9p6g","","","","","","","","","","","","","576","ori","Inducer trial","","f","","6","","","","true","","","","","f","1","","false","LEFT","",""
"","html-keyboard-response","286","389372","0.0-518.0","uhkj9p6g","1920","1080","","","","","","","","","","","null","+","Fixation - short","","null","","","","","","","","","","","","","","","","",""
"","html-keyboard-response","287","398795","0.0-519.0","uhkj9p6g","","","","","","","","","","","","","9422","If frn press LEFT | If tkb press RIGHT","Inducer instructions",""," ","","7","","","","","","","","","","","","","","",""
"","html-keyboard-response","288","399562","0.0-520.0","uhkj9p6g","1920","1080","","","","","","","","","","","null","+","Fixation - short","","null","","","","","","","","","","","","","","","","",""
"","html-keyboard-response","289","400419","0.0-521.0","uhkj9p6g","","","","","","","","","","","","","854","frn","Diagnostic trial","","j","","7","0","7","false","false","false","both pre & post","LEFT","RIGHT","j","1","false","","","",""
"","html-keyboard-response","290","401179","0.0-524.0","uhkj9p6g","1920","1080","","","","","","","","","","","null","+","Fixation - short","","null","","","","","","","","","","","","","","","","",""
"","html-keyboard-response","291","401687","0.0-525.0","uhkj9p6g","","","","","","","","","","","","","507","tkb","Diagnostic trial","","f","","7","1","7","false","false","true","both pre & post","RIGHT","LEFT","f","1","false","","","",""
"","html-keyboard-response","292","402451","0.0-528.0","uhkj9p6g","1920","1080","","","","","","","","","","","null","+","Fixation - short","","null","","","","","","","","","","","","","","","","",""
"","html-keyboard-response","293","402903","0.0-529.0","uhkj9p6g","","","","","","","","","","","","","450","frn","Diagnostic trial","","j","","7","2","7","false","false","false","both pre & post","LEFT","RIGHT","j","1","false","","","",""
"","html-keyboard-response","294","403655","0.0-532.0","uhkj9p6g","1920","1080","","","","","","","","","","","null","+","Fixation - short","","null","","","","","","","","","","","","","","","","",""
"","html-keyboard-response","295","404154","0.0-533.0","uhkj9p6g","","","","","","","","","","","","","497","frn","Diagnostic trial","","j","","7","3","7","false","false","false","both pre & post","LEFT","RIGHT","j","1","false","","","",""
"","html-keyboard-response","296","404920","0.0-536.0","uhkj9p6g","1920","1080","","","","","","","","","","","null","+","Fixation - short","","null","","","","","","","","","","","","","","","","",""
"","html-keyboard-response","297","405400","0.0-537.0","uhkj9p6g","","","","","","","","","","","","","478","tkb","Diagnostic trial","","f","","7","4","7","false","false","true","both pre & post","RIGHT","LEFT","f","1","false","","","",""
"","html-keyboard-response","298","406152","0.0-540.0","uhkj9p6g","1920","1080","","","","","","","","","","","null","+","Fixation - short","","null","","","","","","","","","","","","","","","","",""
"","html-keyboard-response","299","406634","0.0-541.0","uhkj9p6g","","","","","","","","","","","","","480","frn","Diagnostic trial","","f","","7","5","7","false","false","true","both pre & post","LEFT","LEFT","f","1","true","","","",""
"","html-keyboard-response","300","407400","0.0-544.0","uhkj9p6g","1920","1080","","","","","","","","","","","null","+","Fixation - short","","null","","","","","","","","","","","","","","","","",""
"","html-keyboard-response","301","407866","0.0-545.0","uhkj9p6g","","","","","","","","","","","","","465","frn","Diagnostic trial","","j","","7","6","7","false","false","false","both pre & post","LEFT","RIGHT","j","1","false","","","",""
"","html-keyboard-response","302","408640","0.0-548.0","uhkj9p6g","1920","1080","","","","","","","","","","","null","+","Fixation - short","","null","","","","","","","","","","","","","","","","",""
"","canvas-keyboard-response","303","409905","0.0-549.0","uhkj9p6g","","","","","","","","","","","","","null","Cue","Cue","","null","","7","6","","","false","","","","","","","","","","",""
"","html-keyboard-response","304","410659","0.0-550.0","uhkj9p6g","1920","1080","","","","","","","","","","","null","+","Fixation - short","","null","","","","","","","","","","","","","","","","",""
"","html-keyboard-response","305","411114","0.0-551.0","uhkj9p6g","","","","","","","","","","","","","453","frn","Diagnostic trial","","f","","7","7","7","true","false","true","both pre & post","LEFT","LEFT","f","1","true","","","",""
"","html-keyboard-response","306","411876","0.0-554.0","uhkj9p6g","1920","1080","","","","","","","","","","","null","+","Fixation - short","","null","","","","","","","","","","","","","","","","",""
"","html-keyboard-response","307","412371","0.0-555.0","uhkj9p6g","","","","","","","","","","","","","493","frn","Diagnostic trial","","j","","7","8","7","true","false","false","both pre & post","LEFT","RIGHT","j","1","false","","","",""
"","html-keyboard-response","308","413126","0.0-558.0","uhkj9p6g","1920","1080","","","","","","","","","","","null","+","Fixation - short","","null","","","","","","","","","","","","","","","","",""
"","html-keyboard-response","309","413794","0.0-559.0","uhkj9p6g","","","","","","","","","","","","","666","tkb","Diagnostic trial","","f","","7","9","7","true","false","true","both pre & post","RIGHT","LEFT","f","1","false","","","",""
"","html-keyboard-response","310","414549","0.0-562.0","uhkj9p6g","1920","1080","","","","","","","","","","","null","+","Fixation - short","","null","","","","","","","","","","","","","","","","",""
"","html-keyboard-response","311","415155","0.0-563.0","uhkj9p6g","","","","","","","","","","","","","603","tkb","Diagnostic trial","","j","","7","10","7","true","false","false","both pre & post","RIGHT","RIGHT","j","1","true","","","",""
"","html-keyboard-response","312","415916","0.0-566.0","uhkj9p6g","1920","1080","","","","","","","","","","","null","+","Fixation - short","","null","","","","","","","","","","","","","","","","",""
"","html-keyboard-response","313","416442","0.0-567.0","uhkj9p6g","","","","","","","","","","","","","525","frn","Inducer trial","","f","","7","","","","true","","","","","f","1","","false","LEFT","",""
"","html-keyboard-response","314","417202","0.0-570.0","uhkj9p6g","1920","1080","","","","","","","","","","","null","+","Fixation - short","","null","","","","","","","","","","","","","","","","",""
"","html-keyboard-response","315","426323","0.0-571.0","uhkj9p6g","","","","","","","","","","","","","9119","If pte press LEFT | If quy press RIGHT","Inducer instructions",""," ","","8","","","","","","","","","","","","","","",""
"","html-keyboard-response","316","427084","0.0-572.0","uhkj9p6g","1920","1080","","","","","","","","","","","null","+","Fixation - short","","null","","","","","","","","","","","","","","","","",""
"","html-keyboard-response","317","427752","0.0-573.0","uhkj9p6g","","","","","","","","","","","","","667","pte","Diagnostic trial","","j","","8","0","11","false","false","false","both pre & post","LEFT","RIGHT","j","1","false","","","",""
"","html-keyboard-response","318","428518","0.0-576.0","uhkj9p6g","1920","1080","","","","","","","","","","","null","+","Fixation - short","","null","","","","","","","","","","","","","","","","",""
"","html-keyboard-response","319","429003","0.0-577.0","uhkj9p6g","","","","","","","","","","","","","482","quy","Diagnostic trial","","f","","8","1","11","false","false","true","both pre & post","RIGHT","LEFT","f","1","false","","","",""
"","html-keyboard-response","320","429774","0.0-580.0","uhkj9p6g","1920","1080","","","","","","","","","","","null","+","Fixation - short","","null","","","","","","","","","","","","","","","","",""
"","html-keyboard-response","321","430408","0.0-581.0","uhkj9p6g","","","","","","","","","","","","","632","quy","Diagnostic trial","","j","","8","2","11","false","false","false","both pre & post","RIGHT","RIGHT","j","1","true","","","",""
"","html-keyboard-response","322","431178","0.0-584.0","uhkj9p6g","1920","1080","","","","","","","","","","","null","+","Fixation - short","","null","","","","","","","","","","","","","","","","",""
"","html-keyboard-response","323","431691","0.0-585.0","uhkj9p6g","","","","","","","","","","","","","509","quy","Diagnostic trial","","f","","8","3","11","false","false","true","both pre & post","RIGHT","LEFT","f","1","false","","","",""
"","html-keyboard-response","324","432446","0.0-588.0","uhkj9p6g","1920","1080","","","","","","","","","","","null","+","Fixation - short","","null","","","","","","","","","","","","","","","","",""
"","html-keyboard-response","325","432906","0.0-589.0","uhkj9p6g","","","","","","","","","","","","","457","quy","Diagnostic trial","","f","","8","4","11","false","false","true","both pre & post","RIGHT","LEFT","f","1","false","","","",""
"","html-keyboard-response","326","433660","0.0-592.0","uhkj9p6g","1920","1080","","","","","","","","","","","null","+","Fixation - short","","null","","","","","","","","","","","","","","","","",""
"","html-keyboard-response","327","434215","0.0-593.0","uhkj9p6g","","","","","","","","","","","","","554","pte","Diagnostic trial","","j","","8","5","11","false","false","false","both pre & post","LEFT","RIGHT","j","1","false","","","",""
"","html-keyboard-response","328","434986","0.0-596.0","uhkj9p6g","1920","1080","","","","","","","","","","","null","+","Fixation - short","","null","","","","","","","","","","","","","","","","",""
"","html-keyboard-response","329","435455","0.0-597.0","uhkj9p6g","","","","","","","","","","","","","469","pte","Diagnostic trial","","f","","8","6","11","false","false","true","both pre & post","LEFT","LEFT","f","1","true","","","",""
"","html-keyboard-response","330","436219","0.0-600.0","uhkj9p6g","1920","1080","","","","","","","","","","","null","+","Fixation - short","","null","","","","","","","","","","","","","","","","",""
"","html-keyboard-response","331","436727","0.0-601.0","uhkj9p6g","","","","","","","","","","","","","506","quy","Diagnostic trial","","j","","8","7","11","false","false","false","both pre & post","RIGHT","RIGHT","j","1","true","","","",""
"","html-keyboard-response","332","437488","0.0-604.0","uhkj9p6g","1920","1080","","","","","","","","","","","null","+","Fixation - short","","null","","","","","","","","","","","","","","","","",""
"","html-keyboard-response","333","437986","0.0-605.0","uhkj9p6g","","","","","","","","","","","","","495","pte","Diagnostic trial","","f","","8","8","11","false","false","true","both pre & post","LEFT","LEFT","f","1","true","","","",""
"","html-keyboard-response","334","438738","0.0-608.0","uhkj9p6g","1920","1080","","","","","","","","","","","null","+","Fixation - short","","null","","","","","","","","","","","","","","","","",""
"","html-keyboard-response","335","439251","0.0-609.0","uhkj9p6g","","","","","","","","","","","","","510","quy","Diagnostic trial","","j","","8","9","11","false","false","false","both pre & post","RIGHT","RIGHT","j","1","true","","","",""
"","html-keyboard-response","336","440008","0.0-612.0","uhkj9p6g","1920","1080","","","","","","","","","","","null","+","Fixation - short","","null","","","","","","","","","","","","","","","","",""
"","html-keyboard-response","337","440530","0.0-613.0","uhkj9p6g","","","","","","","","","","","","","519","pte","Diagnostic trial","","f","","8","10","11","false","false","true","both pre & post","LEFT","LEFT","f","1","true","","","",""
"","html-keyboard-response","338","441343","0.0-616.0","uhkj9p6g","1920","1080","","","","","","","","","","","null","+","Fixation - short","","null","","","","","","","","","","","","","","","","",""
"","canvas-keyboard-response","339","442614","0.0-617.0","uhkj9p6g","","","","","","","","","","","","","null","Cue","Cue","","null","","8","10","","","false","","","","","","","","","","",""
"","html-keyboard-response","340","443379","0.0-618.0","uhkj9p6g","1920","1080","","","","","","","","","","","null","+","Fixation - short","","null","","","","","","","","","","","","","","","","",""
"","html-keyboard-response","341","443906","0.0-619.0","uhkj9p6g","","","","","","","","","","","","","524","pte","Diagnostic trial","","f","","8","11","11","true","false","true","both pre & post","LEFT","LEFT","f","1","true","","","",""
"","html-keyboard-response","342","444666","0.0-622.0","uhkj9p6g","1920","1080","","","","","","","","","","","null","+","Fixation - short","","null","","","","","","","","","","","","","","","","",""
"","html-keyboard-response","343","445146","0.0-623.0","uhkj9p6g","","","","","","","","","","","","","477","pte","Diagnostic trial","","f","","8","12","11","true","false","true","both pre & post","LEFT","LEFT","f","1","true","","","",""
"","html-keyboard-response","344","445900","0.0-626.0","uhkj9p6g","1920","1080","","","","","","","","","","","null","+","Fixation - short","","null","","","","","","","","","","","","","","","","",""
"","html-keyboard-response","345","446432","0.0-627.0","uhkj9p6g","","","","","","","","","","","","","530","pte","Diagnostic trial","","f","","8","13","11","true","false","true","both pre & post","LEFT","LEFT","f","1","true","","","",""
"","html-keyboard-response","346","447186","0.0-630.0","uhkj9p6g","1920","1080","","","","","","","","","","","null","+","Fixation - short","","null","","","","","","","","","","","","","","","","",""
"","html-keyboard-response","347","447906","0.0-631.0","uhkj9p6g","","","","","","","","","","","","","718","quy","Diagnostic trial","","f","","8","14","11","true","false","true","both pre & post","RIGHT","LEFT","f","1","false","","","",""
"","html-keyboard-response","348","448658","0.0-634.0","uhkj9p6g","1920","1080","","","","","","","","","","","null","+","Fixation - short","","null","","","","","","","","","","","","","","","","",""
"","html-keyboard-response","349","449274","0.0-635.0","uhkj9p6g","","","","","","","","","","","","","615","quy","Inducer trial","","j","","8","","","","true","","","","","j","1","","false","RIGHT","",""
"","html-keyboard-response","350","450030","0.0-638.0","uhkj9p6g","1920","1080","","","","","","","","","","","null","+","Fixation - short","","null","","","","","","","","","","","","","","","","",""
"","html-keyboard-response","351","464471","0.0-639.0","uhkj9p6g","","","","","","","","","","","","","14441","If ndm press LEFT | If tgf press RIGHT","Inducer instructions",""," ","","9","","","","","","","","","","","","","","",""
"","html-keyboard-response","352","465232","0.0-640.0","uhkj9p6g","1920","1080","","","","","","","","","","","null","+","Fixation - short","","null","","","","","","","","","","","","","","","","",""
"","html-keyboard-response","353","465687","0.0-641.0","uhkj9p6g","","","","","","","","","","","","","453","ndm","Diagnostic trial","","f","","9","0","4","false","false","true","both pre & post","LEFT","LEFT","f","1","true","","","",""
"","html-keyboard-response","354","466474","0.0-644.0","uhkj9p6g","1920","1080","","","","","","","","","","","null","+","Fixation - short","","null","","","","","","","","","","","","","","","","",""
"","html-keyboard-response","355","467047","0.0-645.0","uhkj9p6g","","","","","","","","","","","","","572","ndm","Diagnostic trial","","j","","9","1","4","false","false","false","both pre & post","LEFT","RIGHT","j","1","false","","","",""
"","html-keyboard-response","356","467808","0.0-648.0","uhkj9p6g","1920","1080","","","","","","","","","","","null","+","Fixation - short","","null","","","","","","","","","","","","","","","","",""
"","html-keyboard-response","357","468354","0.0-649.0","uhkj9p6g","","","","","","","","","","","","","542","tgf","Diagnostic trial","","j","","9","2","4","false","false","false","both pre & post","RIGHT","RIGHT","j","1","true","","","",""
"","html-keyboard-response","358","469113","0.0-652.0","uhkj9p6g","1920","1080","","","","","","","","","","","null","+","Fixation - short","","null","","","","","","","","","","","","","","","","",""
"","html-keyboard-response","359","469626","0.0-653.0","uhkj9p6g","","","","","","","","","","","","","511","tgf","Diagnostic trial","","f","","9","3","4","false","false","true","both pre & post","RIGHT","LEFT","f","1","false","","","",""
"","html-keyboard-response","360","470380","0.0-656.0","uhkj9p6g","1920","1080","","","","","","","","","","","null","+","Fixation - short","","null","","","","","","","","","","","","","","","","",""
"","canvas-keyboard-response","361","471646","0.0-657.0","uhkj9p6g","","","","","","","","","","","","","null","Cue","Cue","","null","","9","3","","","false","","","","","","","","","","",""
"","html-keyboard-response","362","472411","0.0-658.0","uhkj9p6g","1920","1080","","","","","","","","","","","null","+","Fixation - short","","null","","","","","","","","","","","","","","","","",""
"","html-keyboard-response","363","473214","0.0-659.0","uhkj9p6g","","","","","","","","","","","","","802","ndm","Diagnostic trial","","j","","9","4","4","true","false","false","both pre & post","LEFT","RIGHT","j","1","false","","","",""
"","html-keyboard-response","364","474006","0.0-662.0","uhkj9p6g","1920","1080","","","","","","","","","","","null","+","Fixation - short","","null","","","","","","","","","","","","","","","","",""
"","html-keyboard-response","365","474495","0.0-663.0","uhkj9p6g","","","","","","","","","","","","","489","ndm","Diagnostic trial","","f","","9","5","4","true","false","true","both pre & post","LEFT","LEFT","f","1","true","","","",""
"","html-keyboard-response","366","475261","0.0-666.0","uhkj9p6g","1920","1080","","","","","","","","","","","null","+","Fixation - short","","null","","","","","","","","","","","","","","","","",""
"","html-keyboard-response","367","476495","0.0-667.0","uhkj9p6g","","","","","","","","","","","","","1234","ndm","Inducer trial","","f","","9","","","","true","","","","","f","1","","false","LEFT","",""
"","html-keyboard-response","368","477249","0.0-670.0","uhkj9p6g","1920","1080","","","","","","","","","","","null","+","Fixation - short","","null","","","","","","","","","","","","","","","","",""
"","html-keyboard-response","369","481423","0.0-671.0","uhkj9p6g","","","","","","","","","","","","","4171","If vib press LEFT | If mik press RIGHT","Inducer instructions",""," ","","10","","","","","","","","","","","","","","",""
"","html-keyboard-response","370","482184","0.0-672.0","uhkj9p6g","1920","1080","","","","","","","","","","","null","+","Fixation - short","","null","","","","","","","","","","","","","","","","",""
"","html-keyboard-response","371","482927","0.0-673.0","uhkj9p6g","","","","","","","","","","","","","741","mik","Diagnostic trial","","j","","10","0","10","false","false","false","both pre & post","RIGHT","RIGHT","j","1","true","","","",""
"","html-keyboard-response","372","483692","0.0-676.0","uhkj9p6g","1920","1080","","","","","","","","","","","null","+","Fixation - short","","null","","","","","","","","","","","","","","","","",""
"","html-keyboard-response","373","484279","0.0-677.0","uhkj9p6g","","","","","","","","","","","","","585","vib","Diagnostic trial","","j","","10","1","10","false","false","false","both pre & post","LEFT","RIGHT","j","1","false","","","",""
"","html-keyboard-response","374","485036","0.0-680.0","uhkj9p6g","1920","1080","","","","","","","","","","","null","+","Fixation - short","","null","","","","","","","","","","","","","","","","",""
"","html-keyboard-response","375","485439","0.0-681.0","uhkj9p6g","","","","","","","","","","","","","402","vib","Diagnostic trial","","f","","10","2","10","false","false","true","both pre & post","LEFT","LEFT","f","1","true","","","",""
"","html-keyboard-response","376","486194","0.0-684.0","uhkj9p6g","1920","1080","","","","","","","","","","","null","+","Fixation - short","","null","","","","","","","","","","","","","","","","",""
"","html-keyboard-response","377","486595","0.0-685.0","uhkj9p6g","","","","","","","","","","","","","398","vib","Diagnostic trial","","f","","10","3","10","false","false","true","both pre & post","LEFT","LEFT","f","1","true","","","",""
"","html-keyboard-response","378","487359","0.0-688.0","uhkj9p6g","1920","1080","","","","","","","","","","","null","+","Fixation - short","","null","","","","","","","","","","","","","","","","",""
"","html-keyboard-response","379","487859","0.0-689.0","uhkj9p6g","","","","","","","","","","","","","497","mik","Diagnostic trial","","f","","10","4","10","false","false","true","both pre & post","RIGHT","LEFT","f","1","false","","","",""
"","html-keyboard-response","380","488614","0.0-692.0","uhkj9p6g","1920","1080","","","","","","","","","","","null","+","Fixation - short","","null","","","","","","","","","","","","","","","","",""
"","html-keyboard-response","381","489010","0.0-693.0","uhkj9p6g","","","","","","","","","","","","","393","mik","Diagnostic trial","","f","","10","5","10","false","false","true","both pre & post","RIGHT","LEFT","f","1","false","","","",""
"","html-keyboard-response","382","489763","0.0-696.0","uhkj9p6g","1920","1080","","","","","","","","","","","null","+","Fixation - short","","null","","","","","","","","","","","","","","","","",""
"","html-keyboard-response","383","490191","0.0-697.0","uhkj9p6g","","","","","","","","","","","","","427","vib","Diagnostic trial","","f","","10","6","10","false","false","true","both pre & post","LEFT","LEFT","f","1","true","","","",""
"","html-keyboard-response","384","490949","0.0-700.0","uhkj9p6g","1920","1080","","","","","","","","","","","null","+","Fixation - short","","null","","","","","","","","","","","","","","","","",""
"","html-keyboard-response","385","491482","0.0-701.0","uhkj9p6g","","","","","","","","","","","","","530","vib","Diagnostic trial","","f","","10","7","10","false","false","true","both pre & post","LEFT","LEFT","f","1","true","","","",""
"","html-keyboard-response","386","492237","0.0-704.0","uhkj9p6g","1920","1080","","","","","","","","","","","null","+","Fixation - short","","null","","","","","","","","","","","","","","","","",""
"","html-keyboard-response","387","492730","0.0-705.0","uhkj9p6g","","","","","","","","","","","","","490","mik","Diagnostic trial","","f","","10","8","10","false","false","true","both pre & post","RIGHT","LEFT","f","1","false","","","",""
"","html-keyboard-response","388","493486","0.0-708.0","uhkj9p6g","1920","1080","","","","","","","","","","","null","+","Fixation - short","","null","","","","","","","","","","","","","","","","",""
"","html-keyboard-response","389","493898","0.0-709.0","uhkj9p6g","","","","","","","","","","","","","411","vib","Diagnostic trial","","j","","10","9","10","false","false","false","both pre & post","LEFT","RIGHT","j","1","false","","","",""
"","html-keyboard-response","390","494658","0.0-712.0","uhkj9p6g","1920","1080","","","","","","","","","","","null","+","Fixation - short","","null","","","","","","","","","","","","","","","","",""
"","canvas-keyboard-response","391","495913","0.0-713.0","uhkj9p6g","","","","","","","","","","","","","null","Cue","Cue","","null","","10","9","","","false","","","","","","","","","","",""
"","html-keyboard-response","392","496676","0.0-714.0","uhkj9p6g","1920","1080","","","","","","","","","","","null","+","Fixation - short","","null","","","","","","","","","","","","","","","","",""
"","html-keyboard-response","393","497207","0.0-715.0","uhkj9p6g","","","","","","","","","","","","","530","mik","Diagnostic trial","","f","","10","10","10","true","false","true","both pre & post","RIGHT","LEFT","f","1","false","","","",""
"","html-keyboard-response","394","497961","0.0-718.0","uhkj9p6g","1920","1080","","","","","","","","","","","null","+","Fixation - short","","null","","","","","","","","","","","","","","","","",""
"","html-keyboard-response","395","498527","0.0-719.0","uhkj9p6g","","","","","","","","","","","","","565","mik","Diagnostic trial","","j","","10","11","10","true","false","false","both pre & post","RIGHT","RIGHT","j","1","true","","","",""
"","html-keyboard-response","396","499280","0.0-722.0","uhkj9p6g","1920","1080","","","","","","","","","","","null","+","Fixation - short","","null","","","","","","","","","","","","","","","","",""
"","html-keyboard-response","397","499809","0.0-723.0","uhkj9p6g","","","","","","","","","","","","","527","vib","Inducer trial","","f","","10","","","","true","","","","","f","1","","false","LEFT","",""
"","html-keyboard-response","398","500568","0.0-726.0","uhkj9p6g","1920","1080","","","","","","","","","","","null","+","Fixation - short","","null","","","","","","","","","","","","","","","","",""
"","html-keyboard-response","399","505930","0.0-727.0","uhkj9p6g","","","","","","","","","","","","","5360","If vrm press LEFT | If dlg press RIGHT","Inducer instructions",""," ","","11","","","","","","","","","","","","","","",""
"","html-keyboard-response","400","506696","0.0-728.0","uhkj9p6g","1920","1080","","","","","","","","","","","null","+","Fixation - short","","null","","","","","","","","","","","","","","","","",""
"","html-keyboard-response","401","507258","0.0-729.0","uhkj9p6g","","","","","","","","","","","","","560","vrm","Diagnostic trial","","f","","11","0","4","false","false","true","both pre & post","LEFT","LEFT","f","1","true","","","",""
"","html-keyboard-response","402","508068","0.0-732.0","uhkj9p6g","1920","1080","","","","","","","","","","","null","+","Fixation - short","","null","","","","","","","","","","","","","","","","",""
"","html-keyboard-response","403","508497","0.0-733.0","uhkj9p6g","","","","","","","","","","","","","427","vrm","Diagnostic trial","","f","","11","1","4","false","false","true","both pre & post","LEFT","LEFT","f","1","true","","","",""
"","html-keyboard-response","404","509254","0.0-736.0","uhkj9p6g","1920","1080","","","","","","","","","","","null","+","Fixation - short","","null","","","","","","","","","","","","","","","","",""
"","html-keyboard-response","405","509839","0.0-737.0","uhkj9p6g","","","","","","","","","","","","","584","vrm","Diagnostic trial","","j","","11","2","4","false","false","false","both pre & post","LEFT","RIGHT","j","1","false","","","",""
"","html-keyboard-response","406","510602","0.0-740.0","uhkj9p6g","1920","1080","","","","","","","","","","","null","+","Fixation - short","","null","","","","","","","","","","","","","","","","",""
"","html-keyboard-response","407","511259","0.0-741.0","uhkj9p6g","","","","","","","","","","","","","654","dlg","Diagnostic trial","","f","","11","3","4","false","false","true","both pre & post","RIGHT","LEFT","f","1","false","","","",""
"","html-keyboard-response","408","512020","0.0-744.0","uhkj9p6g","1920","1080","","","","","","","","","","","null","+","Fixation - short","","null","","","","","","","","","","","","","","","","",""
"","canvas-keyboard-response","409","513275","0.0-745.0","uhkj9p6g","","","","","","","","","","","","","null","Cue","Cue","","null","","11","3","","","false","","","","","","","","","","",""
"","html-keyboard-response","410","514044","0.0-746.0","uhkj9p6g","1920","1080","","","","","","","","","","","null","+","Fixation - short","","null","","","","","","","","","","","","","","","","",""
"","html-keyboard-response","411","514584","0.0-747.0","uhkj9p6g","","","","","","","","","","","","","538","vrm","Diagnostic trial","","f","","11","4","4","true","false","true","both pre & post","LEFT","LEFT","f","1","true","","","",""
"","html-keyboard-response","412","515347","0.0-750.0","uhkj9p6g","1920","1080","","","","","","","","","","","null","+","Fixation - short","","null","","","","","","","","","","","","","","","","",""
"","html-keyboard-response","413","516002","0.0-751.0","uhkj9p6g","","","","","","","","","","","","","653","dlg","Diagnostic trial","","f","","11","5","4","true","false","true","both pre & post","RIGHT","LEFT","f","1","false","","","",""
"","html-keyboard-response","414","516765","0.0-754.0","uhkj9p6g","1920","1080","","","","","","","","","","","null","+","Fixation - short","","null","","","","","","","","","","","","","","","","",""
"","html-keyboard-response","415","517410","0.0-755.0","uhkj9p6g","","","","","","","","","","","","","644","vrm","Diagnostic trial","","j","","11","6","4","true","false","false","both pre & post","LEFT","RIGHT","j","1","false","","","",""
"","html-keyboard-response","416","518167","0.0-758.0","uhkj9p6g","1920","1080","","","","","","","","","","","null","+","Fixation - short","","null","","","","","","","","","","","","","","","","",""
"","html-keyboard-response","417","518722","0.0-759.0","uhkj9p6g","","","","","","","","","","","","","553","dlg","Diagnostic trial","","f","","11","7","4","true","false","true","both pre & post","RIGHT","LEFT","f","1","false","","","",""
"","html-keyboard-response","418","519485","0.0-762.0","uhkj9p6g","1920","1080","","","","","","","","","","","null","+","Fixation - short","","null","","","","","","","","","","","","","","","","",""
"","html-keyboard-response","419","520232","0.0-763.0","uhkj9p6g","","","","","","","","","","","","","745","dlg","Inducer trial","","j","","11","","","","true","","","","","j","1","","false","RIGHT","",""
"","html-keyboard-response","420","520989","0.0-766.0","uhkj9p6g","1920","1080","","","","","","","","","","","null","+","Fixation - short","","null","","","","","","","","","","","","","","","","",""
"","html-keyboard-response","421","528407","0.0-767.0","uhkj9p6g","","","","","","","","","","","","","7417","If pxv press LEFT | If wab press RIGHT","Inducer instructions",""," ","","12","","","","","","","","","","","","","","",""
"","html-keyboard-response","422","529172","0.0-768.0","uhkj9p6g","1920","1080","","","","","","","","","","","null","+","Fixation - short","","null","","","","","","","","","","","","","","","","",""
"","html-keyboard-response","423","529590","0.0-769.0","uhkj9p6g","","","","","","","","","","","","","418","wab","Diagnostic trial","","f","","12","0","9","false","false","true","both pre & post","RIGHT","LEFT","f","1","false","","","",""
"","html-keyboard-response","424","530420","0.0-772.0","uhkj9p6g","1920","1080","","","","","","","","","","","null","+","Fixation - short","","null","","","","","","","","","","","","","","","","",""
"","html-keyboard-response","425","530839","0.0-773.0","uhkj9p6g","","","","","","","","","","","","","417","pxv","Diagnostic trial","","f","","12","1","9","false","false","true","both pre & post","LEFT","LEFT","f","1","true","","","",""
"","html-keyboard-response","426","531592","0.0-776.0","uhkj9p6g","1920","1080","","","","","","","","","","","null","+","Fixation - short","","null","","","","","","","","","","","","","","","","",""
"","html-keyboard-response","427","532087","0.0-777.0","uhkj9p6g","","","","","","","","","","","","","494","pxv","Diagnostic trial","","j","","12","2","9","false","false","false","both pre & post","LEFT","RIGHT","j","1","false","","","",""
"","html-keyboard-response","428","532841","0.0-780.0","uhkj9p6g","1920","1080","","","","","","","","","","","null","+","Fixation - short","","null","","","","","","","","","","","","","","","","",""
"","html-keyboard-response","429","533258","0.0-781.0","uhkj9p6g","","","","","","","","","","","","","415","wab","Diagnostic trial","","f","","12","3","9","false","false","true","both pre & post","RIGHT","LEFT","f","1","false","","","",""
"","html-keyboard-response","430","534015","0.0-784.0","uhkj9p6g","1920","1080","","","","","","","","","","","null","+","Fixation - short","","null","","","","","","","","","","","","","","","","",""
"","html-keyboard-response","431","534714","0.0-785.0","uhkj9p6g","","","","","","","","","","","","","697","wab","Diagnostic trial","","j","","12","4","9","false","false","false","both pre & post","RIGHT","RIGHT","j","1","true","","","",""
"","html-keyboard-response","432","535486","0.0-788.0","uhkj9p6g","1920","1080","","","","","","","","","","","null","+","Fixation - short","","null","","","","","","","","","","","","","","","","",""
"","html-keyboard-response","433","536282","0.0-789.0","uhkj9p6g","","","","","","","","","","","","","794","wab","Diagnostic trial","","j","","12","5","9","false","false","false","both pre & post","RIGHT","RIGHT","j","1","true","","","",""
"","html-keyboard-response","434","537035","0.0-792.0","uhkj9p6g","1920","1080","","","","","","","","","","","null","+","Fixation - short","","null","","","","","","","","","","","","","","","","",""
"","html-keyboard-response","435","537482","0.0-793.0","uhkj9p6g","","","","","","","","","","","","","445","pxv","Diagnostic trial","","f","","12","6","9","false","false","true","both pre & post","LEFT","LEFT","f","1","true","","","",""
"","html-keyboard-response","436","538239","0.0-796.0","uhkj9p6g","1920","1080","","","","","","","","","","","null","+","Fixation - short","","null","","","","","","","","","","","","","","","","",""
"","html-keyboard-response","437","538730","0.0-797.0","uhkj9p6g","","","","","","","","","","","","","488","wab","Diagnostic trial","","j","","12","7","9","false","false","false","both pre & post","RIGHT","RIGHT","j","1","true","","","",""
"","html-keyboard-response","438","539495","0.0-800.0","uhkj9p6g","1920","1080","","","","","","","","","","","null","+","Fixation - short","","null","","","","","","","","","","","","","","","","",""
"","html-keyboard-response","439","540034","0.0-801.0","uhkj9p6g","","","","","","","","","","","","","537","wab","Diagnostic trial","","j","","12","8","9","false","false","false","both pre & post","RIGHT","RIGHT","j","1","true","","","",""
"","html-keyboard-response","440","540797","0.0-804.0","uhkj9p6g","1920","1080","","","","","","","","","","","null","+","Fixation - short","","null","","","","","","","","","","","","","","","","",""
"","canvas-keyboard-response","441","542060","0.0-805.0","uhkj9p6g","","","","","","","","","","","","","null","Cue","Cue","","null","","12","8","","","false","","","","","","","","","","",""
"","html-keyboard-response","442","542816","0.0-806.0","uhkj9p6g","1920","1080","","","","","","","","","","","null","+","Fixation - short","","null","","","","","","","","","","","","","","","","",""
"","html-keyboard-response","443","543394","0.0-807.0","uhkj9p6g","","","","","","","","","","","","","575","pxv","Diagnostic trial","","f","","12","9","9","true","false","true","both pre & post","LEFT","LEFT","f","1","true","","","",""
"","html-keyboard-response","444","544150","0.0-810.0","uhkj9p6g","1920","1080","","","","","","","","","","","null","+","Fixation - short","","null","","","","","","","","","","","","","","","","",""
"","html-keyboard-response","445","544570","0.0-811.0","uhkj9p6g","","","","","","","","","","","","","417","pxv","Diagnostic trial","","f","","12","10","9","true","false","true","both pre & post","LEFT","LEFT","f","1","true","","","",""
"","html-keyboard-response","446","545335","0.0-814.0","uhkj9p6g","1920","1080","","","","","","","","","","","null","+","Fixation - short","","null","","","","","","","","","","","","","","","","",""
"","html-keyboard-response","447","545818","0.0-815.0","uhkj9p6g","","","","","","","","","","","","","481","pxv","Diagnostic trial","","f","","12","11","9","true","false","true","both pre & post","LEFT","LEFT","f","1","true","","","",""
"","html-keyboard-response","448","546583","0.0-818.0","uhkj9p6g","1920","1080","","","","","","","","","","","null","+","Fixation - short","","null","","","","","","","","","","","","","","","","",""
"","html-keyboard-response","449","547163","0.0-819.0","uhkj9p6g","","","","","","","","","","","","","577","wab","Diagnostic trial","","j","","12","12","9","true","false","false","both pre & post","RIGHT","RIGHT","j","1","true","","","",""
"","html-keyboard-response","450","547925","0.0-822.0","uhkj9p6g","1920","1080","","","","","","","","","","","null","+","Fixation - short","","null","","","","","","","","","","","","","","","","",""
"","html-keyboard-response","451","548721","0.0-823.0","uhkj9p6g","","","","","","","","","","","","","795","wab","Inducer trial","","j","","12","","","","true","","","","","j","1","","false","RIGHT","",""
