"value","trial_type","trial_index","time_elapsed","internal_node_id","id","width","height","webaudio","browser","browser_version","mobile","os","fullscreen","vsync_rate","webcam","microphone","view_history","rt","stimulus","trial_info","success","response","exp_parameters","inducer_run","diagnostic_run","cue_num","post_cue","inducer_trial","italic","forced_equal_run","correct_inducer_response_side","correct_diag_response_side","correct_response_key","correct_response","congruent","force_equal","correct_indu_response_side","accuracy","interactive"
"","call-function","0","32","0.0-0.0","3c8nuoad","","","","","","","","","","","","","","","","","","","","","","","","","","","","","","","","","",""
"","browser-check","1","1042","0.0-1.0","3c8nuoad","1536","711","true","firefox","124.0.0","false","Windows 10","true","59.94","true","true","","","","","","","","","","","","","","","","","","","","","","",""
"","instructions","2","62038","0.0-2.0","3c8nuoad","","","","","","","","","","","","[{""page_index"":0,""viewing_time"":33592},{""page_index"":1,""viewing_time"":15383},{""page_index"":2,""viewing_time"":12019}]","60994","The experiment and consent","The experiment and consent","","","","","","","","","","","","","","","","","","",""
"","fullscreen","3","69701","0.0-3.0","3c8nuoad","","","","","","","","","","","","","6649","","Full screen","true","","","","","","","","","","","","","","","","","",""
"","instructions","4","153115","0.0-4.0","3c8nuoad","","","","","","","","","","","","[{""page_index"":0,""viewing_time"":69175},{""page_index"":1,""viewing_time"":14237}]","83412","Instructions","Basic overview explanation","","","","","","","","","","","","","","","","","","",""
"","html-keyboard-response","5","167767","0.0-5.0","3c8nuoad","","","","","","","","","","","","","13149","If italic press LEFT | If upright press RIGHT","Diagnostic instructions",""," ","{""debug"":false,""skip_instructions"":false,""skip_practice"":false,""save_local_data"":false,""studu_name"":""exp2"",""default_background_colour"":""#cccccc"",""wrong_response_colour"":""#d22d2d"",""instruction_delay"":20000,""trial_duration"":2000,""short_fixation"":750,""long_fixation"":1500,""wrong_response_delay"":300,""too_slow_delay"":300,""instruction_font_size"":""24px"",""general_font_size"":""42px"",""fixation_size"":""48px"",""allowed_responses"":[""f"",""j""],""cue_min_length"":0,""cue_max_length"":4,""tot_post_cue_len"":72,""cue_colour"":""blue"",""cue_shape"":""Triangle"",""cue_size"":70,""cue_duration"":1250,""avg_number_of_cues"":3,""inducer_colour"":""red"",""number_of_inducers"":24,""pre_cue_italic_forced_equal"":true,""post_cue_italic_forced_equal"":true,""prac_diagnostic_rounds"":16,""prac_inducer_rounds"":6,""prac_cue_rounds"":16,""prac_post_cue_num"":3}","","","","","","","","","","","","","","","",""
"","html-keyboard-response","6","168520","0.0-6.0","3c8nuoad","1536","864","","","","","","","","","","","null","+","Fixation - short","","null","","","","","","","","","","","","","","","","",""
"","html-keyboard-response","7","169694","0.0-7.0","3c8nuoad","","","","","","","","","","","","","1173","faq","Diagnostic practice","","f","","Diagnostic practice","0","-84","true","false","true","prac equal","LEFT","LEFT","f","1","true","","","",""
"","html-keyboard-response","8","170458","0.0-10.0","3c8nuoad","1536","864","","","","","","","","","","","null","+","Fixation - short","","null","","","","","","","","","","","","","","","","",""
"","html-keyboard-response","9","171318","0.0-11.0","3c8nuoad","","","","","","","","","","","","","859","asn","Diagnostic practice","","j","","Diagnostic practice","1","-84","true","false","false","prac equal","RIGHT","RIGHT","j","1","true","","","",""
"","html-keyboard-response","10","172074","0.0-14.0","3c8nuoad","1536","864","","","","","","","","","","","null","+","Fixation - short","","null","","","","","","","","","","","","","","","","",""
"","html-keyboard-response","11","172678","0.0-15.0","3c8nuoad","","","","","","","","","","","","","603","faq","Diagnostic practice","","f","","Diagnostic practice","2","-84","true","false","true","prac equal","LEFT","LEFT","f","1","true","","","",""
"","html-keyboard-response","12","173447","0.0-18.0","3c8nuoad","1536","864","","","","","","","","","","","null","+","Fixation - short","","null","","","","","","","","","","","","","","","","",""
"","html-keyboard-response","13","174085","0.0-19.0","3c8nuoad","","","","","","","","","","","","","638","asn","Diagnostic practice","","j","","Diagnostic practice","3","-84","true","false","false","prac equal","RIGHT","RIGHT","j","1","true","","","",""
"","html-keyboard-response","14","174851","0.0-22.0","3c8nuoad","1536","864","","","","","","","","","","","null","+","Fixation - short","","null","","","","","","","","","","","","","","","","",""
"","html-keyboard-response","15","175366","0.0-23.0","3c8nuoad","","","","","","","","","","","","","514","faq","Diagnostic practice","","f","","Diagnostic practice","4","-84","true","false","true","prac equal","LEFT","LEFT","f","1","true","","","",""
"","html-keyboard-response","16","176132","0.0-26.0","3c8nuoad","1536","864","","","","","","","","","","","null","+","Fixation - short","","null","","","","","","","","","","","","","","","","",""
"","html-keyboard-response","17","177455","0.0-27.0","3c8nuoad","","","","","","","","","","","","","1321","faq","Diagnostic practice","","j","","Diagnostic practice","5","-84","true","false","false","prac equal","LEFT","RIGHT","j","1","false","","","",""
"","html-keyboard-response","18","178205","0.0-30.0","3c8nuoad","1536","864","","","","","","","","","","","null","+","Fixation - short","","null","","","","","","","","","","","","","","","","",""
"","html-keyboard-response","19","178854","0.0-31.0","3c8nuoad","","","","","","","","","","","","","648","asn","Diagnostic practice","","j","","Diagnostic practice","6","-84","true","false","false","prac equal","RIGHT","RIGHT","j","1","true","","","",""
"","html-keyboard-response","20","179609","0.0-34.0","3c8nuoad","1536","864","","","","","","","","","","","null","+","Fixation - short","","null","","","","","","","","","","","","","","","","",""
"","html-keyboard-response","21","180175","0.0-35.0","3c8nuoad","","","","","","","","","","","","","565","asn","Diagnostic practice","","j","","Diagnostic practice","7","-84","true","false","false","prac equal","RIGHT","RIGHT","j","1","true","","","",""
"","html-keyboard-response","22","180928","0.0-38.0","3c8nuoad","1536","864","","","","","","","","","","","null","+","Fixation - short","","null","","","","","","","","","","","","","","","","",""
"","html-keyboard-response","23","181479","0.0-39.0","3c8nuoad","","","","","","","","","","","","","550","asn","Diagnostic practice","","j","","Diagnostic practice","8","-84","true","false","false","prac equal","RIGHT","RIGHT","j","1","true","","","",""
"","html-keyboard-response","24","182244","0.0-42.0","3c8nuoad","1536","864","","","","","","","","","","","null","+","Fixation - short","","null","","","","","","","","","","","","","","","","",""
"","html-keyboard-response","25","182814","0.0-43.0","3c8nuoad","","","","","","","","","","","","","569","faq","Diagnostic practice","","f","","Diagnostic practice","9","-84","true","false","true","prac equal","LEFT","LEFT","f","1","true","","","",""
"","html-keyboard-response","26","183575","0.0-46.0","3c8nuoad","1536","864","","","","","","","","","","","null","+","Fixation - short","","null","","","","","","","","","","","","","","","","",""
"","html-keyboard-response","27","184342","0.0-47.0","3c8nuoad","","","","","","","","","","","","","767","faq","Diagnostic practice","","j","","Diagnostic practice","10","-84","true","false","false","prac equal","LEFT","RIGHT","j","1","false","","","",""
"","html-keyboard-response","28","185094","0.0-50.0","3c8nuoad","1536","864","","","","","","","","","","","null","+","Fixation - short","","null","","","","","","","","","","","","","","","","",""
"","html-keyboard-response","29","185702","0.0-51.0","3c8nuoad","","","","","","","","","","","","","606","asn","Diagnostic practice","","f","","Diagnostic practice","11","-84","true","false","true","prac equal","RIGHT","LEFT","f","1","false","","","",""
"","html-keyboard-response","30","186460","0.0-54.0","3c8nuoad","1536","864","","","","","","","","","","","null","+","Fixation - short","","null","","","","","","","","","","","","","","","","",""
"","html-keyboard-response","31","187046","0.0-55.0","3c8nuoad","","","","","","","","","","","","","585","asn","Diagnostic practice","","j","","Diagnostic practice","12","-84","true","false","false","prac equal","RIGHT","RIGHT","j","1","true","","","",""
"","html-keyboard-response","32","187800","0.0-58.0","3c8nuoad","1536","864","","","","","","","","","","","null","+","Fixation - short","","null","","","","","","","","","","","","","","","","",""
"","html-keyboard-response","33","188782","0.0-59.0","3c8nuoad","","","","","","","","","","","","","981","faq","Diagnostic practice","","f","","Diagnostic practice","13","-84","true","false","true","prac equal","LEFT","LEFT","f","1","true","","","",""
"","html-keyboard-response","34","189536","0.0-62.0","3c8nuoad","1536","864","","","","","","","","","","","null","+","Fixation - short","","null","","","","","","","","","","","","","","","","",""
"","html-keyboard-response","35","190093","0.0-63.0","3c8nuoad","","","","","","","","","","","","","557","asn","Diagnostic practice","","f","","Diagnostic practice","14","-84","true","false","true","prac equal","RIGHT","LEFT","f","1","false","","","",""
"","html-keyboard-response","36","190857","0.0-66.0","3c8nuoad","1536","864","","","","","","","","","","","null","+","Fixation - short","","null","","","","","","","","","","","","","","","","",""
"","html-keyboard-response","37","191350","0.0-67.0","3c8nuoad","","","","","","","","","","","","","493","faq","Diagnostic practice","","f","","Diagnostic practice","15","-84","true","false","true","prac equal","LEFT","LEFT","f","1","true","","","",""
"","html-keyboard-response","38","192115","0.0-70.0","3c8nuoad","1536","864","","","","","","","","","","","null","+","Fixation - short","","null","","","","","","","","","","","","","","","","",""
"","instructions","39","205974","0.0-71.0","3c8nuoad","","","","","","","","","","","","[{""page_index"":0,""viewing_time"":13858}]","13859","Instructions","Final experiment explanation","","","","","","","","","","","","","","","","","","",""
"","html-keyboard-response","40","219181","0.0-72.0","3c8nuoad","","","","","","","","","","","","","11703","If ufc press LEFT | If pxv press RIGHT","Inducer practice",""," ","","Practice","","","","","","","","","","","","","","",""
"","html-keyboard-response","41","219942","0.0-73.0","3c8nuoad","1536","864","","","","","","","","","","","null","+","Fixation - short","","null","","","","","","","","","","","","","","","","",""
"","html-keyboard-response","42","220567","0.0-74.0","3c8nuoad","","","","","","","","","","","","","624","ufc","Inducer practice","","f","","Practice","","","","true","","","","","f","1","","true","LEFT","",""
"","html-keyboard-response","43","221329","0.0-77.0","3c8nuoad","1536","864","","","","","","","","","","","null","+","Fixation - short","","null","","","","","","","","","","","","","","","","",""
"","html-keyboard-response","44","229069","0.0-78.0","3c8nuoad","","","","","","","","","","","","","7741","If fja press LEFT | If nga press RIGHT","Inducer practice",""," ","","Practice","","","","","","","","","","","","","","",""
"","html-keyboard-response","45","229832","0.0-79.0","3c8nuoad","1536","864","","","","","","","","","","","null","+","Fixation - short","","null","","","","","","","","","","","","","","","","",""
"","html-keyboard-response","46","230366","0.0-80.0","3c8nuoad","","","","","","","","","","","","","533","fja","Inducer practice","","f","","Practice","","","","true","","","","","f","1","","true","LEFT","",""
"","html-keyboard-response","47","231121","0.0-83.0","3c8nuoad","1536","864","","","","","","","","","","","null","+","Fixation - short","","null","","","","","","","","","","","","","","","","",""
"","html-keyboard-response","48","234774","0.0-84.0","3c8nuoad","","","","","","","","","","","","","3652","If pph press LEFT | If mvv press RIGHT","Inducer practice",""," ","","Practice","","","","","","","","","","","","","","",""
"","html-keyboard-response","49","235533","0.0-85.0","3c8nuoad","1536","864","","","","","","","","","","","null","+","Fixation - short","","null","","","","","","","","","","","","","","","","",""
"","html-keyboard-response","50","236037","0.0-86.0","3c8nuoad","","","","","","","","","","","","","504","pph","Inducer practice","","f","","Practice","","","","true","","","","","f","1","","true","LEFT","",""
"","html-keyboard-response","51","236799","0.0-89.0","3c8nuoad","1536","864","","","","","","","","","","","null","+","Fixation - short","","null","","","","","","","","","","","","","","","","",""
"","html-keyboard-response","52","239013","0.0-90.0","3c8nuoad","","","","","","","","","","","","","2212","If mda press LEFT | If pmf press RIGHT","Inducer practice",""," ","","Practice","","","","","","","","","","","","","","",""
"","html-keyboard-response","53","239770","0.0-91.0","3c8nuoad","1536","864","","","","","","","","","","","null","+","Fixation - short","","null","","","","","","","","","","","","","","","","",""
"","html-keyboard-response","54","240301","0.0-92.0","3c8nuoad","","","","","","","","","","","","","531","pmf","Inducer practice","","j","","Practice","","","","true","","","","","j","1","","true","RIGHT","",""
"","html-keyboard-response","55","241058","0.0-95.0","3c8nuoad","1536","864","","","","","","","","","","","null","+","Fixation - short","","null","","","","","","","","","","","","","","","","",""
"","html-keyboard-response","56","244101","0.0-96.0","3c8nuoad","","","","","","","","","","","","","3043","If lff press LEFT | If mts press RIGHT","Inducer practice",""," ","","Practice","","","","","","","","","","","","","","",""
"","html-keyboard-response","57","244867","0.0-97.0","3c8nuoad","1536","864","","","","","","","","","","","null","+","Fixation - short","","null","","","","","","","","","","","","","","","","",""
"","html-keyboard-response","58","245437","0.0-98.0","3c8nuoad","","","","","","","","","","","","","569","mts","Inducer practice","","j","","Practice","","","","true","","","","","j","1","","true","RIGHT","",""
"","html-keyboard-response","59","246188","0.0-101.0","3c8nuoad","1536","864","","","","","","","","","","","null","+","Fixation - short","","null","","","","","","","","","","","","","","","","",""
"","html-keyboard-response","60","248533","0.0-102.0","3c8nuoad","","","","","","","","","","","","","2344","If jup press LEFT | If byy press RIGHT","Inducer practice",""," ","","Practice","","","","","","","","","","","","","","",""
"","html-keyboard-response","61","249293","0.0-103.0","3c8nuoad","1536","864","","","","","","","","","","","null","+","Fixation - short","","null","","","","","","","","","","","","","","","","",""
"","html-keyboard-response","62","249767","0.0-104.0","3c8nuoad","","","","","","","","","","","","","472","byy","Inducer practice","","j","","Practice","","","","true","","","","","j","1","","true","RIGHT","",""
"","html-keyboard-response","63","250534","0.0-107.0","3c8nuoad","1536","864","","","","","","","","","","","null","+","Fixation - short","","null","","","","","","","","","","","","","","","","",""
"","instructions","64","283781","0.0-108.0","3c8nuoad","","","","","","","","","","","","[{""page_index"":0,""viewing_time"":33247}]","33247","Instructions","Final experiment explanation","","","","","","","","","","","","","","","","","","",""
"","html-keyboard-response","65","288958","0.0-109.0","3c8nuoad","","","","","","","","","","","","","3674","If anz press LEFT | If mik press RIGHT","Cue practice",""," ","","Practice","","","","","","","","","","","","","","",""
"","html-keyboard-response","66","289709","0.0-110.0","3c8nuoad","1536","864","","","","","","","","","","","null","+","Fixation - short","","null","","","","","","","","","","","","","","","","",""
"","html-keyboard-response","67","290653","0.0-111.0","3c8nuoad","","","","","","","","","","","","","944","anz","Cue practice","","f","","Practice","0","13","false","false","false","both pre & post","LEFT","RIGHT","j","0","false","","","",""
"","call-function","68","290654","0.0-113.0-0.0","3c8nuoad","","","","","","","","","","","","","","","","","","","","","","","","","","","","","","","","","",""
"","html-keyboard-response","69","290960","0.0-113.0-1.0","3c8nuoad","1536","864","","","","","","","","","","","null","Wrong","Feedback","","null","","","","","","","","","","","","","","","","",""
"","call-function","70","290961","0.0-113.0-2.0","3c8nuoad","","","","","","","","","","","","","","","","","","","","","","","","","","","","","","","","","",""
"","html-keyboard-response","71","291723","0.0-114.0","3c8nuoad","1536","864","","","","","","","","","","","null","+","Fixation - short","","null","","","","","","","","","","","","","","","","",""
"","html-keyboard-response","72","295110","0.0-115.0","3c8nuoad","","","","","","","","","","","","","3386","mik","Cue practice","","j","","Practice","1","13","false","false","true","both pre & post","RIGHT","LEFT","f","0","false","","","",""
"","call-function","73","295111","0.0-117.0-0.0","3c8nuoad","","","","","","","","","","","","","","","","","","","","","","","","","","","","","","","","","",""
"","html-keyboard-response","74","295417","0.0-117.0-1.0","3c8nuoad","1536","864","","","","","","","","","","","null","Wrong","Feedback","","null","","","","","","","","","","","","","","","","",""
"","call-function","75","295418","0.0-117.0-2.0","3c8nuoad","","","","","","","","","","","","","","","","","","","","","","","","","","","","","","","","","",""
"","html-keyboard-response","76","296173","0.0-118.0","3c8nuoad","1536","864","","","","","","","","","","","null","+","Fixation - short","","null","","","","","","","","","","","","","","","","",""
"","html-keyboard-response","77","297637","0.0-119.0","3c8nuoad","","","","","","","","","","","","","1464","mik","Cue practice","","j","","Practice","2","13","false","false","true","both pre & post","RIGHT","LEFT","f","0","false","","","",""
"","call-function","78","297638","0.0-121.0-0.0","3c8nuoad","","","","","","","","","","","","","","","","","","","","","","","","","","","","","","","","","",""
"","html-keyboard-response","79","297940","0.0-121.0-1.0","3c8nuoad","1536","864","","","","","","","","","","","null","Wrong","Feedback","","null","","","","","","","","","","","","","","","","",""
"","call-function","80","297940","0.0-121.0-2.0","3c8nuoad","","","","","","","","","","","","","","","","","","","","","","","","","","","","","","","","","",""
"","html-keyboard-response","81","298726","0.0-122.0","3c8nuoad","1536","864","","","","","","","","","","","null","+","Fixation - short","","null","","","","","","","","","","","","","","","","",""
"","html-keyboard-response","82","300469","0.0-123.0","3c8nuoad","","","","","","","","","","","","","1742","anz","Cue practice","","j","","Practice","3","13","false","false","false","both pre & post","LEFT","RIGHT","j","1","false","","","",""
"","html-keyboard-response","83","301225","0.0-126.0","3c8nuoad","1536","864","","","","","","","","","","","null","+","Fixation - short","","null","","","","","","","","","","","","","","","","",""
"","html-keyboard-response","84","302565","0.0-127.0","3c8nuoad","","","","","","","","","","","","","1339","anz","Cue practice","","f","","Practice","4","13","false","false","false","both pre & post","LEFT","RIGHT","j","0","false","","","",""
"","call-function","85","302565","0.0-129.0-0.0","3c8nuoad","","","","","","","","","","","","","","","","","","","","","","","","","","","","","","","","","",""
"","html-keyboard-response","86","302873","0.0-129.0-1.0","3c8nuoad","1536","864","","","","","","","","","","","null","Wrong","Feedback","","null","","","","","","","","","","","","","","","","",""
"","call-function","87","302873","0.0-129.0-2.0","3c8nuoad","","","","","","","","","","","","","","","","","","","","","","","","","","","","","","","","","",""
"","html-keyboard-response","88","303637","0.0-130.0","3c8nuoad","1536","864","","","","","","","","","","","null","+","Fixation - short","","null","","","","","","","","","","","","","","","","",""
"","html-keyboard-response","89","304310","0.0-131.0","3c8nuoad","","","","","","","","","","","","","671","anz","Cue practice","","j","","Practice","5","13","false","false","false","both pre & post","LEFT","RIGHT","j","1","false","","","",""
"","html-keyboard-response","90","305078","0.0-134.0","3c8nuoad","1536","864","","","","","","","","","","","null","+","Fixation - short","","null","","","","","","","","","","","","","","","","",""
"","html-keyboard-response","91","306277","0.0-135.0","3c8nuoad","","","","","","","","","","","","","1198","mik","Cue practice","","f","","Practice","6","13","false","false","false","both pre & post","RIGHT","RIGHT","j","0","true","","","",""
"","call-function","92","306277","0.0-137.0-0.0","3c8nuoad","","","","","","","","","","","","","","","","","","","","","","","","","","","","","","","","","",""
"","html-keyboard-response","93","306581","0.0-137.0-1.0","3c8nuoad","1536","864","","","","","","","","","","","null","Wrong","Feedback","","null","","","","","","","","","","","","","","","","",""
"","call-function","94","306582","0.0-137.0-2.0","3c8nuoad","","","","","","","","","","","","","","","","","","","","","","","","","","","","","","","","","",""
"","html-keyboard-response","95","307344","0.0-138.0","3c8nuoad","1536","864","","","","","","","","","","","null","+","Fixation - short","","null","","","","","","","","","","","","","","","","",""
"","html-keyboard-response","96","310742","0.0-139.0","3c8nuoad","","","","","","","","","","","","","3396","anz","Cue practice","","j","","Practice","7","13","false","false","true","both pre & post","LEFT","LEFT","f","0","true","","","",""
"","call-function","97","310742","0.0-141.0-0.0","3c8nuoad","","","","","","","","","","","","","","","","","","","","","","","","","","","","","","","","","",""
"","html-keyboard-response","98","311053","0.0-141.0-1.0","3c8nuoad","1536","864","","","","","","","","","","","null","Wrong","Feedback","","null","","","","","","","","","","","","","","","","",""
"","call-function","99","311054","0.0-141.0-2.0","3c8nuoad","","","","","","","","","","","","","","","","","","","","","","","","","","","","","","","","","",""
"","html-keyboard-response","100","311809","0.0-142.0","3c8nuoad","1536","864","","","","","","","","","","","null","+","Fixation - short","","null","","","","","","","","","","","","","","","","",""
"","html-keyboard-response","101","313085","0.0-143.0","3c8nuoad","","","","","","","","","","","","","1276","anz","Cue practice","","f","","Practice","8","13","false","false","true","both pre & post","LEFT","LEFT","f","1","true","","","",""
"","html-keyboard-response","102","313851","0.0-146.0","3c8nuoad","1536","864","","","","","","","","","","","null","+","Fixation - short","","null","","","","","","","","","","","","","","","","",""
"","html-keyboard-response","103","314949","0.0-147.0","3c8nuoad","","","","","","","","","","","","","1097","anz","Cue practice","","f","","Practice","9","13","false","false","true","both pre & post","LEFT","LEFT","f","1","true","","","",""
"","html-keyboard-response","104","315702","0.0-150.0","3c8nuoad","1536","864","","","","","","","","","","","null","+","Fixation - short","","null","","","","","","","","","","","","","","","","",""
"","html-keyboard-response","105","316325","0.0-151.0","3c8nuoad","","","","","","","","","","","","","622","anz","Cue practice","","f","","Practice","10","13","false","false","true","both pre & post","LEFT","LEFT","f","1","true","","","",""
"","html-keyboard-response","106","317089","0.0-154.0","3c8nuoad","1536","864","","","","","","","","","","","null","+","Fixation - short","","null","","","","","","","","","","","","","","","","",""
"","html-keyboard-response","107","318069","0.0-155.0","3c8nuoad","","","","","","","","","","","","","979","anz","Cue practice","","j","","Practice","11","13","false","false","false","both pre & post","LEFT","RIGHT","j","1","false","","","",""
"","html-keyboard-response","108","318825","0.0-158.0","3c8nuoad","1536","864","","","","","","","","","","","null","+","Fixation - short","","null","","","","","","","","","","","","","","","","",""
"","html-keyboard-response","109","319830","0.0-159.0","3c8nuoad","","","","","","","","","","","","","1004","anz","Cue practice","","f","","Practice","12","13","false","false","true","both pre & post","LEFT","LEFT","f","1","true","","","",""
"","html-keyboard-response","110","320598","0.0-162.0","3c8nuoad","1536","864","","","","","","","","","","","null","+","Fixation - short","","null","","","","","","","","","","","","","","","","",""
"","canvas-keyboard-response","111","321853","0.0-163.0","3c8nuoad","","","","","","","","","","","","","null","Cue","Cue","","null","","Practice","12","","","false","","","","","","","","","","",""
"","html-keyboard-response","112","322617","0.0-164.0","3c8nuoad","1536","864","","","","","","","","","","","null","+","Fixation - short","","null","","","","","","","","","","","","","","","","",""
"","html-keyboard-response","113","324789","0.0-165.0","3c8nuoad","","","","","","","","","","","","","2171","anz","Cue practice","","f","","Practice","13","13","true","false","true","both pre & post","LEFT","LEFT","f","1","true","","","",""
"","html-keyboard-response","114","325553","0.0-168.0","3c8nuoad","1536","864","","","","","","","","","","","null","+","Fixation - short","","null","","","","","","","","","","","","","","","","",""
"","html-keyboard-response","115","326885","0.0-169.0","3c8nuoad","","","","","","","","","","","","","1331","mik","Cue practice","","j","","Practice","14","13","true","false","false","both pre & post","RIGHT","RIGHT","j","1","true","","","",""
"","html-keyboard-response","116","327637","0.0-172.0","3c8nuoad","1536","864","","","","","","","","","","","null","+","Fixation - short","","null","","","","","","","","","","","","","","","","",""
"","html-keyboard-response","117","328541","0.0-173.0","3c8nuoad","","","","","","","","","","","","","904","mik","Cue practice","","f","","Practice","15","13","true","false","true","both pre & post","RIGHT","LEFT","f","1","false","","","",""
"","html-keyboard-response","118","329294","0.0-176.0","3c8nuoad","1536","864","","","","","","","","","","","null","+","Fixation - short","","null","","","","","","","","","","","","","","","","",""
"","html-keyboard-response","119","332245","0.0-177.0","3c8nuoad","","","","","","","","","","","","","2950","mik","Inducer practice","","f","","Practice","","","","true","","","","","j","0","","false","RIGHT","",""
"","call-function","120","332246","0.0-179.0-0.0","3c8nuoad","","","","","","","","","","","","","","","","","","","","","","","","","","","","","","","","","",""
"","html-keyboard-response","121","332552","0.0-179.0-1.0","3c8nuoad","1536","864","","","","","","","","","","","null","Wrong","Feedback","","null","","","","","","","","","","","","","","","","",""
"","call-function","122","332552","0.0-179.0-2.0","3c8nuoad","","","","","","","","","","","","","","","","","","","","","","","","","","","","","","","","","",""
"","html-keyboard-response","123","333307","0.0-180.0","3c8nuoad","1536","864","","","","","","","","","","","null","+","Fixation - short","","null","","","","","","","","","","","","","","","","",""
"","instructions","124","345363","0.0-181.0","3c8nuoad","","","","","","","","","","","","[{""page_index"":0,""viewing_time"":12054}]","12054","End practice","End of practice","","","","","","","","","","","","","","","","","","",""
"","html-keyboard-response","125","348371","0.0-182.0","3c8nuoad","1536","864","","","","","","","","","","","null","+","Fixation - long","","null","","","","","","","","","","","","","","","","",""
"","html-keyboard-response","126","368381","0.0-183.0","3c8nuoad","","","","","","","","","","","","","null","If tkb press LEFT | If ttm press RIGHT","Inducer instructions","","null","","0","","","","","","","","","","","","","","",""
"","html-keyboard-response","127","369137","0.0-184.0","3c8nuoad","1536","864","","","","","","","","","","","null","+","Fixation - short","","null","","","","","","","","","","","","","","","","",""
"","html-keyboard-response","128","371142","0.0-185.0","3c8nuoad","","","","","","","","","","","","","null","ttm","Diagnostic trial","","null","","0","0","5","false","false","false","both pre & post","RIGHT","RIGHT","j","NaN","true","","","",""
"","call-function","129","371142","0.0-186.0-0.0","3c8nuoad","","","","","","","","","","","","","","","","","","","","","","","","","","","","","","","","","",""
"","html-keyboard-response","130","371458","0.0-186.0-1.0","3c8nuoad","1536","864","","","","","","","","","","","null","Slow","Feedback","","null","","","","","","","","","","","","","","","","",""
"","call-function","131","371459","0.0-186.0-2.0","3c8nuoad","","","","","","","","","","","","","","","","","","","","","","","","","","","","","","","","","",""
"","html-keyboard-response","132","372228","0.0-188.0","3c8nuoad","1536","864","","","","","","","","","","","null","+","Fixation - short","","null","","","","","","","","","","","","","","","","",""
"","html-keyboard-response","133","374233","0.0-189.0","3c8nuoad","","","","","","","","","","","","","null","ttm","Diagnostic trial","","null","","0","1","5","false","false","false","both pre & post","RIGHT","RIGHT","j","NaN","true","","","",""
"","call-function","134","374233","0.0-190.0-0.0","3c8nuoad","","","","","","","","","","","","","","","","","","","","","","","","","","","","","","","","","",""
"","html-keyboard-response","135","374550","0.0-190.0-1.0","3c8nuoad","1536","864","","","","","","","","","","","null","Slow","Feedback","","null","","","","","","","","","","","","","","","","",""
"","call-function","136","374550","0.0-190.0-2.0","3c8nuoad","","","","","","","","","","","","","","","","","","","","","","","","","","","","","","","","","",""
"","html-keyboard-response","137","375314","0.0-192.0","3c8nuoad","1536","864","","","","","","","","","","","null","+","Fixation - short","","null","","","","","","","","","","","","","","","","",""
"","html-keyboard-response","138","377321","0.0-193.0","3c8nuoad","","","","","","","","","","","","","null","ttm","Diagnostic trial","","null","","0","2","5","false","false","false","both pre & post","RIGHT","RIGHT","j","NaN","true","","","",""
"","call-function","139","377321","0.0-194.0-0.0","3c8nuoad","","","","","","","","","","","","","","","","","","","","","","","","","","","","","","","","","",""
"","html-keyboard-response","140","377635","0.0-194.0-1.0","3c8nuoad","1536","864","","","","","","","","","","","null","Slow","Feedback","","null","","","","","","","","","","","","","","","","",""
"","call-function","141","377636","0.0-194.0-2.0","3c8nuoad","","","","","","","","","","","","","","","","","","","","","","","","","","","","","","","","","",""
"","html-keyboard-response","142","378390","0.0-196.0","3c8nuoad","1536","864","","","","","","","","","","","null","+","Fixation - short","","null","","","","","","","","","","","","","","","","",""
"","html-keyboard-response","143","380373","0.0-197.0","3c8nuoad","","","","","","","","","","","","","1982","tkb","Diagnostic trial","","j","","0","3","5","false","false","true","both pre & post","LEFT","LEFT","f","0","true","","","",""
"","call-function","144","380373","0.0-199.0-0.0","3c8nuoad","","","","","","","","","","","","","","","","","","","","","","","","","","","","","","","","","",""
"","html-keyboard-response","145","380681","0.0-199.0-1.0","3c8nuoad","1536","864","","","","","","","","","","","null","Wrong","Feedback","","null","","","","","","","","","","","","","","","","",""
"","call-function","146","380681","0.0-199.0-2.0","3c8nuoad","","","","","","","","","","","","","","","","","","","","","","","","","","","","","","","","","",""
"","html-keyboard-response","147","381444","0.0-200.0","3c8nuoad","1536","864","","","","","","","","","","","null","+","Fixation - short","","null","","","","","","","","","","","","","","","","",""
"","html-keyboard-response","148","383333","0.0-201.0","3c8nuoad","","","","","","","","","","","","","1889","ttm","Diagnostic trial","","j","","0","4","5","false","false","false","both pre & post","RIGHT","RIGHT","j","1","true","","","",""
"","html-keyboard-response","149","384089","0.0-204.0","3c8nuoad","1536","864","","","","","","","","","","","null","+","Fixation - short","","null","","","","","","","","","","","","","","","","",""
"","canvas-keyboard-response","150","385354","0.0-205.0","3c8nuoad","","","","","","","","","","","","","null","Cue","Cue","","null","","0","4","","","false","","","","","","","","","","",""
"","html-keyboard-response","151","386109","0.0-206.0","3c8nuoad","1536","864","","","","","","","","","","","null","+","Fixation - short","","null","","","","","","","","","","","","","","","","",""
"","html-keyboard-response","152","387701","0.0-207.0","3c8nuoad","","","","","","","","","","","","","1590","tkb","Diagnostic trial","","f","","0","5","5","true","false","false","both pre & post","LEFT","RIGHT","j","0","false","","","",""
"","call-function","153","387701","0.0-209.0-0.0","3c8nuoad","","","","","","","","","","","","","","","","","","","","","","","","","","","","","","","","","",""
"","html-keyboard-response","154","388021","0.0-209.0-1.0","3c8nuoad","1536","864","","","","","","","","","","","null","Wrong","Feedback","","null","","","","","","","","","","","","","","","","",""
"","call-function","155","388021","0.0-209.0-2.0","3c8nuoad","","","","","","","","","","","","","","","","","","","","","","","","","","","","","","","","","",""
"","html-keyboard-response","156","388791","0.0-210.0","3c8nuoad","1536","864","","","","","","","","","","","null","+","Fixation - short","","null","","","","","","","","","","","","","","","","",""
"","html-keyboard-response","157","390468","0.0-211.0","3c8nuoad","","","","","","","","","","","","","1676","ttm","Diagnostic trial","","j","","0","6","5","true","false","true","both pre & post","RIGHT","LEFT","f","0","false","","","",""
"","call-function","158","390469","0.0-213.0-0.0","3c8nuoad","","","","","","","","","","","","","","","","","","","","","","","","","","","","","","","","","",""
"","html-keyboard-response","159","390775","0.0-213.0-1.0","3c8nuoad","1536","864","","","","","","","","","","","null","Wrong","Feedback","","null","","","","","","","","","","","","","","","","",""
"","call-function","160","390775","0.0-213.0-2.0","3c8nuoad","","","","","","","","","","","","","","","","","","","","","","","","","","","","","","","","","",""
"","html-keyboard-response","161","391531","0.0-214.0","3c8nuoad","1536","864","","","","","","","","","","","null","+","Fixation - short","","null","","","","","","","","","","","","","","","","",""
"","html-keyboard-response","162","392517","0.0-215.0","3c8nuoad","","","","","","","","","","","","","986","ttm","Diagnostic trial","","f","","0","7","5","true","false","true","both pre & post","RIGHT","LEFT","f","1","false","","","",""
"","html-keyboard-response","163","393282","0.0-218.0","3c8nuoad","1536","864","","","","","","","","","","","null","+","Fixation - short","","null","","","","","","","","","","","","","","","","",""
"","html-keyboard-response","164","394260","0.0-219.0","3c8nuoad","","","","","","","","","","","","","978","ttm","Diagnostic trial","","j","","0","8","5","true","false","false","both pre & post","RIGHT","RIGHT","j","1","true","","","",""
"","html-keyboard-response","165","395024","0.0-222.0","3c8nuoad","1536","864","","","","","","","","","","","null","+","Fixation - short","","null","","","","","","","","","","","","","","","","",""
"","html-keyboard-response","166","396276","0.0-223.0","3c8nuoad","","","","","","","","","","","","","1252","ttm","Inducer trial","","f","","0","","","","true","","","","","j","0","","false","RIGHT","",""
"","call-function","167","396276","0.0-225.0-0.0","3c8nuoad","","","","","","","","","","","","","","","","","","","","","","","","","","","","","","","","","",""
"","html-keyboard-response","168","396590","0.0-225.0-1.0","3c8nuoad","1536","864","","","","","","","","","","","null","Wrong","Feedback","","null","","","","","","","","","","","","","","","","",""
"","call-function","169","396590","0.0-225.0-2.0","3c8nuoad","","","","","","","","","","","","","","","","","","","","","","","","","","","","","","","","","",""
"","html-keyboard-response","170","397345","0.0-226.0","3c8nuoad","1536","864","","","","","","","","","","","null","+","Fixation - short","","null","","","","","","","","","","","","","","","","",""
"","html-keyboard-response","171","402781","0.0-227.0","3c8nuoad","","","","","","","","","","","","","5435","If iei press LEFT | If efg press RIGHT","Inducer instructions",""," ","","1","","","","","","","","","","","","","","",""
"","html-keyboard-response","172","403542","0.0-228.0","3c8nuoad","1536","864","","","","","","","","","","","null","+","Fixation - short","","null","","","","","","","","","","","","","","","","",""
"","html-keyboard-response","173","405356","0.0-229.0","3c8nuoad","","","","","","","","","","","","","1815","efg","Diagnostic trial","","j","","1","0","12","false","false","false","both pre & post","RIGHT","RIGHT","j","1","true","","","",""
"","html-keyboard-response","174","406116","0.0-232.0","3c8nuoad","1536","864","","","","","","","","","","","null","+","Fixation - short","","null","","","","","","","","","","","","","","","","",""
"","html-keyboard-response","175","407556","0.0-233.0","3c8nuoad","","","","","","","","","","","","","1439","efg","Diagnostic trial","","f","","1","1","12","false","false","true","both pre & post","RIGHT","LEFT","f","1","false","","","",""
"","html-keyboard-response","176","408321","0.0-236.0","3c8nuoad","1536","864","","","","","","","","","","","null","+","Fixation - short","","null","","","","","","","","","","","","","","","","",""
"","html-keyboard-response","177","409580","0.0-237.0","3c8nuoad","","","","","","","","","","","","","1260","iei","Diagnostic trial","","j","","1","2","12","false","false","false","both pre & post","LEFT","RIGHT","j","1","false","","","",""
"","html-keyboard-response","178","410338","0.0-240.0","3c8nuoad","1536","864","","","","","","","","","","","null","+","Fixation - short","","null","","","","","","","","","","","","","","","","",""
"","html-keyboard-response","179","411861","0.0-241.0","3c8nuoad","","","","","","","","","","","","","1521","iei","Diagnostic trial","","f","","1","3","12","false","false","true","both pre & post","LEFT","LEFT","f","1","true","","","",""
"","html-keyboard-response","180","412614","0.0-244.0","3c8nuoad","1536","864","","","","","","","","","","","null","+","Fixation - short","","null","","","","","","","","","","","","","","","","",""
"","html-keyboard-response","181","413845","0.0-245.0","3c8nuoad","","","","","","","","","","","","","1230","iei","Diagnostic trial","","f","","1","4","12","false","false","true","both pre & post","LEFT","LEFT","f","1","true","","","",""
"","html-keyboard-response","182","414595","0.0-248.0","3c8nuoad","1536","864","","","","","","","","","","","null","+","Fixation - short","","null","","","","","","","","","","","","","","","","",""
"","html-keyboard-response","183","415556","0.0-249.0","3c8nuoad","","","","","","","","","","","","","960","efg","Diagnostic trial","","j","","1","5","12","false","false","false","both pre & post","RIGHT","RIGHT","j","1","true","","","",""
"","html-keyboard-response","184","416321","0.0-252.0","3c8nuoad","1536","864","","","","","","","","","","","null","+","Fixation - short","","null","","","","","","","","","","","","","","","","",""
"","html-keyboard-response","185","417428","0.0-253.0","3c8nuoad","","","","","","","","","","","","","1106","efg","Diagnostic trial","","f","","1","6","12","false","false","true","both pre & post","RIGHT","LEFT","f","1","false","","","",""
"","html-keyboard-response","186","418188","0.0-256.0","3c8nuoad","1536","864","","","","","","","","","","","null","+","Fixation - short","","null","","","","","","","","","","","","","","","","",""
"","html-keyboard-response","187","419204","0.0-257.0","3c8nuoad","","","","","","","","","","","","","1015","iei","Diagnostic trial","","f","","1","7","12","false","false","true","both pre & post","LEFT","LEFT","f","1","true","","","",""
"","html-keyboard-response","188","419962","0.0-260.0","3c8nuoad","1536","864","","","","","","","","","","","null","+","Fixation - short","","null","","","","","","","","","","","","","","","","",""
"","html-keyboard-response","189","421068","0.0-261.0","3c8nuoad","","","","","","","","","","","","","1105","efg","Diagnostic trial","","j","","1","8","12","false","false","false","both pre & post","RIGHT","RIGHT","j","1","true","","","",""
"","html-keyboard-response","190","421832","0.0-264.0","3c8nuoad","1536","864","","","","","","","","","","","null","+","Fixation - short","","null","","","","","","","","","","","","","","","","",""
"","html-keyboard-response","191","422868","0.0-265.0","3c8nuoad","","","","","","","","","","","","","1035","iei","Diagnostic trial","","f","","1","9","12","false","false","false","both pre & post","LEFT","RIGHT","j","0","false","","","",""
"","call-function","192","422868","0.0-267.0-0.0","3c8nuoad","","","","","","","","","","","","","","","","","","","","","","","","","","","","","","","","","",""
"","html-keyboard-response","193","423187","0.0-267.0-1.0","3c8nuoad","1536","864","","","","","","","","","","","null","Wrong","Feedback","","null","","","","","","","","","","","","","","","","",""
"","call-function","194","423188","0.0-267.0-2.0","3c8nuoad","","","","","","","","","","","","","","","","","","","","","","","","","","","","","","","","","",""
"","html-keyboard-response","195","423951","0.0-268.0","3c8nuoad","1536","864","","","","","","","","","","","null","+","Fixation - short","","null","","","","","","","","","","","","","","","","",""
"","html-keyboard-response","196","425957","0.0-269.0","3c8nuoad","","","","","","","","","","","","","null","iei","Diagnostic trial","","null","","1","10","12","false","false","false","both pre & post","LEFT","RIGHT","j","NaN","false","","","",""
"","call-function","197","425958","0.0-270.0-0.0","3c8nuoad","","","","","","","","","","","","","","","","","","","","","","","","","","","","","","","","","",""
"","html-keyboard-response","198","426273","0.0-270.0-1.0","3c8nuoad","1536","864","","","","","","","","","","","null","Slow","Feedback","","null","","","","","","","","","","","","","","","","",""
"","call-function","199","426273","0.0-270.0-2.0","3c8nuoad","","","","","","","","","","","","","","","","","","","","","","","","","","","","","","","","","",""
"","html-keyboard-response","200","427027","0.0-272.0","3c8nuoad","1536","864","","","","","","","","","","","null","+","Fixation - short","","null","","","","","","","","","","","","","","","","",""
"","html-keyboard-response","201","428468","0.0-273.0","3c8nuoad","","","","","","","","","","","","","1440","efg","Diagnostic trial","","j","","1","11","12","false","false","false","both pre & post","RIGHT","RIGHT","j","1","true","","","",""
"","html-keyboard-response","202","429232","0.0-276.0","3c8nuoad","1536","864","","","","","","","","","","","null","+","Fixation - short","","null","","","","","","","","","","","","","","","","",""
"","canvas-keyboard-response","203","430504","0.0-277.0","3c8nuoad","","","","","","","","","","","","","null","Cue","Cue","","null","","1","11","","","false","","","","","","","","","","",""
"","html-keyboard-response","204","431268","0.0-278.0","3c8nuoad","1536","864","","","","","","","","","","","null","+","Fixation - short","","null","","","","","","","","","","","","","","","","",""
"","html-keyboard-response","205","432396","0.0-279.0","3c8nuoad","","","","","","","","","","","","","1126","iei","Diagnostic trial","","j","","1","12","12","true","false","false","both pre & post","LEFT","RIGHT","j","1","false","","","",""
"","html-keyboard-response","206","433149","0.0-282.0","3c8nuoad","1536","864","","","","","","","","","","","null","+","Fixation - short","","null","","","","","","","","","","","","","","","","",""
"","html-keyboard-response","207","434268","0.0-283.0","3c8nuoad","","","","","","","","","","","","","1118","efg","Inducer trial","","f","","1","","","","true","","","","","j","0","","false","RIGHT","",""
"","call-function","208","434268","0.0-285.0-0.0","3c8nuoad","","","","","","","","","","","","","","","","","","","","","","","","","","","","","","","","","",""
"","html-keyboard-response","209","434575","0.0-285.0-1.0","3c8nuoad","1536","864","","","","","","","","","","","null","Wrong","Feedback","","null","","","","","","","","","","","","","","","","",""
"","call-function","210","434575","0.0-285.0-2.0","3c8nuoad","","","","","","","","","","","","","","","","","","","","","","","","","","","","","","","","","",""
"","html-keyboard-response","211","435339","0.0-286.0","3c8nuoad","1536","864","","","","","","","","","","","null","+","Fixation - short","","null","","","","","","","","","","","","","","","","",""
"","html-keyboard-response","212","445044","0.0-287.0","3c8nuoad","","","","","","","","","","","","","9705","If bwe press LEFT | If pbz press RIGHT","Inducer instructions",""," ","","2","","","","","","","","","","","","","","",""
"","html-keyboard-response","213","445796","0.0-288.0","3c8nuoad","1536","864","","","","","","","","","","","null","+","Fixation - short","","null","","","","","","","","","","","","","","","","",""
"","html-keyboard-response","214","446972","0.0-289.0","3c8nuoad","","","","","","","","","","","","","1175","pbz","Diagnostic trial","","f","","2","0","5","false","false","false","both pre & post","RIGHT","RIGHT","j","0","true","","","",""
"","call-function","215","446973","0.0-291.0-0.0","3c8nuoad","","","","","","","","","","","","","","","","","","","","","","","","","","","","","","","","","",""
"","html-keyboard-response","216","447284","0.0-291.0-1.0","3c8nuoad","1536","864","","","","","","","","","","","null","Wrong","Feedback","","null","","","","","","","","","","","","","","","","",""
"","call-function","217","447285","0.0-291.0-2.0","3c8nuoad","","","","","","","","","","","","","","","","","","","","","","","","","","","","","","","","","",""
"","html-keyboard-response","218","448039","0.0-292.0","3c8nuoad","1536","864","","","","","","","","","","","null","+","Fixation - short","","null","","","","","","","","","","","","","","","","",""
"","html-keyboard-response","219","449173","0.0-293.0","3c8nuoad","","","","","","","","","","","","","1133","pbz","Diagnostic trial","","j","","2","1","5","false","false","false","both pre & post","RIGHT","RIGHT","j","1","true","","","",""
"","html-keyboard-response","220","449928","0.0-296.0","3c8nuoad","1536","864","","","","","","","","","","","null","+","Fixation - short","","null","","","","","","","","","","","","","","","","",""
"","html-keyboard-response","221","450605","0.0-297.0","3c8nuoad","","","","","","","","","","","","","677","pbz","Diagnostic trial","","j","","2","2","5","false","false","false","both pre & post","RIGHT","RIGHT","j","1","true","","","",""
"","html-keyboard-response","222","451363","0.0-300.0","3c8nuoad","1536","864","","","","","","","","","","","null","+","Fixation - short","","null","","","","","","","","","","","","","","","","",""
"","html-keyboard-response","223","452100","0.0-301.0","3c8nuoad","","","","","","","","","","","","","735","pbz","Diagnostic trial","","j","","2","3","5","false","false","false","both pre & post","RIGHT","RIGHT","j","1","true","","","",""
"","html-keyboard-response","224","452850","0.0-304.0","3c8nuoad","1536","864","","","","","","","","","","","null","+","Fixation - short","","null","","","","","","","","","","","","","","","","",""
"","html-keyboard-response","225","453932","0.0-305.0","3c8nuoad","","","","","","","","","","","","","1082","bwe","Diagnostic trial","","j","","2","4","5","false","false","false","both pre & post","LEFT","RIGHT","j","1","false","","","",""
"","html-keyboard-response","226","454696","0.0-308.0","3c8nuoad","1536","864","","","","","","","","","","","null","+","Fixation - short","","null","","","","","","","","","","","","","","","","",""
"","canvas-keyboard-response","227","455962","0.0-309.0","3c8nuoad","","","","","","","","","","","","","null","Cue","Cue","","null","","2","4","","","false","","","","","","","","","","",""
"","html-keyboard-response","228","456718","0.0-310.0","3c8nuoad","1536","864","","","","","","","","","","","null","+","Fixation - short","","null","","","","","","","","","","","","","","","","",""
"","html-keyboard-response","229","457604","0.0-311.0","3c8nuoad","","","","","","","","","","","","","886","bwe","Diagnostic trial","","j","","2","5","5","true","false","false","both pre & post","LEFT","RIGHT","j","1","false","","","",""
"","html-keyboard-response","230","458368","0.0-314.0","3c8nuoad","1536","864","","","","","","","","","","","null","+","Fixation - short","","null","","","","","","","","","","","","","","","","",""
"","html-keyboard-response","231","459757","0.0-315.0","3c8nuoad","","","","","","","","","","","","","1388","pbz","Inducer trial","","j","","2","","","","true","","","","","j","1","","false","RIGHT","",""
"","html-keyboard-response","232","460529","0.0-318.0","3c8nuoad","1536","864","","","","","","","","","","","null","+","Fixation - short","","null","","","","","","","","","","","","","","","","",""
"","html-keyboard-response","233","466500","0.0-319.0","3c8nuoad","","","","","","","","","","","","","5970","If sjn press LEFT | If lct press RIGHT","Inducer instructions",""," ","","3","","","","","","","","","","","","","","",""
"","html-keyboard-response","234","467261","0.0-320.0","3c8nuoad","1536","864","","","","","","","","","","","null","+","Fixation - short","","null","","","","","","","","","","","","","","","","",""
"","html-keyboard-response","235","468381","0.0-321.0","3c8nuoad","","","","","","","","","","","","","1119","lct","Diagnostic trial","","f","","3","0","9","false","false","true","both pre & post","RIGHT","LEFT","f","1","false","","","",""
"","html-keyboard-response","236","469150","0.0-324.0","3c8nuoad","1536","864","","","","","","","","","","","null","+","Fixation - short","","null","","","","","","","","","","","","","","","","",""
"","html-keyboard-response","237","470044","0.0-325.0","3c8nuoad","","","","","","","","","","","","","893","sjn","Diagnostic trial","","j","","3","1","9","false","false","false","both pre & post","LEFT","RIGHT","j","1","false","","","",""
"","html-keyboard-response","238","470802","0.0-328.0","3c8nuoad","1536","864","","","","","","","","","","","null","+","Fixation - short","","null","","","","","","","","","","","","","","","","",""
"","html-keyboard-response","239","471732","0.0-329.0","3c8nuoad","","","","","","","","","","","","","931","lct","Diagnostic trial","","j","","3","2","9","false","false","false","both pre & post","RIGHT","RIGHT","j","1","true","","","",""
"","html-keyboard-response","240","472489","0.0-332.0","3c8nuoad","1536","864","","","","","","","","","","","null","+","Fixation - short","","null","","","","","","","","","","","","","","","","",""
"","html-keyboard-response","241","473244","0.0-333.0","3c8nuoad","","","","","","","","","","","","","753","sjn","Diagnostic trial","","j","","3","3","9","false","false","false","both pre & post","LEFT","RIGHT","j","1","false","","","",""
"","html-keyboard-response","242","473995","0.0-336.0","3c8nuoad","1536","864","","","","","","","","","","","null","+","Fixation - short","","null","","","","","","","","","","","","","","","","",""
"","html-keyboard-response","243","474669","0.0-337.0","3c8nuoad","","","","","","","","","","","","","673","sjn","Diagnostic trial","","j","","3","4","9","false","false","false","both pre & post","LEFT","RIGHT","j","1","false","","","",""
"","html-keyboard-response","244","475427","0.0-340.0","3c8nuoad","1536","864","","","","","","","","","","","null","+","Fixation - short","","null","","","","","","","","","","","","","","","","",""
"","html-keyboard-response","245","476044","0.0-341.0","3c8nuoad","","","","","","","","","","","","","616","lct","Diagnostic trial","","j","","3","5","9","false","false","false","both pre & post","RIGHT","RIGHT","j","1","true","","","",""
"","html-keyboard-response","246","476807","0.0-344.0","3c8nuoad","1536","864","","","","","","","","","","","null","+","Fixation - short","","null","","","","","","","","","","","","","","","","",""
"","html-keyboard-response","247","477436","0.0-345.0","3c8nuoad","","","","","","","","","","","","","630","sjn","Diagnostic trial","","j","","3","6","9","false","false","false","both pre & post","LEFT","RIGHT","j","1","false","","","",""
"","html-keyboard-response","248","478195","0.0-348.0","3c8nuoad","1536","864","","","","","","","","","","","null","+","Fixation - short","","null","","","","","","","","","","","","","","","","",""
"","html-keyboard-response","249","479052","0.0-349.0","3c8nuoad","","","","","","","","","","","","","856","lct","Diagnostic trial","","f","","3","7","9","false","false","true","both pre & post","RIGHT","LEFT","f","1","false","","","",""
"","html-keyboard-response","250","479814","0.0-352.0","3c8nuoad","1536","864","","","","","","","","","","","null","+","Fixation - short","","null","","","","","","","","","","","","","","","","",""
"","html-keyboard-response","251","480860","0.0-353.0","3c8nuoad","","","","","","","","","","","","","1045","sjn","Diagnostic trial","","f","","3","8","9","false","false","true","both pre & post","LEFT","LEFT","f","1","true","","","",""
"","html-keyboard-response","252","481617","0.0-356.0","3c8nuoad","1536","864","","","","","","","","","","","null","+","Fixation - short","","null","","","","","","","","","","","","","","","","",""
"","canvas-keyboard-response","253","482882","0.0-357.0","3c8nuoad","","","","","","","","","","","","","null","Cue","Cue","","null","","3","8","","","false","","","","","","","","","","",""
"","html-keyboard-response","254","483638","0.0-358.0","3c8nuoad","1536","864","","","","","","","","","","","null","+","Fixation - short","","null","","","","","","","","","","","","","","","","",""
"","html-keyboard-response","255","484636","0.0-359.0","3c8nuoad","","","","","","","","","","","","","997","sjn","Diagnostic trial","","j","","3","9","9","true","false","false","both pre & post","LEFT","RIGHT","j","1","false","","","",""
"","html-keyboard-response","256","485388","0.0-362.0","3c8nuoad","1536","864","","","","","","","","","","","null","+","Fixation - short","","null","","","","","","","","","","","","","","","","",""
"","html-keyboard-response","257","486100","0.0-363.0","3c8nuoad","","","","","","","","","","","","","712","lct","Diagnostic trial","","f","","3","10","9","true","false","true","both pre & post","RIGHT","LEFT","f","1","false","","","",""
"","html-keyboard-response","258","486852","0.0-366.0","3c8nuoad","1536","864","","","","","","","","","","","null","+","Fixation - short","","null","","","","","","","","","","","","","","","","",""
"","html-keyboard-response","259","488092","0.0-367.0","3c8nuoad","","","","","","","","","","","","","1238","sjn","Diagnostic trial","","f","","3","11","9","true","false","true","both pre & post","LEFT","LEFT","f","1","true","","","",""
"","html-keyboard-response","260","488857","0.0-370.0","3c8nuoad","1536","864","","","","","","","","","","","null","+","Fixation - short","","null","","","","","","","","","","","","","","","","",""
"","html-keyboard-response","261","489579","0.0-371.0","3c8nuoad","","","","","","","","","","","","","721","sjn","Diagnostic trial","","f","","3","12","9","true","false","true","both pre & post","LEFT","LEFT","f","1","true","","","",""
"","html-keyboard-response","262","490338","0.0-374.0","3c8nuoad","1536","864","","","","","","","","","","","null","+","Fixation - short","","null","","","","","","","","","","","","","","","","",""
"","html-keyboard-response","263","491396","0.0-375.0","3c8nuoad","","","","","","","","","","","","","1058","lct","Inducer trial","","j","","3","","","","true","","","","","j","1","","false","RIGHT","",""
"","html-keyboard-response","264","492165","0.0-378.0","3c8nuoad","1536","864","","","","","","","","","","","null","+","Fixation - short","","null","","","","","","","","","","","","","","","","",""
"","html-keyboard-response","265","496772","0.0-379.0","3c8nuoad","","","","","","","","","","","","","4605","If cnl press LEFT | If ibg press RIGHT","Inducer instructions",""," ","","4","","","","","","","","","","","","","","",""
"","html-keyboard-response","266","497524","0.0-380.0","3c8nuoad","1536","864","","","","","","","","","","","null","+","Fixation - short","","null","","","","","","","","","","","","","","","","",""
"","html-keyboard-response","267","498404","0.0-381.0","3c8nuoad","","","","","","","","","","","","","879","ibg","Diagnostic trial","","f","","4","0","8","false","false","true","both pre & post","RIGHT","LEFT","f","1","false","","","",""
"","html-keyboard-response","268","499160","0.0-384.0","3c8nuoad","1536","864","","","","","","","","","","","null","+","Fixation - short","","null","","","","","","","","","","","","","","","","",""
"","html-keyboard-response","269","500052","0.0-385.0","3c8nuoad","","","","","","","","","","","","","892","ibg","Diagnostic trial","","j","","4","1","8","false","false","false","both pre & post","RIGHT","RIGHT","j","1","true","","","",""
"","html-keyboard-response","270","500811","0.0-388.0","3c8nuoad","1536","864","","","","","","","","","","","null","+","Fixation - short","","null","","","","","","","","","","","","","","","","",""
"","html-keyboard-response","271","501508","0.0-389.0","3c8nuoad","","","","","","","","","","","","","697","cnl","Diagnostic trial","","f","","4","2","8","false","false","true","both pre & post","LEFT","LEFT","f","1","true","","","",""
"","html-keyboard-response","272","502269","0.0-392.0","3c8nuoad","1536","864","","","","","","","","","","","null","+","Fixation - short","","null","","","","","","","","","","","","","","","","",""
"","html-keyboard-response","273","502955","0.0-393.0","3c8nuoad","","","","","","","","","","","","","685","cnl","Diagnostic trial","","f","","4","3","8","false","false","true","both pre & post","LEFT","LEFT","f","1","true","","","",""
"","html-keyboard-response","274","503719","0.0-396.0","3c8nuoad","1536","864","","","","","","","","","","","null","+","Fixation - short","","null","","","","","","","","","","","","","","","","",""
"","html-keyboard-response","275","504539","0.0-397.0","3c8nuoad","","","","","","","","","","","","","820","ibg","Diagnostic trial","","j","","4","4","8","false","false","false","both pre & post","RIGHT","RIGHT","j","1","true","","","",""
"","html-keyboard-response","276","505293","0.0-400.0","3c8nuoad","1536","864","","","","","","","","","","","null","+","Fixation - short","","null","","","","","","","","","","","","","","","","",""
"","html-keyboard-response","277","505915","0.0-401.0","3c8nuoad","","","","","","","","","","","","","623","ibg","Diagnostic trial","","j","","4","5","8","false","false","false","both pre & post","RIGHT","RIGHT","j","1","true","","","",""
"","html-keyboard-response","278","506680","0.0-404.0","3c8nuoad","1536","864","","","","","","","","","","","null","+","Fixation - short","","null","","","","","","","","","","","","","","","","",""
"","html-keyboard-response","279","507388","0.0-405.0","3c8nuoad","","","","","","","","","","","","","706","ibg","Diagnostic trial","","f","","4","6","8","false","false","true","both pre & post","RIGHT","LEFT","f","1","false","","","",""
"","html-keyboard-response","280","508141","0.0-408.0","3c8nuoad","1536","864","","","","","","","","","","","null","+","Fixation - short","","null","","","","","","","","","","","","","","","","",""
"","html-keyboard-response","281","508964","0.0-409.0","3c8nuoad","","","","","","","","","","","","","821","cnl","Diagnostic trial","","j","","4","7","8","false","false","false","both pre & post","LEFT","RIGHT","j","1","false","","","",""
"","html-keyboard-response","282","509715","0.0-412.0","3c8nuoad","1536","864","","","","","","","","","","","null","+","Fixation - short","","null","","","","","","","","","","","","","","","","",""
"","canvas-keyboard-response","283","510970","0.0-413.0","3c8nuoad","","","","","","","","","","","","","null","Cue","Cue","","null","","4","7","","","false","","","","","","","","","","",""
"","html-keyboard-response","284","511735","0.0-414.0","3c8nuoad","1536","864","","","","","","","","","","","null","+","Fixation - short","","null","","","","","","","","","","","","","","","","",""
"","html-keyboard-response","285","512947","0.0-415.0","3c8nuoad","","","","","","","","","","","","","1212","ibg","Diagnostic trial","","j","","4","8","8","true","false","false","both pre & post","RIGHT","RIGHT","j","1","true","","","",""
"","html-keyboard-response","286","513709","0.0-418.0","3c8nuoad","1536","864","","","","","","","","","","","null","+","Fixation - short","","null","","","","","","","","","","","","","","","","",""
"","html-keyboard-response","287","514380","0.0-419.0","3c8nuoad","","","","","","","","","","","","","670","ibg","Diagnostic trial","","j","","4","9","8","true","false","false","both pre & post","RIGHT","RIGHT","j","1","true","","","",""
"","html-keyboard-response","288","515144","0.0-422.0","3c8nuoad","1536","864","","","","","","","","","","","null","+","Fixation - short","","null","","","","","","","","","","","","","","","","",""
"","html-keyboard-response","289","515804","0.0-423.0","3c8nuoad","","","","","","","","","","","","","660","ibg","Diagnostic trial","","f","","4","10","8","true","false","true","both pre & post","RIGHT","LEFT","f","1","false","","","",""
"","html-keyboard-response","290","516568","0.0-426.0","3c8nuoad","1536","864","","","","","","","","","","","null","+","Fixation - short","","null","","","","","","","","","","","","","","","","",""
"","html-keyboard-response","291","517916","0.0-427.0","3c8nuoad","","","","","","","","","","","","","1348","ibg","Diagnostic trial","","j","","4","11","8","true","false","false","both pre & post","RIGHT","RIGHT","j","1","true","","","",""
"","html-keyboard-response","292","518673","0.0-430.0","3c8nuoad","1536","864","","","","","","","","","","","null","+","Fixation - short","","null","","","","","","","","","","","","","","","","",""
"","html-keyboard-response","293","519843","0.0-431.0","3c8nuoad","","","","","","","","","","","","","1171","ibg","Inducer trial","","j","","4","","","","true","","","","","j","1","","false","RIGHT","",""
"","html-keyboard-response","294","520603","0.0-434.0","3c8nuoad","1536","864","","","","","","","","","","","null","+","Fixation - short","","null","","","","","","","","","","","","","","","","",""
"","html-keyboard-response","295","524924","0.0-435.0","3c8nuoad","","","","","","","","","","","","","4319","If adj press LEFT | If rif press RIGHT","Inducer instructions",""," ","","5","","","","","","","","","","","","","","",""
"","html-keyboard-response","296","525684","0.0-436.0","3c8nuoad","1536","864","","","","","","","","","","","null","+","Fixation - short","","null","","","","","","","","","","","","","","","","",""
"","html-keyboard-response","297","526956","0.0-437.0","3c8nuoad","","","","","","","","","","","","","1272","adj","Diagnostic trial","","j","","5","0","9","false","false","false","both pre & post","LEFT","RIGHT","j","1","false","","","",""
"","html-keyboard-response","298","527718","0.0-440.0","3c8nuoad","1536","864","","","","","","","","","","","null","+","Fixation - short","","null","","","","","","","","","","","","","","","","",""
"","html-keyboard-response","299","528437","0.0-441.0","3c8nuoad","","","","","","","","","","","","","717","adj","Diagnostic trial","","f","","5","1","9","false","false","true","both pre & post","LEFT","LEFT","f","1","true","","","",""
"","html-keyboard-response","300","529192","0.0-444.0","3c8nuoad","1536","864","","","","","","","","","","","null","+","Fixation - short","","null","","","","","","","","","","","","","","","","",""
"","html-keyboard-response","301","530091","0.0-445.0","3c8nuoad","","","","","","","","","","","","","900","adj","Diagnostic trial","","f","","5","2","9","false","false","true","both pre & post","LEFT","LEFT","f","1","true","","","",""
"","html-keyboard-response","302","530843","0.0-448.0","3c8nuoad","1536","864","","","","","","","","","","","null","+","Fixation - short","","null","","","","","","","","","","","","","","","","",""
"","html-keyboard-response","303","531603","0.0-449.0","3c8nuoad","","","","","","","","","","","","","759","rif","Diagnostic trial","","f","","5","3","9","false","false","true","both pre & post","RIGHT","LEFT","f","1","false","","","",""
"","html-keyboard-response","304","532361","0.0-452.0","3c8nuoad","1536","864","","","","","","","","","","","null","+","Fixation - short","","null","","","","","","","","","","","","","","","","",""
"","html-keyboard-response","305","533036","0.0-453.0","3c8nuoad","","","","","","","","","","","","","673","rif","Diagnostic trial","","j","","5","4","9","false","false","false","both pre & post","RIGHT","RIGHT","j","1","true","","","",""
"","html-keyboard-response","306","533795","0.0-456.0","3c8nuoad","1536","864","","","","","","","","","","","null","+","Fixation - short","","null","","","","","","","","","","","","","","","","",""
"","html-keyboard-response","307","534580","0.0-457.0","3c8nuoad","","","","","","","","","","","","","783","adj","Diagnostic trial","","f","","5","5","9","false","false","true","both pre & post","LEFT","LEFT","f","1","true","","","",""
"","html-keyboard-response","308","535353","0.0-460.0","3c8nuoad","1536","864","","","","","","","","","","","null","+","Fixation - short","","null","","","","","","","","","","","","","","","","",""
"","html-keyboard-response","309","535939","0.0-461.0","3c8nuoad","","","","","","","","","","","","","586","rif","Diagnostic trial","","j","","5","6","9","false","false","false","both pre & post","RIGHT","RIGHT","j","1","true","","","",""
"","html-keyboard-response","310","536703","0.0-464.0","3c8nuoad","1536","864","","","","","","","","","","","null","+","Fixation - short","","null","","","","","","","","","","","","","","","","",""
"","html-keyboard-response","311","537651","0.0-465.0","3c8nuoad","","","","","","","","","","","","","949","rif","Diagnostic trial","","f","","5","7","9","false","false","true","both pre & post","RIGHT","LEFT","f","1","false","","","",""
"","html-keyboard-response","312","538406","0.0-468.0","3c8nuoad","1536","864","","","","","","","","","","","null","+","Fixation - short","","null","","","","","","","","","","","","","","","","",""
"","html-keyboard-response","313","539220","0.0-469.0","3c8nuoad","","","","","","","","","","","","","812","rif","Diagnostic trial","","f","","5","8","9","false","false","true","both pre & post","RIGHT","LEFT","f","1","false","","","",""
"","html-keyboard-response","314","539995","0.0-472.0","3c8nuoad","1536","864","","","","","","","","","","","null","+","Fixation - short","","null","","","","","","","","","","","","","","","","",""
"","canvas-keyboard-response","315","541265","0.0-473.0","3c8nuoad","","","","","","","","","","","","","null","Cue","Cue","","null","","5","8","","","false","","","","","","","","","","",""
"","html-keyboard-response","316","542020","0.0-474.0","3c8nuoad","1536","864","","","","","","","","","","","null","+","Fixation - short","","null","","","","","","","","","","","","","","","","",""
"","html-keyboard-response","317","542909","0.0-475.0","3c8nuoad","","","","","","","","","","","","","889","rif","Diagnostic trial","","j","","5","9","9","true","false","false","both pre & post","RIGHT","RIGHT","j","1","true","","","",""
"","html-keyboard-response","318","543677","0.0-478.0","3c8nuoad","1536","864","","","","","","","","","","","null","+","Fixation - short","","null","","","","","","","","","","","","","","","","",""
"","html-keyboard-response","319","544499","0.0-479.0","3c8nuoad","","","","","","","","","","","","","822","rif","Diagnostic trial","","f","","5","10","9","true","false","true","both pre & post","RIGHT","LEFT","f","1","false","","","",""
"","html-keyboard-response","320","545259","0.0-482.0","3c8nuoad","1536","864","","","","","","","","","","","null","+","Fixation - short","","null","","","","","","","","","","","","","","","","",""
"","html-keyboard-response","321","546587","0.0-483.0","3c8nuoad","","","","","","","","","","","","","1328","rif","Diagnostic trial","","f","","5","11","9","true","false","true","both pre & post","RIGHT","LEFT","f","1","false","","","",""
"","html-keyboard-response","322","547348","0.0-486.0","3c8nuoad","1536","864","","","","","","","","","","","null","+","Fixation - short","","null","","","","","","","","","","","","","","","","",""
"","html-keyboard-response","323","547955","0.0-487.0","3c8nuoad","","","","","","","","","","","","","606","rif","Diagnostic trial","","j","","5","12","9","true","false","false","both pre & post","RIGHT","RIGHT","j","1","true","","","",""
"","html-keyboard-response","324","548721","0.0-490.0","3c8nuoad","1536","864","","","","","","","","","","","null","+","Fixation - short","","null","","","","","","","","","","","","","","","","",""
"","html-keyboard-response","325","549708","0.0-491.0","3c8nuoad","","","","","","","","","","","","","985","adj","Inducer trial","","f","","5","","","","true","","","","","f","1","","false","LEFT","",""
"","html-keyboard-response","326","550471","0.0-494.0","3c8nuoad","1536","864","","","","","","","","","","","null","+","Fixation - short","","null","","","","","","","","","","","","","","","","",""
"","html-keyboard-response","327","556516","0.0-495.0","3c8nuoad","","","","","","","","","","","","","6043","If rbc press LEFT | If psl press RIGHT","Inducer instructions",""," ","","6","","","","","","","","","","","","","","",""
"","html-keyboard-response","328","557278","0.0-496.0","3c8nuoad","1536","864","","","","","","","","","","","null","+","Fixation - short","","null","","","","","","","","","","","","","","","","",""
"","html-keyboard-response","329","558132","0.0-497.0","3c8nuoad","","","","","","","","","","","","","854","psl","Diagnostic trial","","j","","6","0","12","false","false","false","both pre & post","RIGHT","RIGHT","j","1","true","","","",""
"","html-keyboard-response","330","558883","0.0-500.0","3c8nuoad","1536","864","","","","","","","","","","","null","+","Fixation - short","","null","","","","","","","","","","","","","","","","",""
"","html-keyboard-response","331","559699","0.0-501.0","3c8nuoad","","","","","","","","","","","","","816","psl","Diagnostic trial","","f","","6","1","12","false","false","true","both pre & post","RIGHT","LEFT","f","1","false","","","",""
"","html-keyboard-response","332","560456","0.0-504.0","3c8nuoad","1536","864","","","","","","","","","","","null","+","Fixation - short","","null","","","","","","","","","","","","","","","","",""
"","html-keyboard-response","333","561124","0.0-505.0","3c8nuoad","","","","","","","","","","","","","666","psl","Diagnostic trial","","f","","6","2","12","false","false","true","both pre & post","RIGHT","LEFT","f","1","false","","","",""
"","html-keyboard-response","334","561875","0.0-508.0","3c8nuoad","1536","864","","","","","","","","","","","null","+","Fixation - short","","null","","","","","","","","","","","","","","","","",""
"","html-keyboard-response","335","562540","0.0-509.0","3c8nuoad","","","","","","","","","","","","","664","rbc","Diagnostic trial","","f","","6","3","12","false","false","true","both pre & post","LEFT","LEFT","f","1","true","","","",""
"","html-keyboard-response","336","563304","0.0-512.0","3c8nuoad","1536","864","","","","","","","","","","","null","+","Fixation - short","","null","","","","","","","","","","","","","","","","",""
"","html-keyboard-response","337","563915","0.0-513.0","3c8nuoad","","","","","","","","","","","","","610","rbc","Diagnostic trial","","f","","6","4","12","false","false","true","both pre & post","LEFT","LEFT","f","1","true","","","",""
"","html-keyboard-response","338","564677","0.0-516.0","3c8nuoad","1536","864","","","","","","","","","","","null","+","Fixation - short","","null","","","","","","","","","","","","","","","","",""
"","html-keyboard-response","339","565292","0.0-517.0","3c8nuoad","","","","","","","","","","","","","614","rbc","Diagnostic trial","","j","","6","5","12","false","false","false","both pre & post","LEFT","RIGHT","j","1","false","","","",""
"","html-keyboard-response","340","566048","0.0-520.0","3c8nuoad","1536","864","","","","","","","","","","","null","+","Fixation - short","","null","","","","","","","","","","","","","","","","",""
"","html-keyboard-response","341","566815","0.0-521.0","3c8nuoad","","","","","","","","","","","","","764","rbc","Diagnostic trial","","f","","6","6","12","false","false","true","both pre & post","LEFT","LEFT","f","1","true","","","",""
"","html-keyboard-response","342","567568","0.0-524.0","3c8nuoad","1536","864","","","","","","","","","","","null","+","Fixation - short","","null","","","","","","","","","","","","","","","","",""
"","html-keyboard-response","343","568251","0.0-525.0","3c8nuoad","","","","","","","","","","","","","683","rbc","Diagnostic trial","","f","","6","7","12","false","false","true","both pre & post","LEFT","LEFT","f","1","true","","","",""
"","html-keyboard-response","344","569002","0.0-528.0","3c8nuoad","1536","864","","","","","","","","","","","null","+","Fixation - short","","null","","","","","","","","","","","","","","","","",""
"","html-keyboard-response","345","569716","0.0-529.0","3c8nuoad","","","","","","","","","","","","","711","rbc","Diagnostic trial","","f","","6","8","12","false","false","true","both pre & post","LEFT","LEFT","f","1","true","","","",""
"","html-keyboard-response","346","570475","0.0-532.0","3c8nuoad","1536","864","","","","","","","","","","","null","+","Fixation - short","","null","","","","","","","","","","","","","","","","",""
"","html-keyboard-response","347","571140","0.0-533.0","3c8nuoad","","","","","","","","","","","","","664","rbc","Diagnostic trial","","f","","6","9","12","false","false","true","both pre & post","LEFT","LEFT","f","1","true","","","",""
"","html-keyboard-response","348","571894","0.0-536.0","3c8nuoad","1536","864","","","","","","","","","","","null","+","Fixation - short","","null","","","","","","","","","","","","","","","","",""
"","html-keyboard-response","349","572444","0.0-537.0","3c8nuoad","","","","","","","","","","","","","549","rbc","Diagnostic trial","","f","","6","10","12","false","false","true","both pre & post","LEFT","LEFT","f","1","true","","","",""
"","html-keyboard-response","350","573214","0.0-540.0","3c8nuoad","1536","864","","","","","","","","","","","null","+","Fixation - short","","null","","","","","","","","","","","","","","","","",""
"","html-keyboard-response","351","573819","0.0-541.0","3c8nuoad","","","","","","","","","","","","","604","psl","Diagnostic trial","","j","","6","11","12","false","false","true","both pre & post","RIGHT","LEFT","f","0","false","","","",""
"","call-function","352","573819","0.0-543.0-0.0","3c8nuoad","","","","","","","","","","","","","","","","","","","","","","","","","","","","","","","","","",""
"","html-keyboard-response","353","574126","0.0-543.0-1.0","3c8nuoad","1536","864","","","","","","","","","","","null","Wrong","Feedback","","null","","","","","","","","","","","","","","","","",""
"","call-function","354","574126","0.0-543.0-2.0","3c8nuoad","","","","","","","","","","","","","","","","","","","","","","","","","","","","","","","","","",""
"","html-keyboard-response","355","574888","0.0-544.0","3c8nuoad","1536","864","","","","","","","","","","","null","+","Fixation - short","","null","","","","","","","","","","","","","","","","",""
"","canvas-keyboard-response","356","576145","0.0-545.0","3c8nuoad","","","","","","","","","","","","","null","Cue","Cue","","null","","6","11","","","false","","","","","","","","","","",""
"","html-keyboard-response","357","576911","0.0-546.0","3c8nuoad","1536","864","","","","","","","","","","","null","+","Fixation - short","","null","","","","","","","","","","","","","","","","",""
"","html-keyboard-response","358","577939","0.0-547.0","3c8nuoad","","","","","","","","","","","","","1028","psl","Diagnostic trial","","f","","6","12","12","true","false","true","both pre & post","RIGHT","LEFT","f","1","false","","","",""
"","html-keyboard-response","359","578699","0.0-550.0","3c8nuoad","1536","864","","","","","","","","","","","null","+","Fixation - short","","null","","","","","","","","","","","","","","","","",""
"","html-keyboard-response","360","579571","0.0-551.0","3c8nuoad","","","","","","","","","","","","","871","rbc","Diagnostic trial","","j","","6","13","12","true","false","false","both pre & post","LEFT","RIGHT","j","1","false","","","",""
"","html-keyboard-response","361","580339","0.0-554.0","3c8nuoad","1536","864","","","","","","","","","","","null","+","Fixation - short","","null","","","","","","","","","","","","","","","","",""
"","html-keyboard-response","362","581267","0.0-555.0","3c8nuoad","","","","","","","","","","","","","927","rbc","Diagnostic trial","","j","","6","14","12","true","false","false","both pre & post","LEFT","RIGHT","j","1","false","","","",""
"","html-keyboard-response","363","582021","0.0-558.0","3c8nuoad","1536","864","","","","","","","","","","","null","+","Fixation - short","","null","","","","","","","","","","","","","","","","",""
"","html-keyboard-response","364","583052","0.0-559.0","3c8nuoad","","","","","","","","","","","","","1030","psl","Diagnostic trial","","f","","6","15","12","true","false","true","both pre & post","RIGHT","LEFT","f","1","false","","","",""
"","html-keyboard-response","365","583811","0.0-562.0","3c8nuoad","1536","864","","","","","","","","","","","null","+","Fixation - short","","null","","","","","","","","","","","","","","","","",""
"","html-keyboard-response","366","585219","0.0-563.0","3c8nuoad","","","","","","","","","","","","","1408","psl","Inducer trial","","j","","6","","","","true","","","","","j","1","","false","RIGHT","",""
"","html-keyboard-response","367","585984","0.0-566.0","3c8nuoad","1536","864","","","","","","","","","","","null","+","Fixation - short","","null","","","","","","","","","","","","","","","","",""
"","html-keyboard-response","368","589715","0.0-567.0","3c8nuoad","","","","","","","","","","","","","3730","If quy press LEFT | If gfm press RIGHT","Inducer instructions",""," ","","7","","","","","","","","","","","","","","",""
"","html-keyboard-response","369","590481","0.0-568.0","3c8nuoad","1536","864","","","","","","","","","","","null","+","Fixation - short","","null","","","","","","","","","","","","","","","","",""
"","html-keyboard-response","370","591195","0.0-569.0","3c8nuoad","","","","","","","","","","","","","714","gfm","Diagnostic trial","","j","","7","0","4","false","false","false","both pre & post","RIGHT","RIGHT","j","1","true","","","",""
"","html-keyboard-response","371","591967","0.0-572.0","3c8nuoad","1536","864","","","","","","","","","","","null","+","Fixation - short","","null","","","","","","","","","","","","","","","","",""
"","html-keyboard-response","372","592595","0.0-573.0","3c8nuoad","","","","","","","","","","","","","628","quy","Diagnostic trial","","f","","7","1","4","false","false","true","both pre & post","LEFT","LEFT","f","1","true","","","",""
"","html-keyboard-response","373","593349","0.0-576.0","3c8nuoad","1536","864","","","","","","","","","","","null","+","Fixation - short","","null","","","","","","","","","","","","","","","","",""
"","html-keyboard-response","374","594275","0.0-577.0","3c8nuoad","","","","","","","","","","","","","925","quy","Diagnostic trial","","j","","7","2","4","false","false","false","both pre & post","LEFT","RIGHT","j","1","false","","","",""
"","html-keyboard-response","375","595032","0.0-580.0","3c8nuoad","1536","864","","","","","","","","","","","null","+","Fixation - short","","null","","","","","","","","","","","","","","","","",""
"","html-keyboard-response","376","595867","0.0-581.0","3c8nuoad","","","","","","","","","","","","","834","gfm","Diagnostic trial","","j","","7","3","4","false","false","false","both pre & post","RIGHT","RIGHT","j","1","true","","","",""
"","html-keyboard-response","377","596620","0.0-584.0","3c8nuoad","1536","864","","","","","","","","","","","null","+","Fixation - short","","null","","","","","","","","","","","","","","","","",""
"","canvas-keyboard-response","378","597886","0.0-585.0","3c8nuoad","","","","","","","","","","","","","null","Cue","Cue","","null","","7","3","","","false","","","","","","","","","","",""
"","html-keyboard-response","379","598642","0.0-586.0","3c8nuoad","1536","864","","","","","","","","","","","null","+","Fixation - short","","null","","","","","","","","","","","","","","","","",""
"","html-keyboard-response","380","599515","0.0-587.0","3c8nuoad","","","","","","","","","","","","","872","quy","Diagnostic trial","","j","","7","4","4","true","false","false","both pre & post","LEFT","RIGHT","j","1","false","","","",""
"","html-keyboard-response","381","600275","0.0-590.0","3c8nuoad","1536","864","","","","","","","","","","","null","+","Fixation - short","","null","","","","","","","","","","","","","","","","",""
"","html-keyboard-response","382","600835","0.0-591.0","3c8nuoad","","","","","","","","","","","","","560","gfm","Diagnostic trial","","f","","7","5","4","true","false","true","both pre & post","RIGHT","LEFT","f","1","false","","","",""
"","html-keyboard-response","383","601593","0.0-594.0","3c8nuoad","1536","864","","","","","","","","","","","null","+","Fixation - short","","null","","","","","","","","","","","","","","","","",""
"","html-keyboard-response","384","602331","0.0-595.0","3c8nuoad","","","","","","","","","","","","","737","gfm","Diagnostic trial","","j","","7","6","4","true","false","false","both pre & post","RIGHT","RIGHT","j","1","true","","","",""
"","html-keyboard-response","385","603083","0.0-598.0","3c8nuoad","1536","864","","","","","","","","","","","null","+","Fixation - short","","null","","","","","","","","","","","","","","","","",""
"","html-keyboard-response","386","604011","0.0-599.0","3c8nuoad","","","","","","","","","","","","","928","quy","Diagnostic trial","","f","","7","7","4","true","false","true","both pre & post","LEFT","LEFT","f","1","true","","","",""
"","html-keyboard-response","387","604771","0.0-602.0","3c8nuoad","1536","864","","","","","","","","","","","null","+","Fixation - short","","null","","","","","","","","","","","","","","","","",""
"","html-keyboard-response","388","605683","0.0-603.0","3c8nuoad","","","","","","","","","","","","","912","gfm","Inducer trial","","j","","7","","","","true","","","","","j","1","","false","RIGHT","",""
"","html-keyboard-response","389","606450","0.0-606.0","3c8nuoad","1536","864","","","","","","","","","","","null","+","Fixation - short","","null","","","","","","","","","","","","","","","","",""
"","html-keyboard-response","390","610659","0.0-607.0","3c8nuoad","","","","","","","","","","","","","4209","If dlg press LEFT | If flh press RIGHT","Inducer instructions",""," ","","8","","","","","","","","","","","","","","",""
"","html-keyboard-response","391","611420","0.0-608.0","3c8nuoad","1536","864","","","","","","","","","","","null","+","Fixation - short","","null","","","","","","","","","","","","","","","","",""
"","html-keyboard-response","392","612259","0.0-609.0","3c8nuoad","","","","","","","","","","","","","839","flh","Diagnostic trial","","j","","8","0","4","false","false","false","both pre & post","RIGHT","RIGHT","j","1","true","","","",""
"","html-keyboard-response","393","613022","0.0-612.0","3c8nuoad","1536","864","","","","","","","","","","","null","+","Fixation - short","","null","","","","","","","","","","","","","","","","",""
"","html-keyboard-response","394","613675","0.0-613.0","3c8nuoad","","","","","","","","","","","","","652","dlg","Diagnostic trial","","j","","8","1","4","false","false","false","both pre & post","LEFT","RIGHT","j","1","false","","","",""
"","html-keyboard-response","395","614427","0.0-616.0","3c8nuoad","1536","864","","","","","","","","","","","null","+","Fixation - short","","null","","","","","","","","","","","","","","","","",""
"","html-keyboard-response","396","615139","0.0-617.0","3c8nuoad","","","","","","","","","","","","","711","flh","Diagnostic trial","","f","","8","2","4","false","false","true","both pre & post","RIGHT","LEFT","f","1","false","","","",""
"","html-keyboard-response","397","615899","0.0-620.0","3c8nuoad","1536","864","","","","","","","","","","","null","+","Fixation - short","","null","","","","","","","","","","","","","","","","",""
"","html-keyboard-response","398","616659","0.0-621.0","3c8nuoad","","","","","","","","","","","","","760","dlg","Diagnostic trial","","f","","8","3","4","false","false","true","both pre & post","LEFT","LEFT","f","1","true","","","",""
"","html-keyboard-response","399","617430","0.0-624.0","3c8nuoad","1536","864","","","","","","","","","","","null","+","Fixation - short","","null","","","","","","","","","","","","","","","","",""
"","canvas-keyboard-response","400","618686","0.0-625.0","3c8nuoad","","","","","","","","","","","","","null","Cue","Cue","","null","","8","3","","","false","","","","","","","","","","",""
"","html-keyboard-response","401","619450","0.0-626.0","3c8nuoad","1536","864","","","","","","","","","","","null","+","Fixation - short","","null","","","","","","","","","","","","","","","","",""
"","html-keyboard-response","402","620267","0.0-627.0","3c8nuoad","","","","","","","","","","","","","817","flh","Diagnostic trial","","j","","8","4","4","true","false","true","both pre & post","RIGHT","LEFT","f","0","false","","","",""
"","call-function","403","620268","0.0-629.0-0.0","3c8nuoad","","","","","","","","","","","","","","","","","","","","","","","","","","","","","","","","","",""
"","html-keyboard-response","404","620568","0.0-629.0-1.0","3c8nuoad","1536","864","","","","","","","","","","","null","Wrong","Feedback","","null","","","","","","","","","","","","","","","","",""
"","call-function","405","620568","0.0-629.0-2.0","3c8nuoad","","","","","","","","","","","","","","","","","","","","","","","","","","","","","","","","","",""
"","html-keyboard-response","406","621324","0.0-630.0","3c8nuoad","1536","864","","","","","","","","","","","null","+","Fixation - short","","null","","","","","","","","","","","","","","","","",""
"","html-keyboard-response","407","622315","0.0-631.0","3c8nuoad","","","","","","","","","","","","","991","flh","Diagnostic trial","","f","","8","5","4","true","false","true","both pre & post","RIGHT","LEFT","f","1","false","","","",""
"","html-keyboard-response","408","623075","0.0-634.0","3c8nuoad","1536","864","","","","","","","","","","","null","+","Fixation - short","","null","","","","","","","","","","","","","","","","",""
"","html-keyboard-response","409","624459","0.0-635.0","3c8nuoad","","","","","","","","","","","","","1383","flh","Inducer trial","","j","","8","","","","true","","","","","j","1","","false","RIGHT","",""
"","html-keyboard-response","410","625217","0.0-638.0","3c8nuoad","1536","864","","","","","","","","","","","null","+","Fixation - short","","null","","","","","","","","","","","","","","","","",""
"","html-keyboard-response","411","628962","0.0-639.0","3c8nuoad","","","","","","","","","","","","","3744","If ois press LEFT | If eeu press RIGHT","Inducer instructions",""," ","","9","","","","","","","","","","","","","","",""
"","html-keyboard-response","412","629728","0.0-640.0","3c8nuoad","1536","864","","","","","","","","","","","null","+","Fixation - short","","null","","","","","","","","","","","","","","","","",""
"","html-keyboard-response","413","630619","0.0-641.0","3c8nuoad","","","","","","","","","","","","","890","ois","Diagnostic trial","","f","","9","0","4","false","false","true","both pre & post","LEFT","LEFT","f","1","true","","","",""
"","html-keyboard-response","414","631377","0.0-644.0","3c8nuoad","1536","864","","","","","","","","","","","null","+","Fixation - short","","null","","","","","","","","","","","","","","","","",""
"","html-keyboard-response","415","632011","0.0-645.0","3c8nuoad","","","","","","","","","","","","","633","eeu","Diagnostic trial","","f","","9","1","4","false","false","true","both pre & post","RIGHT","LEFT","f","1","false","","","",""
"","html-keyboard-response","416","632765","0.0-648.0","3c8nuoad","1536","864","","","","","","","","","","","null","+","Fixation - short","","null","","","","","","","","","","","","","","","","",""
"","html-keyboard-response","417","633555","0.0-649.0","3c8nuoad","","","","","","","","","","","","","789","ois","Diagnostic trial","","j","","9","2","4","false","false","false","both pre & post","LEFT","RIGHT","j","1","false","","","",""
"","html-keyboard-response","418","634322","0.0-652.0","3c8nuoad","1536","864","","","","","","","","","","","null","+","Fixation - short","","null","","","","","","","","","","","","","","","","",""
"","html-keyboard-response","419","635579","0.0-653.0","3c8nuoad","","","","","","","","","","","","","1257","ois","Diagnostic trial","","j","","9","3","4","false","false","false","both pre & post","LEFT","RIGHT","j","1","false","","","",""
"","html-keyboard-response","420","636341","0.0-656.0","3c8nuoad","1536","864","","","","","","","","","","","null","+","Fixation - short","","null","","","","","","","","","","","","","","","","",""
"","canvas-keyboard-response","421","637603","0.0-657.0","3c8nuoad","","","","","","","","","","","","","null","Cue","Cue","","null","","9","3","","","false","","","","","","","","","","",""
"","html-keyboard-response","422","638365","0.0-658.0","3c8nuoad","1536","864","","","","","","","","","","","null","+","Fixation - short","","null","","","","","","","","","","","","","","","","",""
"","html-keyboard-response","423","639107","0.0-659.0","3c8nuoad","","","","","","","","","","","","","741","ois","Diagnostic trial","","f","","9","4","4","true","false","true","both pre & post","LEFT","LEFT","f","1","true","","","",""
"","html-keyboard-response","424","639870","0.0-662.0","3c8nuoad","1536","864","","","","","","","","","","","null","+","Fixation - short","","null","","","","","","","","","","","","","","","","",""
"","html-keyboard-response","425","640763","0.0-663.0","3c8nuoad","","","","","","","","","","","","","893","eeu","Diagnostic trial","","j","","9","5","4","true","false","false","both pre & post","RIGHT","RIGHT","j","1","true","","","",""
"","html-keyboard-response","426","641526","0.0-666.0","3c8nuoad","1536","864","","","","","","","","","","","null","+","Fixation - short","","null","","","","","","","","","","","","","","","","",""
"","html-keyboard-response","427","642523","0.0-667.0","3c8nuoad","","","","","","","","","","","","","997","ois","Diagnostic trial","","j","","9","6","4","true","false","false","both pre & post","LEFT","RIGHT","j","1","false","","","",""
"","html-keyboard-response","428","643276","0.0-670.0","3c8nuoad","1536","864","","","","","","","","","","","null","+","Fixation - short","","null","","","","","","","","","","","","","","","","",""
"","html-keyboard-response","429","644059","0.0-671.0","3c8nuoad","","","","","","","","","","","","","782","ois","Diagnostic trial","","j","","9","7","4","true","false","false","both pre & post","LEFT","RIGHT","j","1","false","","","",""
"","html-keyboard-response","430","644833","0.0-674.0","3c8nuoad","1536","864","","","","","","","","","","","null","+","Fixation - short","","null","","","","","","","","","","","","","","","","",""
"","html-keyboard-response","431","645667","0.0-675.0","3c8nuoad","","","","","","","","","","","","","833","eeu","Inducer trial","","j","","9","","","","true","","","","","j","1","","false","RIGHT","",""
"","html-keyboard-response","432","646420","0.0-678.0","3c8nuoad","1536","864","","","","","","","","","","","null","+","Fixation - short","","null","","","","","","","","","","","","","","","","",""
"","html-keyboard-response","433","649332","0.0-679.0","3c8nuoad","","","","","","","","","","","","","2912","If gdn press LEFT | If cmj press RIGHT","Inducer instructions",""," ","","10","","","","","","","","","","","","","","",""
"","html-keyboard-response","434","650085","0.0-680.0","3c8nuoad","1536","864","","","","","","","","","","","null","+","Fixation - short","","null","","","","","","","","","","","","","","","","",""
"","html-keyboard-response","435","650811","0.0-681.0","3c8nuoad","","","","","","","","","","","","","725","gdn","Diagnostic trial","","f","","10","0","7","false","false","true","both pre & post","LEFT","LEFT","f","1","true","","","",""
"","html-keyboard-response","436","651571","0.0-684.0","3c8nuoad","1536","864","","","","","","","","","","","null","+","Fixation - short","","null","","","","","","","","","","","","","","","","",""
"","html-keyboard-response","437","652258","0.0-685.0","3c8nuoad","","","","","","","","","","","","","687","cmj","Diagnostic trial","","j","","10","1","7","false","false","false","both pre & post","RIGHT","RIGHT","j","1","true","","","",""
"","html-keyboard-response","438","653028","0.0-688.0","3c8nuoad","1536","864","","","","","","","","","","","null","+","Fixation - short","","null","","","","","","","","","","","","","","","","",""
"","html-keyboard-response","439","653803","0.0-689.0","3c8nuoad","","","","","","","","","","","","","774","gdn","Diagnostic trial","","f","","10","2","7","false","false","true","both pre & post","LEFT","LEFT","f","1","true","","","",""
"","html-keyboard-response","440","654593","0.0-692.0","3c8nuoad","1536","864","","","","","","","","","","","null","+","Fixation - short","","null","","","","","","","","","","","","","","","","",""
"","html-keyboard-response","441","655219","0.0-693.0","3c8nuoad","","","","","","","","","","","","","624","gdn","Diagnostic trial","","j","","10","3","7","false","false","false","both pre & post","LEFT","RIGHT","j","1","false","","","",""
"","html-keyboard-response","442","655982","0.0-696.0","3c8nuoad","1536","864","","","","","","","","","","","null","+","Fixation - short","","null","","","","","","","","","","","","","","","","",""
"","html-keyboard-response","443","656771","0.0-697.0","3c8nuoad","","","","","","","","","","","","","789","cmj","Diagnostic trial","","j","","10","4","7","false","false","false","both pre & post","RIGHT","RIGHT","j","1","true","","","",""
"","html-keyboard-response","444","657540","0.0-700.0","3c8nuoad","1536","864","","","","","","","","","","","null","+","Fixation - short","","null","","","","","","","","","","","","","","","","",""
"","html-keyboard-response","445","658642","0.0-701.0","3c8nuoad","","","","","","","","","","","","","1102","cmj","Diagnostic trial","","f","","10","5","7","false","false","true","both pre & post","RIGHT","LEFT","f","1","false","","","",""
"","html-keyboard-response","446","659399","0.0-704.0","3c8nuoad","1536","864","","","","","","","","","","","null","+","Fixation - short","","null","","","","","","","","","","","","","","","","",""
"","html-keyboard-response","447","660371","0.0-705.0","3c8nuoad","","","","","","","","","","","","","971","cmj","Diagnostic trial","","j","","10","6","7","false","false","false","both pre & post","RIGHT","RIGHT","j","1","true","","","",""
"","html-keyboard-response","448","661131","0.0-708.0","3c8nuoad","1536","864","","","","","","","","","","","null","+","Fixation - short","","null","","","","","","","","","","","","","","","","",""
"","canvas-keyboard-response","449","662382","0.0-709.0","3c8nuoad","","","","","","","","","","","","","null","Cue","Cue","","null","","10","6","","","false","","","","","","","","","","",""
"","html-keyboard-response","450","663137","0.0-710.0","3c8nuoad","1536","864","","","","","","","","","","","null","+","Fixation - short","","null","","","","","","","","","","","","","","","","",""
"","html-keyboard-response","451","663980","0.0-711.0","3c8nuoad","","","","","","","","","","","","","843","cmj","Diagnostic trial","","f","","10","7","7","true","false","true","both pre & post","RIGHT","LEFT","f","1","false","","","",""
"","html-keyboard-response","452","664741","0.0-714.0","3c8nuoad","1536","864","","","","","","","","","","","null","+","Fixation - short","","null","","","","","","","","","","","","","","","","",""
"","html-keyboard-response","453","666179","0.0-715.0","3c8nuoad","","","","","","","","","","","","","1437","cmj","Inducer trial","","j","","10","","","","true","","","","","j","1","","false","RIGHT","",""
"","html-keyboard-response","454","666932","0.0-718.0","3c8nuoad","1536","864","","","","","","","","","","","null","+","Fixation - short","","null","","","","","","","","","","","","","","","","",""
"","html-keyboard-response","455","671347","0.0-719.0","3c8nuoad","","","","","","","","","","","","","4412","If vle press LEFT | If jil press RIGHT","Inducer instructions",""," ","","11","","","","","","","","","","","","","","",""
"","html-keyboard-response","456","672109","0.0-720.0","3c8nuoad","1536","864","","","","","","","","","","","null","+","Fixation - short","","null","","","","","","","","","","","","","","","","",""
"","html-keyboard-response","457","673091","0.0-721.0","3c8nuoad","","","","","","","","","","","","","980","jil","Diagnostic trial","","j","","11","0","4","false","false","false","both pre & post","RIGHT","RIGHT","j","1","true","","","",""
"","html-keyboard-response","458","673846","0.0-724.0","3c8nuoad","1536","864","","","","","","","","","","","null","+","Fixation - short","","null","","","","","","","","","","","","","","","","",""
"","html-keyboard-response","459","674539","0.0-725.0","3c8nuoad","","","","","","","","","","","","","692","vle","Diagnostic trial","","f","","11","1","4","false","false","true","both pre & post","LEFT","LEFT","f","1","true","","","",""
"","html-keyboard-response","460","675301","0.0-728.0","3c8nuoad","1536","864","","","","","","","","","","","null","+","Fixation - short","","null","","","","","","","","","","","","","","","","",""
"","html-keyboard-response","461","676211","0.0-729.0","3c8nuoad","","","","","","","","","","","","","908","jil","Diagnostic trial","","j","","11","2","4","false","false","false","both pre & post","RIGHT","RIGHT","j","1","true","","","",""
"","html-keyboard-response","462","676973","0.0-732.0","3c8nuoad","1536","864","","","","","","","","","","","null","+","Fixation - short","","null","","","","","","","","","","","","","","","","",""
"","html-keyboard-response","463","677771","0.0-733.0","3c8nuoad","","","","","","","","","","","","","798","jil","Diagnostic trial","","f","","11","3","4","false","false","true","both pre & post","RIGHT","LEFT","f","1","false","","","",""
