"value","trial_type","trial_index","time_elapsed","internal_node_id","id","width","height","webaudio","browser","browser_version","mobile","os","fullscreen","vsync_rate","webcam","microphone","view_history","rt","stimulus","trial_info","success","response","exp_parameters","inducer_run","diagnostic_run","cue_num","post_cue","inducer_trial","italic","forced_equal_run","correct_inducer_response_side","correct_diag_response_side","correct_response_key","correct_response","congruent","force_equal","correct_indu_response_side","accuracy","interactive"
"","call-function","0","3","0.0-0.0","kjqy5ud9","","","","","","","","","","","","","","","","","","","","","","","","","","","","","","","","","",""
"","browser-check","1","984","0.0-1.0","kjqy5ud9","1436","630","true","chrome","123.0.0","false","Mac OS","true","61.6","true","true","","","","","","","","","","","","","","","","","","","","","","",""
"","instructions","2","680476","0.0-2.0","kjqy5ud9","","","","","","","","","","","","[{""page_index"":0,""viewing_time"":21614},{""page_index"":1,""viewing_time"":653662},{""page_index"":2,""viewing_time"":4217}]","679496","The experiment and consent","The experiment and consent","","","","","","","","","","","","","","","","","","",""
"","fullscreen","3","686862","0.0-3.0","kjqy5ud9","","","","","","","","","","","","","5377","","Full screen","true","","","","","","","","","","","","","","","","","",""
"","instructions","4","724250","0.0-4.0","kjqy5ud9","","","","","","","","","","","","[{""page_index"":0,""viewing_time"":25858},{""page_index"":1,""viewing_time"":11528}]","37387","Instructions","Basic overview explanation","","","","","","","","","","","","","","","","","","",""
"","html-keyboard-response","5","739288","0.0-5.0","kjqy5ud9","","","","","","","","","","","","","13531","If italic press RIGHT | If upright press LEFT","Diagnostic instructions",""," ","{""debug"":false,""skip_instructions"":false,""skip_practice"":false,""save_local_data"":false,""studu_name"":""exp2"",""default_background_colour"":""#cccccc"",""wrong_response_colour"":""#d22d2d"",""instruction_delay"":20000,""trial_duration"":2000,""short_fixation"":750,""long_fixation"":1500,""wrong_response_delay"":300,""too_slow_delay"":300,""instruction_font_size"":""24px"",""general_font_size"":""42px"",""fixation_size"":""48px"",""allowed_responses"":[""f"",""j""],""cue_min_length"":0,""cue_max_length"":4,""tot_post_cue_len"":72,""cue_colour"":""blue"",""cue_shape"":""Square"",""cue_size"":70,""cue_duration"":1250,""avg_number_of_cues"":3,""inducer_colour"":""red"",""number_of_inducers"":24,""pre_cue_italic_forced_equal"":true,""post_cue_italic_forced_equal"":true,""prac_diagnostic_rounds"":16,""prac_inducer_rounds"":6,""prac_cue_rounds"":16,""prac_post_cue_num"":3}","","","","","","","","","","","","","","","",""
"","html-keyboard-response","6","740041","0.0-6.0","kjqy5ud9","1440","876","","","","","","","","","","","null","+","Fixation - short","","null","","","","","","","","","","","","","","","","",""
"","html-keyboard-response","7","740621","0.0-7.0","kjqy5ud9","","","","","","","","","","","","","578","csp","Diagnostic practice","","f","","Diagnostic practice","0","-84","true","false","false","prac equal","RIGHT","LEFT","f","1","false","","","",""
"","html-keyboard-response","8","741375","0.0-10.0","kjqy5ud9","1440","876","","","","","","","","","","","null","+","Fixation - short","","null","","","","","","","","","","","","","","","","",""
"","html-keyboard-response","9","741906","0.0-11.0","kjqy5ud9","","","","","","","","","","","","","529","csp","Diagnostic practice","","f","","Diagnostic practice","1","-84","true","false","false","prac equal","RIGHT","LEFT","f","1","false","","","",""
"","html-keyboard-response","10","742659","0.0-14.0","kjqy5ud9","1440","876","","","","","","","","","","","null","+","Fixation - short","","null","","","","","","","","","","","","","","","","",""
"","html-keyboard-response","11","743111","0.0-15.0","kjqy5ud9","","","","","","","","","","","","","452","csp","Diagnostic practice","","j","","Diagnostic practice","2","-84","true","false","true","prac equal","RIGHT","RIGHT","j","1","true","","","",""
"","html-keyboard-response","12","743864","0.0-18.0","kjqy5ud9","1440","876","","","","","","","","","","","null","+","Fixation - short","","null","","","","","","","","","","","","","","","","",""
"","html-keyboard-response","13","744403","0.0-19.0","kjqy5ud9","","","","","","","","","","","","","538","snx","Diagnostic practice","","j","","Diagnostic practice","3","-84","true","false","true","prac equal","LEFT","RIGHT","j","1","false","","","",""
"","html-keyboard-response","14","745156","0.0-22.0","kjqy5ud9","1440","876","","","","","","","","","","","null","+","Fixation - short","","null","","","","","","","","","","","","","","","","",""
"","html-keyboard-response","15","745750","0.0-23.0","kjqy5ud9","","","","","","","","","","","","","593","csp","Diagnostic practice","","f","","Diagnostic practice","4","-84","true","false","false","prac equal","RIGHT","LEFT","f","1","false","","","",""
"","html-keyboard-response","16","746503","0.0-26.0","kjqy5ud9","1440","876","","","","","","","","","","","null","+","Fixation - short","","null","","","","","","","","","","","","","","","","",""
"","html-keyboard-response","17","747110","0.0-27.0","kjqy5ud9","","","","","","","","","","","","","606","csp","Diagnostic practice","","j","","Diagnostic practice","5","-84","true","false","true","prac equal","RIGHT","RIGHT","j","1","true","","","",""
"","html-keyboard-response","18","747863","0.0-30.0","kjqy5ud9","1440","876","","","","","","","","","","","null","+","Fixation - short","","null","","","","","","","","","","","","","","","","",""
"","html-keyboard-response","19","748381","0.0-31.0","kjqy5ud9","","","","","","","","","","","","","517","snx","Diagnostic practice","","j","","Diagnostic practice","6","-84","true","false","true","prac equal","LEFT","RIGHT","j","1","false","","","",""
"","html-keyboard-response","20","749134","0.0-34.0","kjqy5ud9","1440","876","","","","","","","","","","","null","+","Fixation - short","","null","","","","","","","","","","","","","","","","",""
"","html-keyboard-response","21","749550","0.0-35.0","kjqy5ud9","","","","","","","","","","","","","415","snx","Diagnostic practice","","j","","Diagnostic practice","7","-84","true","false","true","prac equal","LEFT","RIGHT","j","1","false","","","",""
"","html-keyboard-response","22","750303","0.0-38.0","kjqy5ud9","1440","876","","","","","","","","","","","null","+","Fixation - short","","null","","","","","","","","","","","","","","","","",""
"","html-keyboard-response","23","750895","0.0-39.0","kjqy5ud9","","","","","","","","","","","","","591","csp","Diagnostic practice","","f","","Diagnostic practice","8","-84","true","false","false","prac equal","RIGHT","LEFT","f","1","false","","","",""
"","html-keyboard-response","24","751647","0.0-42.0","kjqy5ud9","1440","876","","","","","","","","","","","null","+","Fixation - short","","null","","","","","","","","","","","","","","","","",""
"","html-keyboard-response","25","752213","0.0-43.0","kjqy5ud9","","","","","","","","","","","","","565","csp","Diagnostic practice","","f","","Diagnostic practice","9","-84","true","false","false","prac equal","RIGHT","LEFT","f","1","false","","","",""
"","html-keyboard-response","26","752965","0.0-46.0","kjqy5ud9","1440","876","","","","","","","","","","","null","+","Fixation - short","","null","","","","","","","","","","","","","","","","",""
"","html-keyboard-response","27","753442","0.0-47.0","kjqy5ud9","","","","","","","","","","","","","476","snx","Diagnostic practice","","f","","Diagnostic practice","10","-84","true","false","false","prac equal","LEFT","LEFT","f","1","true","","","",""
"","html-keyboard-response","28","754196","0.0-50.0","kjqy5ud9","1440","876","","","","","","","","","","","null","+","Fixation - short","","null","","","","","","","","","","","","","","","","",""
"","html-keyboard-response","29","754592","0.0-51.0","kjqy5ud9","","","","","","","","","","","","","395","csp","Diagnostic practice","","f","","Diagnostic practice","11","-84","true","false","true","prac equal","RIGHT","RIGHT","j","0","true","","","",""
"","call-function","30","754593","0.0-53.0-0.0","kjqy5ud9","","","","","","","","","","","","","","","","","","","","","","","","","","","","","","","","","",""
"","html-keyboard-response","31","754896","0.0-53.0-1.0","kjqy5ud9","1440","876","","","","","","","","","","","null","Wrong","Feedback","","null","","","","","","","","","","","","","","","","",""
"","call-function","32","754897","0.0-53.0-2.0","kjqy5ud9","","","","","","","","","","","","","","","","","","","","","","","","","","","","","","","","","",""
"","html-keyboard-response","33","755649","0.0-54.0","kjqy5ud9","1440","876","","","","","","","","","","","null","+","Fixation - short","","null","","","","","","","","","","","","","","","","",""
"","html-keyboard-response","34","756291","0.0-55.0","kjqy5ud9","","","","","","","","","","","","","641","snx","Diagnostic practice","","f","","Diagnostic practice","12","-84","true","false","false","prac equal","LEFT","LEFT","f","1","true","","","",""
"","html-keyboard-response","35","757043","0.0-58.0","kjqy5ud9","1440","876","","","","","","","","","","","null","+","Fixation - short","","null","","","","","","","","","","","","","","","","",""
"","html-keyboard-response","36","757606","0.0-59.0","kjqy5ud9","","","","","","","","","","","","","562","csp","Diagnostic practice","","j","","Diagnostic practice","13","-84","true","false","true","prac equal","RIGHT","RIGHT","j","1","true","","","",""
"","html-keyboard-response","37","758358","0.0-62.0","kjqy5ud9","1440","876","","","","","","","","","","","null","+","Fixation - short","","null","","","","","","","","","","","","","","","","",""
"","html-keyboard-response","38","758967","0.0-63.0","kjqy5ud9","","","","","","","","","","","","","608","csp","Diagnostic practice","","j","","Diagnostic practice","14","-84","true","false","true","prac equal","RIGHT","RIGHT","j","1","true","","","",""
"","html-keyboard-response","39","759719","0.0-66.0","kjqy5ud9","1440","876","","","","","","","","","","","null","+","Fixation - short","","null","","","","","","","","","","","","","","","","",""
"","html-keyboard-response","40","760157","0.0-67.0","kjqy5ud9","","","","","","","","","","","","","437","csp","Diagnostic practice","","j","","Diagnostic practice","15","-84","true","false","false","prac equal","RIGHT","LEFT","f","0","false","","","",""
"","call-function","41","760158","0.0-69.0-0.0","kjqy5ud9","","","","","","","","","","","","","","","","","","","","","","","","","","","","","","","","","",""
"","html-keyboard-response","42","760460","0.0-69.0-1.0","kjqy5ud9","1440","876","","","","","","","","","","","null","Wrong","Feedback","","null","","","","","","","","","","","","","","","","",""
"","call-function","43","760461","0.0-69.0-2.0","kjqy5ud9","","","","","","","","","","","","","","","","","","","","","","","","","","","","","","","","","",""
"","html-keyboard-response","44","761214","0.0-70.0","kjqy5ud9","1440","876","","","","","","","","","","","null","+","Fixation - short","","null","","","","","","","","","","","","","","","","",""
"","instructions","45","786551","0.0-71.0","kjqy5ud9","","","","","","","","","","","","[{""page_index"":0,""viewing_time"":25336}]","25336","Instructions","Final experiment explanation","","","","","","","","","","","","","","","","","","",""
"","html-keyboard-response","46","796017","0.0-72.0","kjqy5ud9","","","","","","","","","","","","","7962","If mvv press RIGHT | If ivr press LEFT","Inducer practice",""," ","","Practice","","","","","","","","","","","","","","",""
"","html-keyboard-response","47","796771","0.0-73.0","kjqy5ud9","1440","876","","","","","","","","","","","null","+","Fixation - short","","null","","","","","","","","","","","","","","","","",""
"","html-keyboard-response","48","797567","0.0-74.0","kjqy5ud9","","","","","","","","","","","","","795","ivr","Inducer practice","","f","","Practice","","","","true","","","","","f","1","","true","LEFT","",""
"","html-keyboard-response","49","798320","0.0-77.0","kjqy5ud9","1440","876","","","","","","","","","","","null","+","Fixation - short","","null","","","","","","","","","","","","","","","","",""
"","html-keyboard-response","50","806087","0.0-78.0","kjqy5ud9","","","","","","","","","","","","","7766","If rif press RIGHT | If ttm press LEFT","Inducer practice",""," ","","Practice","","","","","","","","","","","","","","",""
"","html-keyboard-response","51","806839","0.0-79.0","kjqy5ud9","1440","876","","","","","","","","","","","null","+","Fixation - short","","null","","","","","","","","","","","","","","","","",""
"","html-keyboard-response","52","807428","0.0-80.0","kjqy5ud9","","","","","","","","","","","","","587","rif","Inducer practice","","j","","Practice","","","","true","","","","","j","1","","true","RIGHT","",""
"","html-keyboard-response","53","808180","0.0-83.0","kjqy5ud9","1440","876","","","","","","","","","","","null","+","Fixation - short","","null","","","","","","","","","","","","","","","","",""
"","html-keyboard-response","54","816882","0.0-84.0","kjqy5ud9","","","","","","","","","","","","","8701","If efg press RIGHT | If jsf press LEFT","Inducer practice",""," ","","Practice","","","","","","","","","","","","","","",""
"","html-keyboard-response","55","817634","0.0-85.0","kjqy5ud9","1440","876","","","","","","","","","","","null","+","Fixation - short","","null","","","","","","","","","","","","","","","","",""
"","html-keyboard-response","56","818323","0.0-86.0","kjqy5ud9","","","","","","","","","","","","","688","efg","Inducer practice","","j","","Practice","","","","true","","","","","j","1","","true","RIGHT","",""
"","html-keyboard-response","57","819075","0.0-89.0","kjqy5ud9","1440","876","","","","","","","","","","","null","+","Fixation - short","","null","","","","","","","","","","","","","","","","",""
"","html-keyboard-response","58","824453","0.0-90.0","kjqy5ud9","","","","","","","","","","","","","5377","If geb press RIGHT | If sdw press LEFT","Inducer practice",""," ","","Practice","","","","","","","","","","","","","","",""
"","html-keyboard-response","59","825205","0.0-91.0","kjqy5ud9","1440","876","","","","","","","","","","","null","+","Fixation - short","","null","","","","","","","","","","","","","","","","",""
"","html-keyboard-response","60","825997","0.0-92.0","kjqy5ud9","","","","","","","","","","","","","790","geb","Inducer practice","","j","","Practice","","","","true","","","","","j","1","","true","RIGHT","",""
"","html-keyboard-response","61","826749","0.0-95.0","kjqy5ud9","1440","876","","","","","","","","","","","null","+","Fixation - short","","null","","","","","","","","","","","","","","","","",""
"","html-keyboard-response","62","828967","0.0-96.0","kjqy5ud9","","","","","","","","","","","","","2216","If zpl press RIGHT | If edc press LEFT","Inducer practice",""," ","","Practice","","","","","","","","","","","","","","",""
"","html-keyboard-response","63","829719","0.0-97.0","kjqy5ud9","1440","876","","","","","","","","","","","null","+","Fixation - short","","null","","","","","","","","","","","","","","","","",""
"","html-keyboard-response","64","830845","0.0-98.0","kjqy5ud9","","","","","","","","","","","","","1125","edc","Inducer practice","","f","","Practice","","","","true","","","","","f","1","","true","LEFT","",""
"","html-keyboard-response","65","831598","0.0-101.0","kjqy5ud9","1440","876","","","","","","","","","","","null","+","Fixation - short","","null","","","","","","","","","","","","","","","","",""
"","html-keyboard-response","66","836667","0.0-102.0","kjqy5ud9","","","","","","","","","","","","","5068","If cui press RIGHT | If adj press LEFT","Inducer practice",""," ","","Practice","","","","","","","","","","","","","","",""
"","html-keyboard-response","67","837420","0.0-103.0","kjqy5ud9","1440","876","","","","","","","","","","","null","+","Fixation - short","","null","","","","","","","","","","","","","","","","",""
"","html-keyboard-response","68","838073","0.0-104.0","kjqy5ud9","","","","","","","","","","","","","652","adj","Inducer practice","","f","","Practice","","","","true","","","","","f","1","","true","LEFT","",""
"","html-keyboard-response","69","838826","0.0-107.0","kjqy5ud9","1440","876","","","","","","","","","","","null","+","Fixation - short","","null","","","","","","","","","","","","","","","","",""
"","instructions","70","892688","0.0-108.0","kjqy5ud9","","","","","","","","","","","","[{""page_index"":0,""viewing_time"":53860}]","53861","Instructions","Final experiment explanation","","","","","","","","","","","","","","","","","","",""
"","html-keyboard-response","71","897913","0.0-109.0","kjqy5ud9","","","","","","","","","","","","","3723","If bgi press RIGHT | If ufc press LEFT","Cue practice",""," ","","Practice","","","","","","","","","","","","","","",""
"","html-keyboard-response","72","898666","0.0-110.0","kjqy5ud9","1440","876","","","","","","","","","","","null","+","Fixation - short","","null","","","","","","","","","","","","","","","","",""
"","html-keyboard-response","73","899387","0.0-111.0","kjqy5ud9","","","","","","","","","","","","","720","ufc","Cue practice","","f","","Practice","0","13","false","false","true","both pre & post","LEFT","RIGHT","j","0","false","","","",""
"","call-function","74","899387","0.0-113.0-0.0","kjqy5ud9","","","","","","","","","","","","","","","","","","","","","","","","","","","","","","","","","",""
"","html-keyboard-response","75","899690","0.0-113.0-1.0","kjqy5ud9","1440","876","","","","","","","","","","","null","Wrong","Feedback","","null","","","","","","","","","","","","","","","","",""
"","call-function","76","899691","0.0-113.0-2.0","kjqy5ud9","","","","","","","","","","","","","","","","","","","","","","","","","","","","","","","","","",""
"","html-keyboard-response","77","900443","0.0-114.0","kjqy5ud9","1440","876","","","","","","","","","","","null","+","Fixation - short","","null","","","","","","","","","","","","","","","","",""
"","html-keyboard-response","78","901614","0.0-115.0","kjqy5ud9","","","","","","","","","","","","","1170","ufc","Cue practice","","j","","Practice","1","13","false","false","true","both pre & post","LEFT","RIGHT","j","1","false","","","",""
"","html-keyboard-response","79","902367","0.0-118.0","kjqy5ud9","1440","876","","","","","","","","","","","null","+","Fixation - short","","null","","","","","","","","","","","","","","","","",""
"","html-keyboard-response","80","904619","0.0-119.0","kjqy5ud9","","","","","","","","","","","","","2251","bgi","Cue practice","","f","","Practice","2","13","false","false","false","both pre & post","RIGHT","LEFT","f","1","false","","","",""
"","html-keyboard-response","81","905372","0.0-122.0","kjqy5ud9","1440","876","","","","","","","","","","","null","+","Fixation - short","","null","","","","","","","","","","","","","","","","",""
"","html-keyboard-response","82","906315","0.0-123.0","kjqy5ud9","","","","","","","","","","","","","942","ufc","Cue practice","","f","","Practice","3","13","false","false","false","both pre & post","LEFT","LEFT","f","1","true","","","",""
"","html-keyboard-response","83","907067","0.0-126.0","kjqy5ud9","1440","876","","","","","","","","","","","null","+","Fixation - short","","null","","","","","","","","","","","","","","","","",""
"","html-keyboard-response","84","907833","0.0-127.0","kjqy5ud9","","","","","","","","","","","","","765","ufc","Cue practice","","j","","Practice","4","13","false","false","true","both pre & post","LEFT","RIGHT","j","1","false","","","",""
"","html-keyboard-response","85","908585","0.0-130.0","kjqy5ud9","1440","876","","","","","","","","","","","null","+","Fixation - short","","null","","","","","","","","","","","","","","","","",""
"","html-keyboard-response","86","909788","0.0-131.0","kjqy5ud9","","","","","","","","","","","","","1202","bgi","Cue practice","","f","","Practice","5","13","false","false","false","both pre & post","RIGHT","LEFT","f","1","false","","","",""
"","html-keyboard-response","87","910540","0.0-134.0","kjqy5ud9","1440","876","","","","","","","","","","","null","+","Fixation - short","","null","","","","","","","","","","","","","","","","",""
"","html-keyboard-response","88","911156","0.0-135.0","kjqy5ud9","","","","","","","","","","","","","614","ufc","Cue practice","","j","","Practice","6","13","false","false","true","both pre & post","LEFT","RIGHT","j","1","false","","","",""
"","html-keyboard-response","89","911908","0.0-138.0","kjqy5ud9","1440","876","","","","","","","","","","","null","+","Fixation - short","","null","","","","","","","","","","","","","","","","",""
"","html-keyboard-response","90","912626","0.0-139.0","kjqy5ud9","","","","","","","","","","","","","717","ufc","Cue practice","","j","","Practice","7","13","false","false","true","both pre & post","LEFT","RIGHT","j","1","false","","","",""
"","html-keyboard-response","91","913378","0.0-142.0","kjqy5ud9","1440","876","","","","","","","","","","","null","+","Fixation - short","","null","","","","","","","","","","","","","","","","",""
"","html-keyboard-response","92","914026","0.0-143.0","kjqy5ud9","","","","","","","","","","","","","646","ufc","Cue practice","","f","","Practice","8","13","false","false","false","both pre & post","LEFT","LEFT","f","1","true","","","",""
"","html-keyboard-response","93","914777","0.0-146.0","kjqy5ud9","1440","876","","","","","","","","","","","null","+","Fixation - short","","null","","","","","","","","","","","","","","","","",""
"","html-keyboard-response","94","915524","0.0-147.0","kjqy5ud9","","","","","","","","","","","","","746","ufc","Cue practice","","j","","Practice","9","13","false","false","true","both pre & post","LEFT","RIGHT","j","1","false","","","",""
"","html-keyboard-response","95","916277","0.0-150.0","kjqy5ud9","1440","876","","","","","","","","","","","null","+","Fixation - short","","null","","","","","","","","","","","","","","","","",""
"","html-keyboard-response","96","917033","0.0-151.0","kjqy5ud9","","","","","","","","","","","","","755","bgi","Cue practice","","f","","Practice","10","13","false","false","false","both pre & post","RIGHT","LEFT","f","1","false","","","",""
"","html-keyboard-response","97","917785","0.0-154.0","kjqy5ud9","1440","876","","","","","","","","","","","null","+","Fixation - short","","null","","","","","","","","","","","","","","","","",""
"","html-keyboard-response","98","918576","0.0-155.0","kjqy5ud9","","","","","","","","","","","","","789","ufc","Cue practice","","j","","Practice","11","13","false","false","true","both pre & post","LEFT","RIGHT","j","1","false","","","",""
"","html-keyboard-response","99","919328","0.0-158.0","kjqy5ud9","1440","876","","","","","","","","","","","null","+","Fixation - short","","null","","","","","","","","","","","","","","","","",""
"","html-keyboard-response","100","920312","0.0-159.0","kjqy5ud9","","","","","","","","","","","","","983","ufc","Cue practice","","f","","Practice","12","13","false","false","false","both pre & post","LEFT","LEFT","f","1","true","","","",""
"","html-keyboard-response","101","921064","0.0-162.0","kjqy5ud9","1440","876","","","","","","","","","","","null","+","Fixation - short","","null","","","","","","","","","","","","","","","","",""
"","canvas-keyboard-response","102","922336","0.0-163.0","kjqy5ud9","","","","","","","","","","","","","null","Cue","Cue","","null","","Practice","12","","","false","","","","","","","","","","",""
"","html-keyboard-response","103","923090","0.0-164.0","kjqy5ud9","1440","876","","","","","","","","","","","null","+","Fixation - short","","null","","","","","","","","","","","","","","","","",""
"","html-keyboard-response","104","924687","0.0-165.0","kjqy5ud9","","","","","","","","","","","","","1597","bgi","Cue practice","","f","","Practice","13","13","true","false","false","both pre & post","RIGHT","LEFT","f","1","false","","","",""
"","html-keyboard-response","105","925440","0.0-168.0","kjqy5ud9","1440","876","","","","","","","","","","","null","+","Fixation - short","","null","","","","","","","","","","","","","","","","",""
"","html-keyboard-response","106","926317","0.0-169.0","kjqy5ud9","","","","","","","","","","","","","876","bgi","Cue practice","","j","","Practice","14","13","true","false","true","both pre & post","RIGHT","RIGHT","j","1","true","","","",""
"","html-keyboard-response","107","927069","0.0-172.0","kjqy5ud9","1440","876","","","","","","","","","","","null","+","Fixation - short","","null","","","","","","","","","","","","","","","","",""
"","html-keyboard-response","108","927955","0.0-173.0","kjqy5ud9","","","","","","","","","","","","","885","ufc","Cue practice","","f","","Practice","15","13","true","false","true","both pre & post","LEFT","RIGHT","j","0","false","","","",""
"","call-function","109","927956","0.0-175.0-0.0","kjqy5ud9","","","","","","","","","","","","","","","","","","","","","","","","","","","","","","","","","",""
"","html-keyboard-response","110","928258","0.0-175.0-1.0","kjqy5ud9","1440","876","","","","","","","","","","","null","Wrong","Feedback","","null","","","","","","","","","","","","","","","","",""
"","call-function","111","928259","0.0-175.0-2.0","kjqy5ud9","","","","","","","","","","","","","","","","","","","","","","","","","","","","","","","","","",""
"","html-keyboard-response","112","929011","0.0-176.0","kjqy5ud9","1440","876","","","","","","","","","","","null","+","Fixation - short","","null","","","","","","","","","","","","","","","","",""
"","html-keyboard-response","113","929809","0.0-177.0","kjqy5ud9","","","","","","","","","","","","","797","ufc","Inducer practice","","f","","Practice","","","","true","","","","","f","1","","false","LEFT","",""
"","html-keyboard-response","114","930561","0.0-180.0","kjqy5ud9","1440","876","","","","","","","","","","","null","+","Fixation - short","","null","","","","","","","","","","","","","","","","",""
"","instructions","115","949089","0.0-181.0","kjqy5ud9","","","","","","","","","","","","[{""page_index"":0,""viewing_time"":18526}]","18526","End practice","End of practice","","","","","","","","","","","","","","","","","","",""
"","html-keyboard-response","116","952094","0.0-182.0","kjqy5ud9","1440","876","","","","","","","","","","","null","+","Fixation - long","","null","","","","","","","","","","","","","","","","",""
"","html-keyboard-response","117","956611","0.0-183.0","kjqy5ud9","","","","","","","","","","","","","4516","If guf press RIGHT | If psl press LEFT","Inducer instructions",""," ","","0","","","","","","","","","","","","","","",""
"","html-keyboard-response","118","957363","0.0-184.0","kjqy5ud9","1440","876","","","","","","","","","","","null","+","Fixation - short","","null","","","","","","","","","","","","","","","","",""
"","html-keyboard-response","119","958284","0.0-185.0","kjqy5ud9","","","","","","","","","","","","","920","guf","Diagnostic trial","","f","","0","0","5","false","false","false","both pre & post","RIGHT","LEFT","f","1","false","","","",""
"","html-keyboard-response","120","959036","0.0-188.0","kjqy5ud9","1440","876","","","","","","","","","","","null","+","Fixation - short","","null","","","","","","","","","","","","","","","","",""
"","html-keyboard-response","121","959722","0.0-189.0","kjqy5ud9","","","","","","","","","","","","","683","guf","Diagnostic trial","","j","","0","1","5","false","false","true","both pre & post","RIGHT","RIGHT","j","1","true","","","",""
"","html-keyboard-response","122","960473","0.0-192.0","kjqy5ud9","1440","876","","","","","","","","","","","null","+","Fixation - short","","null","","","","","","","","","","","","","","","","",""
"","html-keyboard-response","123","961141","0.0-193.0","kjqy5ud9","","","","","","","","","","","","","666","psl","Diagnostic trial","","j","","0","2","5","false","false","true","both pre & post","LEFT","RIGHT","j","1","false","","","",""
"","html-keyboard-response","124","961893","0.0-196.0","kjqy5ud9","1440","876","","","","","","","","","","","null","+","Fixation - short","","null","","","","","","","","","","","","","","","","",""
"","html-keyboard-response","125","962984","0.0-197.0","kjqy5ud9","","","","","","","","","","","","","1090","guf","Diagnostic trial","","j","","0","3","5","false","false","true","both pre & post","RIGHT","RIGHT","j","1","true","","","",""
"","html-keyboard-response","126","963736","0.0-200.0","kjqy5ud9","1440","876","","","","","","","","","","","null","+","Fixation - short","","null","","","","","","","","","","","","","","","","",""
"","html-keyboard-response","127","964317","0.0-201.0","kjqy5ud9","","","","","","","","","","","","","579","psl","Diagnostic trial","","f","","0","4","5","false","false","false","both pre & post","LEFT","LEFT","f","1","true","","","",""
"","html-keyboard-response","128","965069","0.0-204.0","kjqy5ud9","1440","876","","","","","","","","","","","null","+","Fixation - short","","null","","","","","","","","","","","","","","","","",""
"","canvas-keyboard-response","129","966322","0.0-205.0","kjqy5ud9","","","","","","","","","","","","","null","Cue","Cue","","null","","0","4","","","false","","","","","","","","","","",""
"","html-keyboard-response","130","967075","0.0-206.0","kjqy5ud9","1440","876","","","","","","","","","","","null","+","Fixation - short","","null","","","","","","","","","","","","","","","","",""
"","html-keyboard-response","131","968187","0.0-207.0","kjqy5ud9","","","","","","","","","","","","","1111","guf","Diagnostic trial","","f","","0","5","5","true","false","false","both pre & post","RIGHT","LEFT","f","1","false","","","",""
"","html-keyboard-response","132","968939","0.0-210.0","kjqy5ud9","1440","876","","","","","","","","","","","null","+","Fixation - short","","null","","","","","","","","","","","","","","","","",""
"","html-keyboard-response","133","969646","0.0-211.0","kjqy5ud9","","","","","","","","","","","","","706","psl","Diagnostic trial","","f","","0","6","5","true","false","false","both pre & post","LEFT","LEFT","f","1","true","","","",""
"","html-keyboard-response","134","970399","0.0-214.0","kjqy5ud9","1440","876","","","","","","","","","","","null","+","Fixation - short","","null","","","","","","","","","","","","","","","","",""
"","html-keyboard-response","135","972401","0.0-215.0","kjqy5ud9","","","","","","","","","","","","","null","guf","Inducer trial","","null","","0","","","","true","","","","","j","NaN","","false","RIGHT","",""
"","call-function","136","972402","0.0-216.0-0.0","kjqy5ud9","","","","","","","","","","","","","","","","","","","","","","","","","","","","","","","","","",""
"","html-keyboard-response","137","972704","0.0-216.0-1.0","kjqy5ud9","1440","876","","","","","","","","","","","null","Slow","Feedback","","null","","","","","","","","","","","","","","","","",""
"","call-function","138","972705","0.0-216.0-2.0","kjqy5ud9","","","","","","","","","","","","","","","","","","","","","","","","","","","","","","","","","",""
"","html-keyboard-response","139","973457","0.0-218.0","kjqy5ud9","1440","876","","","","","","","","","","","null","+","Fixation - short","","null","","","","","","","","","","","","","","","","",""
"","html-keyboard-response","140","990650","0.0-219.0","kjqy5ud9","","","","","","","","","","","","","17192","If afp press RIGHT | If ndm press LEFT","Inducer instructions",""," ","","1","","","","","","","","","","","","","","",""
"","html-keyboard-response","141","991403","0.0-220.0","kjqy5ud9","1440","876","","","","","","","","","","","null","+","Fixation - short","","null","","","","","","","","","","","","","","","","",""
"","html-keyboard-response","142","992160","0.0-221.0","kjqy5ud9","","","","","","","","","","","","","757","ndm","Diagnostic trial","","f","","1","0","4","false","false","false","both pre & post","LEFT","LEFT","f","1","true","","","",""
"","html-keyboard-response","143","992912","0.0-224.0","kjqy5ud9","1440","876","","","","","","","","","","","null","+","Fixation - short","","null","","","","","","","","","","","","","","","","",""
"","html-keyboard-response","144","993530","0.0-225.0","kjqy5ud9","","","","","","","","","","","","","617","ndm","Diagnostic trial","","f","","1","1","4","false","false","false","both pre & post","LEFT","LEFT","f","1","true","","","",""
"","html-keyboard-response","145","994283","0.0-228.0","kjqy5ud9","1440","876","","","","","","","","","","","null","+","Fixation - short","","null","","","","","","","","","","","","","","","","",""
"","html-keyboard-response","146","994885","0.0-229.0","kjqy5ud9","","","","","","","","","","","","","602","afp","Diagnostic trial","","j","","1","2","4","false","false","true","both pre & post","RIGHT","RIGHT","j","1","true","","","",""
"","html-keyboard-response","147","995638","0.0-232.0","kjqy5ud9","1440","876","","","","","","","","","","","null","+","Fixation - short","","null","","","","","","","","","","","","","","","","",""
"","html-keyboard-response","148","996427","0.0-233.0","kjqy5ud9","","","","","","","","","","","","","788","afp","Diagnostic trial","","f","","1","3","4","false","false","false","both pre & post","RIGHT","LEFT","f","1","false","","","",""
"","html-keyboard-response","149","997179","0.0-236.0","kjqy5ud9","1440","876","","","","","","","","","","","null","+","Fixation - short","","null","","","","","","","","","","","","","","","","",""
"","canvas-keyboard-response","150","998433","0.0-237.0","kjqy5ud9","","","","","","","","","","","","","null","Cue","Cue","","null","","1","3","","","false","","","","","","","","","","",""
"","html-keyboard-response","151","999186","0.0-238.0","kjqy5ud9","1440","876","","","","","","","","","","","null","+","Fixation - short","","null","","","","","","","","","","","","","","","","",""
"","html-keyboard-response","152","1000142","0.0-239.0","kjqy5ud9","","","","","","","","","","","","","955","afp","Diagnostic trial","","f","","1","4","4","true","false","false","both pre & post","RIGHT","LEFT","f","1","false","","","",""
"","html-keyboard-response","153","1000895","0.0-242.0","kjqy5ud9","1440","876","","","","","","","","","","","null","+","Fixation - short","","null","","","","","","","","","","","","","","","","",""
"","html-keyboard-response","154","1002046","0.0-243.0","kjqy5ud9","","","","","","","","","","","","","1150","afp","Diagnostic trial","","j","","1","5","4","true","false","true","both pre & post","RIGHT","RIGHT","j","1","true","","","",""
"","html-keyboard-response","155","1002798","0.0-246.0","kjqy5ud9","1440","876","","","","","","","","","","","null","+","Fixation - short","","null","","","","","","","","","","","","","","","","",""
"","html-keyboard-response","156","1003736","0.0-247.0","kjqy5ud9","","","","","","","","","","","","","936","ndm","Inducer trial","","f","","1","","","","true","","","","","f","1","","false","LEFT","",""
"","html-keyboard-response","157","1004489","0.0-250.0","kjqy5ud9","1440","876","","","","","","","","","","","null","+","Fixation - short","","null","","","","","","","","","","","","","","","","",""
"","html-keyboard-response","158","1009808","0.0-251.0","kjqy5ud9","","","","","","","","","","","","","5319","If gfm press RIGHT | If fuc press LEFT","Inducer instructions",""," ","","2","","","","","","","","","","","","","","",""
"","html-keyboard-response","159","1010561","0.0-252.0","kjqy5ud9","1440","876","","","","","","","","","","","null","+","Fixation - short","","null","","","","","","","","","","","","","","","","",""
"","html-keyboard-response","160","1011089","0.0-253.0","kjqy5ud9","","","","","","","","","","","","","527","gfm","Diagnostic trial","","j","","2","0","5","false","false","true","both pre & post","RIGHT","RIGHT","j","1","true","","","",""
"","html-keyboard-response","161","1011842","0.0-256.0","kjqy5ud9","1440","876","","","","","","","","","","","null","+","Fixation - short","","null","","","","","","","","","","","","","","","","",""
"","html-keyboard-response","162","1012634","0.0-257.0","kjqy5ud9","","","","","","","","","","","","","791","gfm","Diagnostic trial","","f","","2","1","5","false","false","false","both pre & post","RIGHT","LEFT","f","1","false","","","",""
"","html-keyboard-response","163","1013386","0.0-260.0","kjqy5ud9","1440","876","","","","","","","","","","","null","+","Fixation - short","","null","","","","","","","","","","","","","","","","",""
"","html-keyboard-response","164","1014767","0.0-261.0","kjqy5ud9","","","","","","","","","","","","","1380","gfm","Diagnostic trial","","f","","2","2","5","false","false","false","both pre & post","RIGHT","LEFT","f","1","false","","","",""
"","html-keyboard-response","165","1015519","0.0-264.0","kjqy5ud9","1440","876","","","","","","","","","","","null","+","Fixation - short","","null","","","","","","","","","","","","","","","","",""
"","html-keyboard-response","166","1016372","0.0-265.0","kjqy5ud9","","","","","","","","","","","","","852","gfm","Diagnostic trial","","f","","2","3","5","false","false","false","both pre & post","RIGHT","LEFT","f","1","false","","","",""
"","html-keyboard-response","167","1017125","0.0-268.0","kjqy5ud9","1440","876","","","","","","","","","","","null","+","Fixation - short","","null","","","","","","","","","","","","","","","","",""
"","html-keyboard-response","168","1017765","0.0-269.0","kjqy5ud9","","","","","","","","","","","","","639","fuc","Diagnostic trial","","f","","2","4","5","false","false","false","both pre & post","LEFT","LEFT","f","1","true","","","",""
"","html-keyboard-response","169","1018517","0.0-272.0","kjqy5ud9","1440","876","","","","","","","","","","","null","+","Fixation - short","","null","","","","","","","","","","","","","","","","",""
"","canvas-keyboard-response","170","1019770","0.0-273.0","kjqy5ud9","","","","","","","","","","","","","null","Cue","Cue","","null","","2","4","","","false","","","","","","","","","","",""
"","html-keyboard-response","171","1020522","0.0-274.0","kjqy5ud9","1440","876","","","","","","","","","","","null","+","Fixation - short","","null","","","","","","","","","","","","","","","","",""
"","html-keyboard-response","172","1021347","0.0-275.0","kjqy5ud9","","","","","","","","","","","","","825","gfm","Diagnostic trial","","f","","2","5","5","true","false","false","both pre & post","RIGHT","LEFT","f","1","false","","","",""
"","html-keyboard-response","173","1022099","0.0-278.0","kjqy5ud9","1440","876","","","","","","","","","","","null","+","Fixation - short","","null","","","","","","","","","","","","","","","","",""
"","html-keyboard-response","174","1022827","0.0-279.0","kjqy5ud9","","","","","","","","","","","","","727","gfm","Diagnostic trial","","j","","2","6","5","true","false","false","both pre & post","RIGHT","LEFT","f","0","false","","","",""
"","call-function","175","1022828","0.0-281.0-0.0","kjqy5ud9","","","","","","","","","","","","","","","","","","","","","","","","","","","","","","","","","",""
"","html-keyboard-response","176","1023130","0.0-281.0-1.0","kjqy5ud9","1440","876","","","","","","","","","","","null","Wrong","Feedback","","null","","","","","","","","","","","","","","","","",""
"","call-function","177","1023131","0.0-281.0-2.0","kjqy5ud9","","","","","","","","","","","","","","","","","","","","","","","","","","","","","","","","","",""
"","html-keyboard-response","178","1023882","0.0-282.0","kjqy5ud9","1440","876","","","","","","","","","","","null","+","Fixation - short","","null","","","","","","","","","","","","","","","","",""
"","html-keyboard-response","179","1025279","0.0-283.0","kjqy5ud9","","","","","","","","","","","","","1396","fuc","Diagnostic trial","","f","","2","7","5","true","false","true","both pre & post","LEFT","RIGHT","j","0","false","","","",""
"","call-function","180","1025280","0.0-285.0-0.0","kjqy5ud9","","","","","","","","","","","","","","","","","","","","","","","","","","","","","","","","","",""
"","html-keyboard-response","181","1025583","0.0-285.0-1.0","kjqy5ud9","1440","876","","","","","","","","","","","null","Wrong","Feedback","","null","","","","","","","","","","","","","","","","",""
"","call-function","182","1025583","0.0-285.0-2.0","kjqy5ud9","","","","","","","","","","","","","","","","","","","","","","","","","","","","","","","","","",""
"","html-keyboard-response","183","1026334","0.0-286.0","kjqy5ud9","1440","876","","","","","","","","","","","null","+","Fixation - short","","null","","","","","","","","","","","","","","","","",""
"","html-keyboard-response","184","1028074","0.0-287.0","kjqy5ud9","","","","","","","","","","","","","1738","gfm","Diagnostic trial","","f","","2","8","5","true","false","false","both pre & post","RIGHT","LEFT","f","1","false","","","",""
"","html-keyboard-response","185","1028826","0.0-290.0","kjqy5ud9","1440","876","","","","","","","","","","","null","+","Fixation - short","","null","","","","","","","","","","","","","","","","",""
"","html-keyboard-response","186","1030086","0.0-291.0","kjqy5ud9","","","","","","","","","","","","","1259","gfm","Inducer trial","","j","","2","","","","true","","","","","j","1","","false","RIGHT","",""
"","html-keyboard-response","187","1030839","0.0-294.0","kjqy5ud9","1440","876","","","","","","","","","","","null","+","Fixation - short","","null","","","","","","","","","","","","","","","","",""
"","html-keyboard-response","188","1041845","0.0-295.0","kjqy5ud9","","","","","","","","","","","","","11005","If mik press RIGHT | If swr press LEFT","Inducer instructions",""," ","","3","","","","","","","","","","","","","","",""
"","html-keyboard-response","189","1042597","0.0-296.0","kjqy5ud9","1440","876","","","","","","","","","","","null","+","Fixation - short","","null","","","","","","","","","","","","","","","","",""
"","html-keyboard-response","190","1044078","0.0-297.0","kjqy5ud9","","","","","","","","","","","","","1479","mik","Diagnostic trial","","f","","3","0","9","false","false","false","both pre & post","RIGHT","LEFT","f","1","false","","","",""
"","html-keyboard-response","191","1044830","0.0-300.0","kjqy5ud9","1440","876","","","","","","","","","","","null","+","Fixation - short","","null","","","","","","","","","","","","","","","","",""
"","html-keyboard-response","192","1045548","0.0-301.0","kjqy5ud9","","","","","","","","","","","","","717","mik","Diagnostic trial","","j","","3","1","9","false","false","true","both pre & post","RIGHT","RIGHT","j","1","true","","","",""
"","html-keyboard-response","193","1046300","0.0-304.0","kjqy5ud9","1440","876","","","","","","","","","","","null","+","Fixation - short","","null","","","","","","","","","","","","","","","","",""
"","html-keyboard-response","194","1046840","0.0-305.0","kjqy5ud9","","","","","","","","","","","","","539","mik","Diagnostic trial","","j","","3","2","9","false","false","true","both pre & post","RIGHT","RIGHT","j","1","true","","","",""
"","html-keyboard-response","195","1047593","0.0-308.0","kjqy5ud9","1440","876","","","","","","","","","","","null","+","Fixation - short","","null","","","","","","","","","","","","","","","","",""
"","html-keyboard-response","196","1048322","0.0-309.0","kjqy5ud9","","","","","","","","","","","","","728","swr","Diagnostic trial","","j","","3","3","9","false","false","true","both pre & post","LEFT","RIGHT","j","1","false","","","",""
"","html-keyboard-response","197","1049075","0.0-312.0","kjqy5ud9","1440","876","","","","","","","","","","","null","+","Fixation - short","","null","","","","","","","","","","","","","","","","",""
"","html-keyboard-response","198","1049659","0.0-313.0","kjqy5ud9","","","","","","","","","","","","","583","swr","Diagnostic trial","","j","","3","4","9","false","false","true","both pre & post","LEFT","RIGHT","j","1","false","","","",""
"","html-keyboard-response","199","1050411","0.0-316.0","kjqy5ud9","1440","876","","","","","","","","","","","null","+","Fixation - short","","null","","","","","","","","","","","","","","","","",""
"","html-keyboard-response","200","1051065","0.0-317.0","kjqy5ud9","","","","","","","","","","","","","652","swr","Diagnostic trial","","f","","3","5","9","false","false","false","both pre & post","LEFT","LEFT","f","1","true","","","",""
"","html-keyboard-response","201","1051817","0.0-320.0","kjqy5ud9","1440","876","","","","","","","","","","","null","+","Fixation - short","","null","","","","","","","","","","","","","","","","",""
"","html-keyboard-response","202","1052679","0.0-321.0","kjqy5ud9","","","","","","","","","","","","","860","swr","Diagnostic trial","","f","","3","6","9","false","false","false","both pre & post","LEFT","LEFT","f","1","true","","","",""
"","html-keyboard-response","203","1053431","0.0-324.0","kjqy5ud9","1440","876","","","","","","","","","","","null","+","Fixation - short","","null","","","","","","","","","","","","","","","","",""
"","html-keyboard-response","204","1054282","0.0-325.0","kjqy5ud9","","","","","","","","","","","","","850","mik","Diagnostic trial","","f","","3","7","9","false","false","false","both pre & post","RIGHT","LEFT","f","1","false","","","",""
"","html-keyboard-response","205","1055034","0.0-328.0","kjqy5ud9","1440","876","","","","","","","","","","","null","+","Fixation - short","","null","","","","","","","","","","","","","","","","",""
"","html-keyboard-response","206","1055601","0.0-329.0","kjqy5ud9","","","","","","","","","","","","","566","swr","Diagnostic trial","","j","","3","8","9","false","false","true","both pre & post","LEFT","RIGHT","j","1","false","","","",""
"","html-keyboard-response","207","1056353","0.0-332.0","kjqy5ud9","1440","876","","","","","","","","","","","null","+","Fixation - short","","null","","","","","","","","","","","","","","","","",""
"","canvas-keyboard-response","208","1057607","0.0-333.0","kjqy5ud9","","","","","","","","","","","","","null","Cue","Cue","","null","","3","8","","","false","","","","","","","","","","",""
"","html-keyboard-response","209","1058359","0.0-334.0","kjqy5ud9","1440","876","","","","","","","","","","","null","+","Fixation - short","","null","","","","","","","","","","","","","","","","",""
"","html-keyboard-response","210","1059631","0.0-335.0","kjqy5ud9","","","","","","","","","","","","","1270","mik","Diagnostic trial","","j","","3","9","9","true","false","true","both pre & post","RIGHT","RIGHT","j","1","true","","","",""
"","html-keyboard-response","211","1060384","0.0-338.0","kjqy5ud9","1440","876","","","","","","","","","","","null","+","Fixation - short","","null","","","","","","","","","","","","","","","","",""
"","html-keyboard-response","212","1061008","0.0-339.0","kjqy5ud9","","","","","","","","","","","","","624","mik","Diagnostic trial","","j","","3","10","9","true","false","true","both pre & post","RIGHT","RIGHT","j","1","true","","","",""
"","html-keyboard-response","213","1061761","0.0-342.0","kjqy5ud9","1440","876","","","","","","","","","","","null","+","Fixation - short","","null","","","","","","","","","","","","","","","","",""
"","html-keyboard-response","214","1062494","0.0-343.0","kjqy5ud9","","","","","","","","","","","","","732","swr","Diagnostic trial","","j","","3","11","9","true","false","true","both pre & post","LEFT","RIGHT","j","1","false","","","",""
"","html-keyboard-response","215","1063245","0.0-346.0","kjqy5ud9","1440","876","","","","","","","","","","","null","+","Fixation - short","","null","","","","","","","","","","","","","","","","",""
"","html-keyboard-response","216","1063817","0.0-347.0","kjqy5ud9","","","","","","","","","","","","","571","swr","Diagnostic trial","","j","","3","12","9","true","false","true","both pre & post","LEFT","RIGHT","j","1","false","","","",""
"","html-keyboard-response","217","1064570","0.0-350.0","kjqy5ud9","1440","876","","","","","","","","","","","null","+","Fixation - short","","null","","","","","","","","","","","","","","","","",""
"","html-keyboard-response","218","1065742","0.0-351.0","kjqy5ud9","","","","","","","","","","","","","1171","swr","Inducer trial","","f","","3","","","","true","","","","","f","1","","false","LEFT","",""
"","html-keyboard-response","219","1066495","0.0-354.0","kjqy5ud9","1440","876","","","","","","","","","","","null","+","Fixation - short","","null","","","","","","","","","","","","","","","","",""
"","html-keyboard-response","220","1069227","0.0-355.0","kjqy5ud9","","","","","","","","","","","","","2731","If jup press RIGHT | If epy press LEFT","Inducer instructions",""," ","","4","","","","","","","","","","","","","","",""
"","html-keyboard-response","221","1069979","0.0-356.0","kjqy5ud9","1440","876","","","","","","","","","","","null","+","Fixation - short","","null","","","","","","","","","","","","","","","","",""
"","html-keyboard-response","222","1070496","0.0-357.0","kjqy5ud9","","","","","","","","","","","","","515","epy","Diagnostic trial","","f","","4","0","9","false","false","false","both pre & post","LEFT","LEFT","f","1","true","","","",""
"","html-keyboard-response","223","1071248","0.0-360.0","kjqy5ud9","1440","876","","","","","","","","","","","null","+","Fixation - short","","null","","","","","","","","","","","","","","","","",""
"","html-keyboard-response","224","1072030","0.0-361.0","kjqy5ud9","","","","","","","","","","","","","781","jup","Diagnostic trial","","j","","4","1","9","false","false","true","both pre & post","RIGHT","RIGHT","j","1","true","","","",""
"","html-keyboard-response","225","1072783","0.0-364.0","kjqy5ud9","1440","876","","","","","","","","","","","null","+","Fixation - short","","null","","","","","","","","","","","","","","","","",""
"","html-keyboard-response","226","1073590","0.0-365.0","kjqy5ud9","","","","","","","","","","","","","806","epy","Diagnostic trial","","f","","4","2","9","false","false","false","both pre & post","LEFT","LEFT","f","1","true","","","",""
"","html-keyboard-response","227","1074343","0.0-368.0","kjqy5ud9","1440","876","","","","","","","","","","","null","+","Fixation - short","","null","","","","","","","","","","","","","","","","",""
"","html-keyboard-response","228","1075013","0.0-369.0","kjqy5ud9","","","","","","","","","","","","","669","jup","Diagnostic trial","","f","","4","3","9","false","false","false","both pre & post","RIGHT","LEFT","f","1","false","","","",""
"","html-keyboard-response","229","1075765","0.0-372.0","kjqy5ud9","1440","876","","","","","","","","","","","null","+","Fixation - short","","null","","","","","","","","","","","","","","","","",""
"","html-keyboard-response","230","1076353","0.0-373.0","kjqy5ud9","","","","","","","","","","","","","587","jup","Diagnostic trial","","f","","4","4","9","false","false","false","both pre & post","RIGHT","LEFT","f","1","false","","","",""
"","html-keyboard-response","231","1077106","0.0-376.0","kjqy5ud9","1440","876","","","","","","","","","","","null","+","Fixation - short","","null","","","","","","","","","","","","","","","","",""
"","html-keyboard-response","232","1077708","0.0-377.0","kjqy5ud9","","","","","","","","","","","","","601","jup","Diagnostic trial","","f","","4","5","9","false","false","false","both pre & post","RIGHT","LEFT","f","1","false","","","",""
"","html-keyboard-response","233","1078460","0.0-380.0","kjqy5ud9","1440","876","","","","","","","","","","","null","+","Fixation - short","","null","","","","","","","","","","","","","","","","",""
"","html-keyboard-response","234","1078959","0.0-381.0","kjqy5ud9","","","","","","","","","","","","","499","jup","Diagnostic trial","","f","","4","6","9","false","false","false","both pre & post","RIGHT","LEFT","f","1","false","","","",""
"","html-keyboard-response","235","1079712","0.0-384.0","kjqy5ud9","1440","876","","","","","","","","","","","null","+","Fixation - short","","null","","","","","","","","","","","","","","","","",""
"","html-keyboard-response","236","1081042","0.0-385.0","kjqy5ud9","","","","","","","","","","","","","1329","epy","Diagnostic trial","","j","","4","7","9","false","false","true","both pre & post","LEFT","RIGHT","j","1","false","","","",""
"","html-keyboard-response","237","1081794","0.0-388.0","kjqy5ud9","1440","876","","","","","","","","","","","null","+","Fixation - short","","null","","","","","","","","","","","","","","","","",""
"","html-keyboard-response","238","1082381","0.0-389.0","kjqy5ud9","","","","","","","","","","","","","586","jup","Diagnostic trial","","j","","4","8","9","false","false","true","both pre & post","RIGHT","RIGHT","j","1","true","","","",""
"","html-keyboard-response","239","1083132","0.0-392.0","kjqy5ud9","1440","876","","","","","","","","","","","null","+","Fixation - short","","null","","","","","","","","","","","","","","","","",""
"","canvas-keyboard-response","240","1084386","0.0-393.0","kjqy5ud9","","","","","","","","","","","","","null","Cue","Cue","","null","","4","8","","","false","","","","","","","","","","",""
"","html-keyboard-response","241","1085138","0.0-394.0","kjqy5ud9","1440","876","","","","","","","","","","","null","+","Fixation - short","","null","","","","","","","","","","","","","","","","",""
"","html-keyboard-response","242","1086094","0.0-395.0","kjqy5ud9","","","","","","","","","","","","","955","epy","Diagnostic trial","","f","","4","9","9","true","false","false","both pre & post","LEFT","LEFT","f","1","true","","","",""
"","html-keyboard-response","243","1086845","0.0-398.0","kjqy5ud9","1440","876","","","","","","","","","","","null","+","Fixation - short","","null","","","","","","","","","","","","","","","","",""
"","html-keyboard-response","244","1087705","0.0-399.0","kjqy5ud9","","","","","","","","","","","","","859","jup","Diagnostic trial","","f","","4","10","9","true","false","false","both pre & post","RIGHT","LEFT","f","1","false","","","",""
"","html-keyboard-response","245","1088458","0.0-402.0","kjqy5ud9","1440","876","","","","","","","","","","","null","+","Fixation - short","","null","","","","","","","","","","","","","","","","",""
"","html-keyboard-response","246","1089005","0.0-403.0","kjqy5ud9","","","","","","","","","","","","","546","epy","Diagnostic trial","","f","","4","11","9","true","false","false","both pre & post","LEFT","LEFT","f","1","true","","","",""
"","html-keyboard-response","247","1089757","0.0-406.0","kjqy5ud9","1440","876","","","","","","","","","","","null","+","Fixation - short","","null","","","","","","","","","","","","","","","","",""
"","html-keyboard-response","248","1090763","0.0-407.0","kjqy5ud9","","","","","","","","","","","","","1004","jup","Diagnostic trial","","j","","4","12","9","true","false","true","both pre & post","RIGHT","RIGHT","j","1","true","","","",""
"","html-keyboard-response","249","1091515","0.0-410.0","kjqy5ud9","1440","876","","","","","","","","","","","null","+","Fixation - short","","null","","","","","","","","","","","","","","","","",""
"","html-keyboard-response","250","1092681","0.0-411.0","kjqy5ud9","","","","","","","","","","","","","1165","jup","Inducer trial","","j","","4","","","","true","","","","","j","1","","false","RIGHT","",""
"","html-keyboard-response","251","1093433","0.0-414.0","kjqy5ud9","1440","876","","","","","","","","","","","null","+","Fixation - short","","null","","","","","","","","","","","","","","","","",""
"","html-keyboard-response","252","1096879","0.0-415.0","kjqy5ud9","","","","","","","","","","","","","3445","If xlv press RIGHT | If wwt press LEFT","Inducer instructions",""," ","","5","","","","","","","","","","","","","","",""
"","html-keyboard-response","253","1097632","0.0-416.0","kjqy5ud9","1440","876","","","","","","","","","","","null","+","Fixation - short","","null","","","","","","","","","","","","","","","","",""
"","html-keyboard-response","254","1098632","0.0-417.0","kjqy5ud9","","","","","","","","","","","","","999","xlv","Diagnostic trial","","j","","5","0","9","false","false","true","both pre & post","RIGHT","RIGHT","j","1","true","","","",""
"","html-keyboard-response","255","1099384","0.0-420.0","kjqy5ud9","1440","876","","","","","","","","","","","null","+","Fixation - short","","null","","","","","","","","","","","","","","","","",""
"","html-keyboard-response","256","1099948","0.0-421.0","kjqy5ud9","","","","","","","","","","","","","563","xlv","Diagnostic trial","","j","","5","1","9","false","false","true","both pre & post","RIGHT","RIGHT","j","1","true","","","",""
"","html-keyboard-response","257","1100700","0.0-424.0","kjqy5ud9","1440","876","","","","","","","","","","","null","+","Fixation - short","","null","","","","","","","","","","","","","","","","",""
"","html-keyboard-response","258","1101228","0.0-425.0","kjqy5ud9","","","","","","","","","","","","","527","wwt","Diagnostic trial","","j","","5","2","9","false","false","true","both pre & post","LEFT","RIGHT","j","1","false","","","",""
"","html-keyboard-response","259","1101981","0.0-428.0","kjqy5ud9","1440","876","","","","","","","","","","","null","+","Fixation - short","","null","","","","","","","","","","","","","","","","",""
"","html-keyboard-response","260","1102489","0.0-429.0","kjqy5ud9","","","","","","","","","","","","","507","xlv","Diagnostic trial","","j","","5","3","9","false","false","true","both pre & post","RIGHT","RIGHT","j","1","true","","","",""
"","html-keyboard-response","261","1103241","0.0-432.0","kjqy5ud9","1440","876","","","","","","","","","","","null","+","Fixation - short","","null","","","","","","","","","","","","","","","","",""
"","html-keyboard-response","262","1103709","0.0-433.0","kjqy5ud9","","","","","","","","","","","","","467","xlv","Diagnostic trial","","j","","5","4","9","false","false","true","both pre & post","RIGHT","RIGHT","j","1","true","","","",""
"","html-keyboard-response","263","1104461","0.0-436.0","kjqy5ud9","1440","876","","","","","","","","","","","null","+","Fixation - short","","null","","","","","","","","","","","","","","","","",""
"","html-keyboard-response","264","1104917","0.0-437.0","kjqy5ud9","","","","","","","","","","","","","455","wwt","Diagnostic trial","","j","","5","5","9","false","false","true","both pre & post","LEFT","RIGHT","j","1","false","","","",""
"","html-keyboard-response","265","1105669","0.0-440.0","kjqy5ud9","1440","876","","","","","","","","","","","null","+","Fixation - short","","null","","","","","","","","","","","","","","","","",""
"","html-keyboard-response","266","1106209","0.0-441.0","kjqy5ud9","","","","","","","","","","","","","539","wwt","Diagnostic trial","","j","","5","6","9","false","false","true","both pre & post","LEFT","RIGHT","j","1","false","","","",""
"","html-keyboard-response","267","1106962","0.0-444.0","kjqy5ud9","1440","876","","","","","","","","","","","null","+","Fixation - short","","null","","","","","","","","","","","","","","","","",""
"","html-keyboard-response","268","1107633","0.0-445.0","kjqy5ud9","","","","","","","","","","","","","670","wwt","Diagnostic trial","","f","","5","7","9","false","false","false","both pre & post","LEFT","LEFT","f","1","true","","","",""
"","html-keyboard-response","269","1108386","0.0-448.0","kjqy5ud9","1440","876","","","","","","","","","","","null","+","Fixation - short","","null","","","","","","","","","","","","","","","","",""
"","html-keyboard-response","270","1108845","0.0-449.0","kjqy5ud9","","","","","","","","","","","","","458","xlv","Diagnostic trial","","j","","5","8","9","false","false","true","both pre & post","RIGHT","RIGHT","j","1","true","","","",""
"","html-keyboard-response","271","1109598","0.0-452.0","kjqy5ud9","1440","876","","","","","","","","","","","null","+","Fixation - short","","null","","","","","","","","","","","","","","","","",""
"","canvas-keyboard-response","272","1110850","0.0-453.0","kjqy5ud9","","","","","","","","","","","","","null","Cue","Cue","","null","","5","8","","","false","","","","","","","","","","",""
"","html-keyboard-response","273","1111603","0.0-454.0","kjqy5ud9","1440","876","","","","","","","","","","","null","+","Fixation - short","","null","","","","","","","","","","","","","","","","",""
"","html-keyboard-response","274","1112529","0.0-455.0","kjqy5ud9","","","","","","","","","","","","","926","wwt","Diagnostic trial","","f","","5","9","9","true","false","false","both pre & post","LEFT","LEFT","f","1","true","","","",""
"","html-keyboard-response","275","1113281","0.0-458.0","kjqy5ud9","1440","876","","","","","","","","","","","null","+","Fixation - short","","null","","","","","","","","","","","","","","","","",""
"","html-keyboard-response","276","1113844","0.0-459.0","kjqy5ud9","","","","","","","","","","","","","563","wwt","Diagnostic trial","","f","","5","10","9","true","false","false","both pre & post","LEFT","LEFT","f","1","true","","","",""
"","html-keyboard-response","277","1114596","0.0-462.0","kjqy5ud9","1440","876","","","","","","","","","","","null","+","Fixation - short","","null","","","","","","","","","","","","","","","","",""
"","html-keyboard-response","278","1115279","0.0-463.0","kjqy5ud9","","","","","","","","","","","","","682","xlv","Diagnostic trial","","j","","5","11","9","true","false","true","both pre & post","RIGHT","RIGHT","j","1","true","","","",""
"","html-keyboard-response","279","1116031","0.0-466.0","kjqy5ud9","1440","876","","","","","","","","","","","null","+","Fixation - short","","null","","","","","","","","","","","","","","","","",""
"","html-keyboard-response","280","1116672","0.0-467.0","kjqy5ud9","","","","","","","","","","","","","640","wwt","Diagnostic trial","","f","","5","12","9","true","false","false","both pre & post","LEFT","LEFT","f","1","true","","","",""
"","html-keyboard-response","281","1117425","0.0-470.0","kjqy5ud9","1440","876","","","","","","","","","","","null","+","Fixation - short","","null","","","","","","","","","","","","","","","","",""
"","html-keyboard-response","282","1118808","0.0-471.0","kjqy5ud9","","","","","","","","","","","","","1382","xlv","Inducer trial","","j","","5","","","","true","","","","","j","1","","false","RIGHT","",""
"","html-keyboard-response","283","1119561","0.0-474.0","kjqy5ud9","1440","876","","","","","","","","","","","null","+","Fixation - short","","null","","","","","","","","","","","","","","","","",""
"","html-keyboard-response","284","1123240","0.0-475.0","kjqy5ud9","","","","","","","","","","","","","3678","If slu press RIGHT | If jft press LEFT","Inducer instructions",""," ","","6","","","","","","","","","","","","","","",""
"","html-keyboard-response","285","1123993","0.0-476.0","kjqy5ud9","1440","876","","","","","","","","","","","null","+","Fixation - short","","null","","","","","","","","","","","","","","","","",""
"","html-keyboard-response","286","1124609","0.0-477.0","kjqy5ud9","","","","","","","","","","","","","615","jft","Diagnostic trial","","f","","6","0","9","false","false","false","both pre & post","LEFT","LEFT","f","1","true","","","",""
"","html-keyboard-response","287","1125362","0.0-480.0","kjqy5ud9","1440","876","","","","","","","","","","","null","+","Fixation - short","","null","","","","","","","","","","","","","","","","",""
"","html-keyboard-response","288","1126383","0.0-481.0","kjqy5ud9","","","","","","","","","","","","","1020","jft","Diagnostic trial","","j","","6","1","9","false","false","true","both pre & post","LEFT","RIGHT","j","1","false","","","",""
"","html-keyboard-response","289","1127135","0.0-484.0","kjqy5ud9","1440","876","","","","","","","","","","","null","+","Fixation - short","","null","","","","","","","","","","","","","","","","",""
"","html-keyboard-response","290","1128632","0.0-485.0","kjqy5ud9","","","","","","","","","","","","","1496","slu","Diagnostic trial","","f","","6","2","9","false","false","false","both pre & post","RIGHT","LEFT","f","1","false","","","",""
"","html-keyboard-response","291","1129385","0.0-488.0","kjqy5ud9","1440","876","","","","","","","","","","","null","+","Fixation - short","","null","","","","","","","","","","","","","","","","",""
"","html-keyboard-response","292","1130214","0.0-489.0","kjqy5ud9","","","","","","","","","","","","","828","jft","Diagnostic trial","","f","","6","3","9","false","false","false","both pre & post","LEFT","LEFT","f","1","true","","","",""
"","html-keyboard-response","293","1130966","0.0-492.0","kjqy5ud9","1440","876","","","","","","","","","","","null","+","Fixation - short","","null","","","","","","","","","","","","","","","","",""
"","html-keyboard-response","294","1131538","0.0-493.0","kjqy5ud9","","","","","","","","","","","","","571","slu","Diagnostic trial","","f","","6","4","9","false","false","false","both pre & post","RIGHT","LEFT","f","1","false","","","",""
"","html-keyboard-response","295","1132291","0.0-496.0","kjqy5ud9","1440","876","","","","","","","","","","","null","+","Fixation - short","","null","","","","","","","","","","","","","","","","",""
"","html-keyboard-response","296","1132804","0.0-497.0","kjqy5ud9","","","","","","","","","","","","","513","slu","Diagnostic trial","","f","","6","5","9","false","false","false","both pre & post","RIGHT","LEFT","f","1","false","","","",""
"","html-keyboard-response","297","1133557","0.0-500.0","kjqy5ud9","1440","876","","","","","","","","","","","null","+","Fixation - short","","null","","","","","","","","","","","","","","","","",""
"","html-keyboard-response","298","1134015","0.0-501.0","kjqy5ud9","","","","","","","","","","","","","457","slu","Diagnostic trial","","f","","6","6","9","false","false","true","both pre & post","RIGHT","RIGHT","j","0","true","","","",""
"","call-function","299","1134016","0.0-503.0-0.0","kjqy5ud9","","","","","","","","","","","","","","","","","","","","","","","","","","","","","","","","","",""
"","html-keyboard-response","300","1134317","0.0-503.0-1.0","kjqy5ud9","1440","876","","","","","","","","","","","null","Wrong","Feedback","","null","","","","","","","","","","","","","","","","",""
"","call-function","301","1134318","0.0-503.0-2.0","kjqy5ud9","","","","","","","","","","","","","","","","","","","","","","","","","","","","","","","","","",""
"","html-keyboard-response","302","1135070","0.0-504.0","kjqy5ud9","1440","876","","","","","","","","","","","null","+","Fixation - short","","null","","","","","","","","","","","","","","","","",""
"","html-keyboard-response","303","1135677","0.0-505.0","kjqy5ud9","","","","","","","","","","","","","606","slu","Diagnostic trial","","j","","6","7","9","false","false","true","both pre & post","RIGHT","RIGHT","j","1","true","","","",""
"","html-keyboard-response","304","1136429","0.0-508.0","kjqy5ud9","1440","876","","","","","","","","","","","null","+","Fixation - short","","null","","","","","","","","","","","","","","","","",""
"","html-keyboard-response","305","1136872","0.0-509.0","kjqy5ud9","","","","","","","","","","","","","442","slu","Diagnostic trial","","j","","6","8","9","false","false","true","both pre & post","RIGHT","RIGHT","j","1","true","","","",""
"","html-keyboard-response","306","1137625","0.0-512.0","kjqy5ud9","1440","876","","","","","","","","","","","null","+","Fixation - short","","null","","","","","","","","","","","","","","","","",""
"","canvas-keyboard-response","307","1138877","0.0-513.0","kjqy5ud9","","","","","","","","","","","","","null","Cue","Cue","","null","","6","8","","","false","","","","","","","","","","",""
"","html-keyboard-response","308","1139629","0.0-514.0","kjqy5ud9","1440","876","","","","","","","","","","","null","+","Fixation - short","","null","","","","","","","","","","","","","","","","",""
"","html-keyboard-response","309","1140780","0.0-515.0","kjqy5ud9","","","","","","","","","","","","","1150","jft","Diagnostic trial","","j","","6","9","9","true","false","true","both pre & post","LEFT","RIGHT","j","1","false","","","",""
"","html-keyboard-response","310","1141533","0.0-518.0","kjqy5ud9","1440","876","","","","","","","","","","","null","+","Fixation - short","","null","","","","","","","","","","","","","","","","",""
"","html-keyboard-response","311","1142710","0.0-519.0","kjqy5ud9","","","","","","","","","","","","","1177","jft","Diagnostic trial","","f","","6","10","9","true","false","false","both pre & post","LEFT","LEFT","f","1","true","","","",""
"","html-keyboard-response","312","1143463","0.0-522.0","kjqy5ud9","1440","876","","","","","","","","","","","null","+","Fixation - short","","null","","","","","","","","","","","","","","","","",""
"","html-keyboard-response","313","1144716","0.0-523.0","kjqy5ud9","","","","","","","","","","","","","1252","slu","Inducer trial","","j","","6","","","","true","","","","","j","1","","false","RIGHT","",""
"","html-keyboard-response","314","1145468","0.0-526.0","kjqy5ud9","1440","876","","","","","","","","","","","null","+","Fixation - short","","null","","","","","","","","","","","","","","","","",""
"","html-keyboard-response","315","1150685","0.0-527.0","kjqy5ud9","","","","","","","","","","","","","5216","If wab press RIGHT | If vib press LEFT","Inducer instructions",""," ","","7","","","","","","","","","","","","","","",""
"","html-keyboard-response","316","1151437","0.0-528.0","kjqy5ud9","1440","876","","","","","","","","","","","null","+","Fixation - short","","null","","","","","","","","","","","","","","","","",""
"","html-keyboard-response","317","1152209","0.0-529.0","kjqy5ud9","","","","","","","","","","","","","771","vib","Diagnostic trial","","f","","7","0","4","false","false","false","both pre & post","LEFT","LEFT","f","1","true","","","",""
"","html-keyboard-response","318","1152961","0.0-532.0","kjqy5ud9","1440","876","","","","","","","","","","","null","+","Fixation - short","","null","","","","","","","","","","","","","","","","",""
"","html-keyboard-response","319","1153680","0.0-533.0","kjqy5ud9","","","","","","","","","","","","","718","wab","Diagnostic trial","","j","","7","1","4","false","false","true","both pre & post","RIGHT","RIGHT","j","1","true","","","",""
"","html-keyboard-response","320","1154432","0.0-536.0","kjqy5ud9","1440","876","","","","","","","","","","","null","+","Fixation - short","","null","","","","","","","","","","","","","","","","",""
"","html-keyboard-response","321","1155650","0.0-537.0","kjqy5ud9","","","","","","","","","","","","","1217","vib","Diagnostic trial","","j","","7","2","4","false","false","true","both pre & post","LEFT","RIGHT","j","1","false","","","",""
"","html-keyboard-response","322","1156402","0.0-540.0","kjqy5ud9","1440","876","","","","","","","","","","","null","+","Fixation - short","","null","","","","","","","","","","","","","","","","",""
"","html-keyboard-response","323","1157257","0.0-541.0","kjqy5ud9","","","","","","","","","","","","","854","wab","Diagnostic trial","","j","","7","3","4","false","false","true","both pre & post","RIGHT","RIGHT","j","1","true","","","",""
"","html-keyboard-response","324","1158010","0.0-544.0","kjqy5ud9","1440","876","","","","","","","","","","","null","+","Fixation - short","","null","","","","","","","","","","","","","","","","",""
"","canvas-keyboard-response","325","1159263","0.0-545.0","kjqy5ud9","","","","","","","","","","","","","null","Cue","Cue","","null","","7","3","","","false","","","","","","","","","","",""
"","html-keyboard-response","326","1160015","0.0-546.0","kjqy5ud9","1440","876","","","","","","","","","","","null","+","Fixation - short","","null","","","","","","","","","","","","","","","","",""
"","html-keyboard-response","327","1161211","0.0-547.0","kjqy5ud9","","","","","","","","","","","","","1194","vib","Diagnostic trial","","j","","7","4","4","true","false","true","both pre & post","LEFT","RIGHT","j","1","false","","","",""
"","html-keyboard-response","328","1161963","0.0-550.0","kjqy5ud9","1440","876","","","","","","","","","","","null","+","Fixation - short","","null","","","","","","","","","","","","","","","","",""
"","html-keyboard-response","329","1162612","0.0-551.0","kjqy5ud9","","","","","","","","","","","","","649","vib","Diagnostic trial","","j","","7","5","4","true","false","true","both pre & post","LEFT","RIGHT","j","1","false","","","",""
"","html-keyboard-response","330","1163364","0.0-554.0","kjqy5ud9","1440","876","","","","","","","","","","","null","+","Fixation - short","","null","","","","","","","","","","","","","","","","",""
"","html-keyboard-response","331","1163938","0.0-555.0","kjqy5ud9","","","","","","","","","","","","","573","wab","Diagnostic trial","","j","","7","6","4","true","false","true","both pre & post","RIGHT","RIGHT","j","1","true","","","",""
"","html-keyboard-response","332","1164691","0.0-558.0","kjqy5ud9","1440","876","","","","","","","","","","","null","+","Fixation - short","","null","","","","","","","","","","","","","","","","",""
"","html-keyboard-response","333","1165580","0.0-559.0","kjqy5ud9","","","","","","","","","","","","","888","vib","Diagnostic trial","","j","","7","7","4","true","false","true","both pre & post","LEFT","RIGHT","j","1","false","","","",""
"","html-keyboard-response","334","1166332","0.0-562.0","kjqy5ud9","1440","876","","","","","","","","","","","null","+","Fixation - short","","null","","","","","","","","","","","","","","","","",""
"","html-keyboard-response","335","1167353","0.0-563.0","kjqy5ud9","","","","","","","","","","","","","1019","vib","Inducer trial","","f","","7","","","","true","","","","","f","1","","false","LEFT","",""
"","html-keyboard-response","336","1168106","0.0-566.0","kjqy5ud9","1440","876","","","","","","","","","","","null","+","Fixation - short","","null","","","","","","","","","","","","","","","","",""
"","html-keyboard-response","337","1172326","0.0-567.0","kjqy5ud9","","","","","","","","","","","","","4219","If jcr press RIGHT | If dlg press LEFT","Inducer instructions",""," ","","8","","","","","","","","","","","","","","",""
"","html-keyboard-response","338","1173078","0.0-568.0","kjqy5ud9","1440","876","","","","","","","","","","","null","+","Fixation - short","","null","","","","","","","","","","","","","","","","",""
"","html-keyboard-response","339","1173874","0.0-569.0","kjqy5ud9","","","","","","","","","","","","","796","jcr","Diagnostic trial","","j","","8","0","4","false","false","true","both pre & post","RIGHT","RIGHT","j","1","true","","","",""
"","html-keyboard-response","340","1174627","0.0-572.0","kjqy5ud9","1440","876","","","","","","","","","","","null","+","Fixation - short","","null","","","","","","","","","","","","","","","","",""
"","html-keyboard-response","341","1175779","0.0-573.0","kjqy5ud9","","","","","","","","","","","","","1151","dlg","Diagnostic trial","","f","","8","1","4","false","false","false","both pre & post","LEFT","LEFT","f","1","true","","","",""
"","html-keyboard-response","342","1176530","0.0-576.0","kjqy5ud9","1440","876","","","","","","","","","","","null","+","Fixation - short","","null","","","","","","","","","","","","","","","","",""
"","html-keyboard-response","343","1177289","0.0-577.0","kjqy5ud9","","","","","","","","","","","","","758","dlg","Diagnostic trial","","f","","8","2","4","false","false","false","both pre & post","LEFT","LEFT","f","1","true","","","",""
"","html-keyboard-response","344","1178041","0.0-580.0","kjqy5ud9","1440","876","","","","","","","","","","","null","+","Fixation - short","","null","","","","","","","","","","","","","","","","",""
"","html-keyboard-response","345","1178570","0.0-581.0","kjqy5ud9","","","","","","","","","","","","","528","jcr","Diagnostic trial","","f","","8","3","4","false","false","false","both pre & post","RIGHT","LEFT","f","1","false","","","",""
"","html-keyboard-response","346","1179323","0.0-584.0","kjqy5ud9","1440","876","","","","","","","","","","","null","+","Fixation - short","","null","","","","","","","","","","","","","","","","",""
"","canvas-keyboard-response","347","1180575","0.0-585.0","kjqy5ud9","","","","","","","","","","","","","null","Cue","Cue","","null","","8","3","","","false","","","","","","","","","","",""
"","html-keyboard-response","348","1181328","0.0-586.0","kjqy5ud9","1440","876","","","","","","","","","","","null","+","Fixation - short","","null","","","","","","","","","","","","","","","","",""
"","html-keyboard-response","349","1182191","0.0-587.0","kjqy5ud9","","","","","","","","","","","","","862","jcr","Diagnostic trial","","f","","8","4","4","true","false","false","both pre & post","RIGHT","LEFT","f","1","false","","","",""
"","html-keyboard-response","350","1182942","0.0-590.0","kjqy5ud9","1440","876","","","","","","","","","","","null","+","Fixation - short","","null","","","","","","","","","","","","","","","","",""
"","html-keyboard-response","351","1183524","0.0-591.0","kjqy5ud9","","","","","","","","","","","","","582","jcr","Diagnostic trial","","f","","8","5","4","true","false","false","both pre & post","RIGHT","LEFT","f","1","false","","","",""
"","html-keyboard-response","352","1184276","0.0-594.0","kjqy5ud9","1440","876","","","","","","","","","","","null","+","Fixation - short","","null","","","","","","","","","","","","","","","","",""
"","html-keyboard-response","353","1184777","0.0-595.0","kjqy5ud9","","","","","","","","","","","","","499","jcr","Diagnostic trial","","f","","8","6","4","true","false","false","both pre & post","RIGHT","LEFT","f","1","false","","","",""
"","html-keyboard-response","354","1185529","0.0-598.0","kjqy5ud9","1440","876","","","","","","","","","","","null","+","Fixation - short","","null","","","","","","","","","","","","","","","","",""
"","html-keyboard-response","355","1186109","0.0-599.0","kjqy5ud9","","","","","","","","","","","","","579","dlg","Diagnostic trial","","j","","8","7","4","true","false","true","both pre & post","LEFT","RIGHT","j","1","false","","","",""
"","html-keyboard-response","356","1186862","0.0-602.0","kjqy5ud9","1440","876","","","","","","","","","","","null","+","Fixation - short","","null","","","","","","","","","","","","","","","","",""
"","html-keyboard-response","357","1187739","0.0-603.0","kjqy5ud9","","","","","","","","","","","","","876","jcr","Inducer trial","","f","","8","","","","true","","","","","j","0","","false","RIGHT","",""
"","call-function","358","1187740","0.0-605.0-0.0","kjqy5ud9","","","","","","","","","","","","","","","","","","","","","","","","","","","","","","","","","",""
"","html-keyboard-response","359","1188041","0.0-605.0-1.0","kjqy5ud9","1440","876","","","","","","","","","","","null","Wrong","Feedback","","null","","","","","","","","","","","","","","","","",""
"","call-function","360","1188042","0.0-605.0-2.0","kjqy5ud9","","","","","","","","","","","","","","","","","","","","","","","","","","","","","","","","","",""
"","html-keyboard-response","361","1188795","0.0-606.0","kjqy5ud9","1440","876","","","","","","","","","","","null","+","Fixation - short","","null","","","","","","","","","","","","","","","","",""
"","html-keyboard-response","362","1195964","0.0-607.0","kjqy5ud9","","","","","","","","","","","","","7169","If prg press RIGHT | If uen press LEFT","Inducer instructions",""," ","","9","","","","","","","","","","","","","","",""
"","html-keyboard-response","363","1196717","0.0-608.0","kjqy5ud9","1440","876","","","","","","","","","","","null","+","Fixation - short","","null","","","","","","","","","","","","","","","","",""
"","html-keyboard-response","364","1197431","0.0-609.0","kjqy5ud9","","","","","","","","","","","","","711","uen","Diagnostic trial","","f","","9","0","4","false","false","false","both pre & post","LEFT","LEFT","f","1","true","","","",""
"","html-keyboard-response","365","1198183","0.0-612.0","kjqy5ud9","1440","876","","","","","","","","","","","null","+","Fixation - short","","null","","","","","","","","","","","","","","","","",""
"","html-keyboard-response","366","1198936","0.0-613.0","kjqy5ud9","","","","","","","","","","","","","752","prg","Diagnostic trial","","f","","9","1","4","false","false","false","both pre & post","RIGHT","LEFT","f","1","false","","","",""
"","html-keyboard-response","367","1199688","0.0-616.0","kjqy5ud9","1440","876","","","","","","","","","","","null","+","Fixation - short","","null","","","","","","","","","","","","","","","","",""
"","html-keyboard-response","368","1200268","0.0-617.0","kjqy5ud9","","","","","","","","","","","","","578","uen","Diagnostic trial","","f","","9","2","4","false","false","false","both pre & post","LEFT","LEFT","f","1","true","","","",""
"","html-keyboard-response","369","1201019","0.0-620.0","kjqy5ud9","1440","876","","","","","","","","","","","null","+","Fixation - short","","null","","","","","","","","","","","","","","","","",""
"","html-keyboard-response","370","1201889","0.0-621.0","kjqy5ud9","","","","","","","","","","","","","870","uen","Diagnostic trial","","j","","9","3","4","false","false","true","both pre & post","LEFT","RIGHT","j","1","false","","","",""
"","html-keyboard-response","371","1202641","0.0-624.0","kjqy5ud9","1440","876","","","","","","","","","","","null","+","Fixation - short","","null","","","","","","","","","","","","","","","","",""
"","canvas-keyboard-response","372","1203893","0.0-625.0","kjqy5ud9","","","","","","","","","","","","","null","Cue","Cue","","null","","9","3","","","false","","","","","","","","","","",""
"","html-keyboard-response","373","1204646","0.0-626.0","kjqy5ud9","1440","876","","","","","","","","","","","null","+","Fixation - short","","null","","","","","","","","","","","","","","","","",""
"","html-keyboard-response","374","1205549","0.0-627.0","kjqy5ud9","","","","","","","","","","","","","902","uen","Diagnostic trial","","f","","9","4","4","true","false","false","both pre & post","LEFT","LEFT","f","1","true","","","",""
"","html-keyboard-response","375","1206302","0.0-630.0","kjqy5ud9","1440","876","","","","","","","","","","","null","+","Fixation - short","","null","","","","","","","","","","","","","","","","",""
"","html-keyboard-response","376","1207094","0.0-631.0","kjqy5ud9","","","","","","","","","","","","","792","uen","Diagnostic trial","","j","","9","5","4","true","false","true","both pre & post","LEFT","RIGHT","j","1","false","","","",""
"","html-keyboard-response","377","1207846","0.0-634.0","kjqy5ud9","1440","876","","","","","","","","","","","null","+","Fixation - short","","null","","","","","","","","","","","","","","","","",""
"","html-keyboard-response","378","1208537","0.0-635.0","kjqy5ud9","","","","","","","","","","","","","690","prg","Diagnostic trial","","j","","9","6","4","true","false","true","both pre & post","RIGHT","RIGHT","j","1","true","","","",""
"","html-keyboard-response","379","1209289","0.0-638.0","kjqy5ud9","1440","876","","","","","","","","","","","null","+","Fixation - short","","null","","","","","","","","","","","","","","","","",""
"","html-keyboard-response","380","1210948","0.0-639.0","kjqy5ud9","","","","","","","","","","","","","1658","prg","Inducer trial","","j","","9","","","","true","","","","","j","1","","false","RIGHT","",""
"","html-keyboard-response","381","1211700","0.0-642.0","kjqy5ud9","1440","876","","","","","","","","","","","null","+","Fixation - short","","null","","","","","","","","","","","","","","","","",""
"","html-keyboard-response","382","1215311","0.0-643.0","kjqy5ud9","","","","","","","","","","","","","3610","If frn press RIGHT | If eeu press LEFT","Inducer instructions",""," ","","10","","","","","","","","","","","","","","",""
"","html-keyboard-response","383","1216064","0.0-644.0","kjqy5ud9","1440","876","","","","","","","","","","","null","+","Fixation - short","","null","","","","","","","","","","","","","","","","",""
"","html-keyboard-response","384","1216950","0.0-645.0","kjqy5ud9","","","","","","","","","","","","","886","frn","Diagnostic trial","","j","","10","0","5","false","false","true","both pre & post","RIGHT","RIGHT","j","1","true","","","",""
"","html-keyboard-response","385","1217703","0.0-648.0","kjqy5ud9","1440","876","","","","","","","","","","","null","+","Fixation - short","","null","","","","","","","","","","","","","","","","",""
"","html-keyboard-response","386","1218671","0.0-649.0","kjqy5ud9","","","","","","","","","","","","","968","frn","Diagnostic trial","","j","","10","1","5","false","false","true","both pre & post","RIGHT","RIGHT","j","1","true","","","",""
"","html-keyboard-response","387","1219424","0.0-652.0","kjqy5ud9","1440","876","","","","","","","","","","","null","+","Fixation - short","","null","","","","","","","","","","","","","","","","",""
"","html-keyboard-response","388","1220243","0.0-653.0","kjqy5ud9","","","","","","","","","","","","","819","eeu","Diagnostic trial","","f","","10","2","5","false","false","false","both pre & post","LEFT","LEFT","f","1","true","","","",""
"","html-keyboard-response","389","1220996","0.0-656.0","kjqy5ud9","1440","876","","","","","","","","","","","null","+","Fixation - short","","null","","","","","","","","","","","","","","","","",""
"","html-keyboard-response","390","1221755","0.0-657.0","kjqy5ud9","","","","","","","","","","","","","758","frn","Diagnostic trial","","j","","10","3","5","false","false","true","both pre & post","RIGHT","RIGHT","j","1","true","","","",""
"","html-keyboard-response","391","1222508","0.0-660.0","kjqy5ud9","1440","876","","","","","","","","","","","null","+","Fixation - short","","null","","","","","","","","","","","","","","","","",""
"","html-keyboard-response","392","1223140","0.0-661.0","kjqy5ud9","","","","","","","","","","","","","631","eeu","Diagnostic trial","","j","","10","4","5","false","false","true","both pre & post","LEFT","RIGHT","j","1","false","","","",""
"","html-keyboard-response","393","1223893","0.0-664.0","kjqy5ud9","1440","876","","","","","","","","","","","null","+","Fixation - short","","null","","","","","","","","","","","","","","","","",""
"","canvas-keyboard-response","394","1225145","0.0-665.0","kjqy5ud9","","","","","","","","","","","","","null","Cue","Cue","","null","","10","4","","","false","","","","","","","","","","",""
"","html-keyboard-response","395","1225897","0.0-666.0","kjqy5ud9","1440","876","","","","","","","","","","","null","+","Fixation - short","","null","","","","","","","","","","","","","","","","",""
"","html-keyboard-response","396","1227312","0.0-667.0","kjqy5ud9","","","","","","","","","","","","","1414","eeu","Diagnostic trial","","j","","10","5","5","true","false","true","both pre & post","LEFT","RIGHT","j","1","false","","","",""
"","html-keyboard-response","397","1228064","0.0-670.0","kjqy5ud9","1440","876","","","","","","","","","","","null","+","Fixation - short","","null","","","","","","","","","","","","","","","","",""
"","html-keyboard-response","398","1228882","0.0-671.0","kjqy5ud9","","","","","","","","","","","","","816","eeu","Diagnostic trial","","f","","10","6","5","true","false","false","both pre & post","LEFT","LEFT","f","1","true","","","",""
"","html-keyboard-response","399","1229634","0.0-674.0","kjqy5ud9","1440","876","","","","","","","","","","","null","+","Fixation - short","","null","","","","","","","","","","","","","","","","",""
"","html-keyboard-response","400","1231036","0.0-675.0","kjqy5ud9","","","","","","","","","","","","","1401","eeu","Inducer trial","","f","","10","","","","true","","","","","f","1","","false","LEFT","",""
"","html-keyboard-response","401","1231789","0.0-678.0","kjqy5ud9","1440","876","","","","","","","","","","","null","+","Fixation - short","","null","","","","","","","","","","","","","","","","",""
"","html-keyboard-response","402","1233894","0.0-679.0","kjqy5ud9","","","","","","","","","","","","","2104","If cer press RIGHT | If yoy press LEFT","Inducer instructions",""," ","","11","","","","","","","","","","","","","","",""
"","html-keyboard-response","403","1234645","0.0-680.0","kjqy5ud9","1440","876","","","","","","","","","","","null","+","Fixation - short","","null","","","","","","","","","","","","","","","","",""
"","html-keyboard-response","404","1235952","0.0-681.0","kjqy5ud9","","","","","","","","","","","","","1306","cer","Diagnostic trial","","f","","11","0","7","false","false","false","both pre & post","RIGHT","LEFT","f","1","false","","","",""
"","html-keyboard-response","405","1236706","0.0-684.0","kjqy5ud9","1440","876","","","","","","","","","","","null","+","Fixation - short","","null","","","","","","","","","","","","","","","","",""
"","html-keyboard-response","406","1237430","0.0-685.0","kjqy5ud9","","","","","","","","","","","","","724","cer","Diagnostic trial","","f","","11","1","7","false","false","false","both pre & post","RIGHT","LEFT","f","1","false","","","",""
"","html-keyboard-response","407","1238183","0.0-688.0","kjqy5ud9","1440","876","","","","","","","","","","","null","+","Fixation - short","","null","","","","","","","","","","","","","","","","",""
"","html-keyboard-response","408","1238907","0.0-689.0","kjqy5ud9","","","","","","","","","","","","","663","yoy","Diagnostic trial","","f","","11","2","7","false","false","false","both pre & post","LEFT","LEFT","f","1","true","","","",""
"","html-keyboard-response","409","1239660","0.0-692.0","kjqy5ud9","1440","876","","","","","","","","","","","null","+","Fixation - short","","null","","","","","","","","","","","","","","","","",""
"","html-keyboard-response","410","1240834","0.0-693.0","kjqy5ud9","","","","","","","","","","","","","1173","cer","Diagnostic trial","","f","","11","3","7","false","false","false","both pre & post","RIGHT","LEFT","f","1","false","","","",""
"","html-keyboard-response","411","1241587","0.0-696.0","kjqy5ud9","1440","876","","","","","","","","","","","null","+","Fixation - short","","null","","","","","","","","","","","","","","","","",""
"","html-keyboard-response","412","1242506","0.0-697.0","kjqy5ud9","","","","","","","","","","","","","918","yoy","Diagnostic trial","","j","","11","4","7","false","false","true","both pre & post","LEFT","RIGHT","j","1","false","","","",""
"","html-keyboard-response","413","1243257","0.0-700.0","kjqy5ud9","1440","876","","","","","","","","","","","null","+","Fixation - short","","null","","","","","","","","","","","","","","","","",""
"","html-keyboard-response","414","1243805","0.0-701.0","kjqy5ud9","","","","","","","","","","","","","546","yoy","Diagnostic trial","","j","","11","5","7","false","false","true","both pre & post","LEFT","RIGHT","j","1","false","","","",""
"","html-keyboard-response","415","1244557","0.0-704.0","kjqy5ud9","1440","876","","","","","","","","","","","null","+","Fixation - short","","null","","","","","","","","","","","","","","","","",""
"","html-keyboard-response","416","1245015","0.0-705.0","kjqy5ud9","","","","","","","","","","","","","456","yoy","Diagnostic trial","","j","","11","6","7","false","false","false","both pre & post","LEFT","LEFT","f","0","true","","","",""
"","call-function","417","1245016","0.0-707.0-0.0","kjqy5ud9","","","","","","","","","","","","","","","","","","","","","","","","","","","","","","","","","",""
"","html-keyboard-response","418","1245319","0.0-707.0-1.0","kjqy5ud9","1440","876","","","","","","","","","","","null","Wrong","Feedback","","null","","","","","","","","","","","","","","","","",""
"","call-function","419","1245320","0.0-707.0-2.0","kjqy5ud9","","","","","","","","","","","","","","","","","","","","","","","","","","","","","","","","","",""
"","html-keyboard-response","420","1246071","0.0-708.0","kjqy5ud9","1440","876","","","","","","","","","","","null","+","Fixation - short","","null","","","","","","","","","","","","","","","","",""
"","canvas-keyboard-response","421","1247324","0.0-709.0","kjqy5ud9","","","","","","","","","","","","","null","Cue","Cue","","null","","11","6","","","false","","","","","","","","","","",""
"","html-keyboard-response","422","1248076","0.0-710.0","kjqy5ud9","1440","876","","","","","","","","","","","null","+","Fixation - short","","null","","","","","","","","","","","","","","","","",""
"","html-keyboard-response","423","1249006","0.0-711.0","kjqy5ud9","","","","","","","","","","","","","929","yoy","Diagnostic trial","","j","","11","7","7","true","false","true","both pre & post","LEFT","RIGHT","j","1","false","","","",""
"","html-keyboard-response","424","1249758","0.0-714.0","kjqy5ud9","1440","876","","","","","","","","","","","null","+","Fixation - short","","null","","","","","","","","","","","","","","","","",""
"","html-keyboard-response","425","1250503","0.0-715.0","kjqy5ud9","","","","","","","","","","","","","745","cer","Diagnostic trial","","j","","11","8","7","true","false","true","both pre & post","RIGHT","RIGHT","j","1","true","","","",""
"","html-keyboard-response","426","1251255","0.0-718.0","kjqy5ud9","1440","876","","","","","","","","","","","null","+","Fixation - short","","null","","","","","","","","","","","","","","","","",""
"","html-keyboard-response","427","1252511","0.0-719.0","kjqy5ud9","","","","","","","","","","","","","1255","yoy","Inducer trial","","f","","11","","","","true","","","","","f","1","","false","LEFT","",""
"","html-keyboard-response","428","1253264","0.0-722.0","kjqy5ud9","1440","876","","","","","","","","","","","null","+","Fixation - short","","null","","","","","","","","","","","","","","","","",""
"","html-keyboard-response","429","1255467","0.0-723.0","kjqy5ud9","","","","","","","","","","","","","2202","If bms press RIGHT | If ofa press LEFT","Inducer instructions",""," ","","12","","","","","","","","","","","","","","",""
"","html-keyboard-response","430","1256220","0.0-724.0","kjqy5ud9","1440","876","","","","","","","","","","","null","+","Fixation - short","","null","","","","","","","","","","","","","","","","",""
"","html-keyboard-response","431","1257261","0.0-725.0","kjqy5ud9","","","","","","","","","","","","","1040","bms","Diagnostic trial","","j","","12","0","7","false","false","true","both pre & post","RIGHT","RIGHT","j","1","true","","","",""
"","html-keyboard-response","432","1258015","0.0-728.0","kjqy5ud9","1440","876","","","","","","","","","","","null","+","Fixation - short","","null","","","","","","","","","","","","","","","","",""
"","html-keyboard-response","433","1258995","0.0-729.0","kjqy5ud9","","","","","","","","","","","","","979","bms","Diagnostic trial","","f","","12","1","7","false","false","false","both pre & post","RIGHT","LEFT","f","1","false","","","",""
"","html-keyboard-response","434","1259747","0.0-732.0","kjqy5ud9","1440","876","","","","","","","","","","","null","+","Fixation - short","","null","","","","","","","","","","","","","","","","",""
"","html-keyboard-response","435","1260900","0.0-733.0","kjqy5ud9","","","","","","","","","","","","","1152","ofa","Diagnostic trial","","j","","12","2","7","false","false","true","both pre & post","LEFT","RIGHT","j","1","false","","","",""
"","html-keyboard-response","436","1261653","0.0-736.0","kjqy5ud9","1440","876","","","","","","","","","","","null","+","Fixation - short","","null","","","","","","","","","","","","","","","","",""
"","html-keyboard-response","437","1262315","0.0-737.0","kjqy5ud9","","","","","","","","","","","","","661","bms","Diagnostic trial","","f","","12","3","7","false","false","false","both pre & post","RIGHT","LEFT","f","1","false","","","",""
"","html-keyboard-response","438","1263066","0.0-740.0","kjqy5ud9","1440","876","","","","","","","","","","","null","+","Fixation - short","","null","","","","","","","","","","","","","","","","",""
"","html-keyboard-response","439","1263839","0.0-741.0","kjqy5ud9","","","","","","","","","","","","","771","ofa","Diagnostic trial","","f","","12","4","7","false","false","false","both pre & post","LEFT","LEFT","f","1","true","","","",""
"","html-keyboard-response","440","1264591","0.0-744.0","kjqy5ud9","1440","876","","","","","","","","","","","null","+","Fixation - short","","null","","","","","","","","","","","","","","","","",""
"","html-keyboard-response","441","1265362","0.0-745.0","kjqy5ud9","","","","","","","","","","","","","770","bms","Diagnostic trial","","j","","12","5","7","false","false","false","both pre & post","RIGHT","LEFT","f","0","false","","","",""
"","call-function","442","1265362","0.0-747.0-0.0","kjqy5ud9","","","","","","","","","","","","","","","","","","","","","","","","","","","","","","","","","",""
"","html-keyboard-response","443","1265665","0.0-747.0-1.0","kjqy5ud9","1440","876","","","","","","","","","","","null","Wrong","Feedback","","null","","","","","","","","","","","","","","","","",""
"","call-function","444","1265666","0.0-747.0-2.0","kjqy5ud9","","","","","","","","","","","","","","","","","","","","","","","","","","","","","","","","","",""
"","html-keyboard-response","445","1266417","0.0-748.0","kjqy5ud9","1440","876","","","","","","","","","","","null","+","Fixation - short","","null","","","","","","","","","","","","","","","","",""
"","html-keyboard-response","446","1267204","0.0-749.0","kjqy5ud9","","","","","","","","","","","","","785","bms","Diagnostic trial","","j","","12","6","7","false","false","true","both pre & post","RIGHT","RIGHT","j","1","true","","","",""
"","html-keyboard-response","447","1267957","0.0-752.0","kjqy5ud9","1440","876","","","","","","","","","","","null","+","Fixation - short","","null","","","","","","","","","","","","","","","","",""
"","canvas-keyboard-response","448","1269210","0.0-753.0","kjqy5ud9","","","","","","","","","","","","","null","Cue","Cue","","null","","12","6","","","false","","","","","","","","","","",""
"","html-keyboard-response","449","1269963","0.0-754.0","kjqy5ud9","1440","876","","","","","","","","","","","null","+","Fixation - short","","null","","","","","","","","","","","","","","","","",""
"","html-keyboard-response","450","1271213","0.0-755.0","kjqy5ud9","","","","","","","","","","","","","1249","bms","Diagnostic trial","","f","","12","7","7","true","false","false","both pre & post","RIGHT","LEFT","f","1","false","","","",""
"","html-keyboard-response","451","1271965","0.0-758.0","kjqy5ud9","1440","876","","","","","","","","","","","null","+","Fixation - short","","null","","","","","","","","","","","","","","","","",""
"","html-keyboard-response","452","1272853","0.0-759.0","kjqy5ud9","","","","","","","","","","","","","886","ofa","Inducer trial","","f","","12","","","","true","","","","","f","1","","false","LEFT","",""
"","html-keyboard-response","453","1273604","0.0-762.0","kjqy5ud9","1440","876","","","","","","","","","","","null","+","Fixation - short","","null","","","","","","","","","","","","","","","","",""
"","html-keyboard-response","454","1275941","0.0-763.0","kjqy5ud9","","","","","","","","","","","","","2335","If faq press RIGHT | If mmo press LEFT","Inducer instructions",""," ","","13","","","","","","","","","","","","","","",""
"","html-keyboard-response","455","1276693","0.0-764.0","kjqy5ud9","1440","876","","","","","","","","","","","null","+","Fixation - short","","null","","","","","","","","","","","","","","","","",""
"","html-keyboard-response","456","1277783","0.0-765.0","kjqy5ud9","","","","","","","","","","","","","1089","faq","Diagnostic trial","","f","","13","0","4","false","false","false","both pre & post","RIGHT","LEFT","f","1","false","","","",""
"","html-keyboard-response","457","1278536","0.0-768.0","kjqy5ud9","1440","876","","","","","","","","","","","null","+","Fixation - short","","null","","","","","","","","","","","","","","","","",""
"","html-keyboard-response","458","1279201","0.0-769.0","kjqy5ud9","","","","","","","","","","","","","663","mmo","Diagnostic trial","","j","","13","1","4","false","false","true","both pre & post","LEFT","RIGHT","j","1","false","","","",""
