"value","trial_type","trial_index","time_elapsed","internal_node_id","id","width","height","webaudio","browser","browser_version","mobile","os","fullscreen","vsync_rate","webcam","microphone","view_history","rt","stimulus","trial_info","success","response","exp_parameters","inducer_run","diagnostic_run","cue_num","post_cue","inducer_trial","italic","forced_equal_run","correct_inducer_response_side","correct_diag_response_side","correct_response_key","correct_response","congruent","force_equal","correct_indu_response_side","accuracy","interactive"
"","call-function","0","2","0.0-0.0","tjlts31t","","","","","","","","","","","","","","","","","","","","","","","","","","","","","","","","","",""
"","browser-check","1","991","0.0-1.0","tjlts31t","1440","677","true","chrome","122.0.0","false","Mac OS","true","60.96","true","true","","","","","","","","","","","","","","","","","","","","","","",""
"","instructions","2","32939","0.0-2.0","tjlts31t","","","","","","","","","","","","[{""page_index"":0,""viewing_time"":13781},{""page_index"":1,""viewing_time"":15283},{""page_index"":2,""viewing_time"":2883}]","31947","The experiment and consent","The experiment and consent","","","","","","","","","","","","","","","","","","",""
"","fullscreen","3","37940","0.0-3.0","tjlts31t","","","","","","","","","","","","","3992","","Full screen","true","","","","","","","","","","","","","","","","","",""
"","instructions","4","59823","0.0-4.0","tjlts31t","","","","","","","","","","","","[{""page_index"":0,""viewing_time"":15836},{""page_index"":1,""viewing_time"":6044}]","21881","Instructions","Basic overview explanation","","","","","","","","","","","","","","","","","","",""
"","html-keyboard-response","5","67599","0.0-5.0","tjlts31t","","","","","","","","","","","","","6268","If italic press LEFT | If upright press RIGHT","Diagnostic instructions",""," ","{""debug"":false,""skip_instructions"":false,""skip_practice"":false,""save_local_data"":false,""studu_name"":""exp2"",""default_background_colour"":""#cccccc"",""wrong_response_colour"":""#d22d2d"",""instruction_delay"":20000,""trial_duration"":2000,""short_fixation"":750,""long_fixation"":1500,""wrong_response_delay"":300,""too_slow_delay"":300,""instruction_font_size"":""24px"",""general_font_size"":""42px"",""fixation_size"":""48px"",""allowed_responses"":[""f"",""j""],""cue_min_length"":0,""cue_max_length"":4,""tot_post_cue_len"":72,""cue_colour"":""red"",""cue_shape"":""Circle"",""cue_size"":70,""cue_duration"":1250,""avg_number_of_cues"":3,""inducer_colour"":""yellow"",""number_of_inducers"":24,""pre_cue_italic_forced_equal"":true,""post_cue_italic_forced_equal"":true,""prac_diagnostic_rounds"":16,""prac_inducer_rounds"":6,""prac_cue_rounds"":16,""prac_post_cue_num"":3}","","","","","","","","","","","","","","","",""
"","html-keyboard-response","6","68356","0.0-6.0","tjlts31t","1440","900","","","","","","","","","","","null","+","Fixation - short","","null","","","","","","","","","","","","","","","","",""
"","html-keyboard-response","7","69071","0.0-7.0","tjlts31t","","","","","","","","","","","","","714","jlm","Diagnostic practice","","j","","Diagnostic practice","0","-84","true","false","false","prac equal","RIGHT","RIGHT","j","1","true","","","",""
"","html-keyboard-response","8","69830","0.0-10.0","tjlts31t","1440","900","","","","","","","","","","","null","+","Fixation - short","","null","","","","","","","","","","","","","","","","",""
"","html-keyboard-response","9","70344","0.0-11.0","tjlts31t","","","","","","","","","","","","","513","jcr","Diagnostic practice","","f","","Diagnostic practice","1","-84","true","false","true","prac equal","LEFT","LEFT","f","1","true","","","",""
"","html-keyboard-response","10","71099","0.0-14.0","tjlts31t","1440","900","","","","","","","","","","","null","+","Fixation - short","","null","","","","","","","","","","","","","","","","",""
"","html-keyboard-response","11","71711","0.0-15.0","tjlts31t","","","","","","","","","","","","","611","jcr","Diagnostic practice","","j","","Diagnostic practice","2","-84","true","false","false","prac equal","LEFT","RIGHT","j","1","false","","","",""
"","html-keyboard-response","12","72463","0.0-18.0","tjlts31t","1440","900","","","","","","","","","","","null","+","Fixation - short","","null","","","","","","","","","","","","","","","","",""
"","html-keyboard-response","13","73042","0.0-19.0","tjlts31t","","","","","","","","","","","","","578","jcr","Diagnostic practice","","j","","Diagnostic practice","3","-84","true","false","false","prac equal","LEFT","RIGHT","j","1","false","","","",""
"","html-keyboard-response","14","73797","0.0-22.0","tjlts31t","1440","900","","","","","","","","","","","null","+","Fixation - short","","null","","","","","","","","","","","","","","","","",""
"","html-keyboard-response","15","74370","0.0-23.0","tjlts31t","","","","","","","","","","","","","572","jcr","Diagnostic practice","","j","","Diagnostic practice","4","-84","true","false","false","prac equal","LEFT","RIGHT","j","1","false","","","",""
"","html-keyboard-response","16","75125","0.0-26.0","tjlts31t","1440","900","","","","","","","","","","","null","+","Fixation - short","","null","","","","","","","","","","","","","","","","",""
"","html-keyboard-response","17","75631","0.0-27.0","tjlts31t","","","","","","","","","","","","","505","jcr","Diagnostic practice","","j","","Diagnostic practice","5","-84","true","false","true","prac equal","LEFT","LEFT","f","0","true","","","",""
"","call-function","18","75632","0.0-29.0-0.0","tjlts31t","","","","","","","","","","","","","","","","","","","","","","","","","","","","","","","","","",""
"","html-keyboard-response","19","75940","0.0-29.0-1.0","tjlts31t","1440","900","","","","","","","","","","","null","Wrong","Feedback","","null","","","","","","","","","","","","","","","","",""
"","call-function","20","75941","0.0-29.0-2.0","tjlts31t","","","","","","","","","","","","","","","","","","","","","","","","","","","","","","","","","",""
"","html-keyboard-response","21","76695","0.0-30.0","tjlts31t","1440","900","","","","","","","","","","","null","+","Fixation - short","","null","","","","","","","","","","","","","","","","",""
"","html-keyboard-response","22","77282","0.0-31.0","tjlts31t","","","","","","","","","","","","","586","jcr","Diagnostic practice","","f","","Diagnostic practice","6","-84","true","false","true","prac equal","LEFT","LEFT","f","1","true","","","",""
"","html-keyboard-response","23","78039","0.0-34.0","tjlts31t","1440","900","","","","","","","","","","","null","+","Fixation - short","","null","","","","","","","","","","","","","","","","",""
"","html-keyboard-response","24","78566","0.0-35.0","tjlts31t","","","","","","","","","","","","","525","jcr","Diagnostic practice","","j","","Diagnostic practice","7","-84","true","false","false","prac equal","LEFT","RIGHT","j","1","false","","","",""
"","html-keyboard-response","25","79323","0.0-38.0","tjlts31t","1440","900","","","","","","","","","","","null","+","Fixation - short","","null","","","","","","","","","","","","","","","","",""
"","html-keyboard-response","26","79852","0.0-39.0","tjlts31t","","","","","","","","","","","","","528","jlm","Diagnostic practice","","f","","Diagnostic practice","8","-84","true","false","true","prac equal","RIGHT","LEFT","f","1","false","","","",""
"","html-keyboard-response","27","80607","0.0-42.0","tjlts31t","1440","900","","","","","","","","","","","null","+","Fixation - short","","null","","","","","","","","","","","","","","","","",""
"","html-keyboard-response","28","81095","0.0-43.0","tjlts31t","","","","","","","","","","","","","486","jcr","Diagnostic practice","","j","","Diagnostic practice","9","-84","true","false","false","prac equal","LEFT","RIGHT","j","1","false","","","",""
"","html-keyboard-response","29","81849","0.0-46.0","tjlts31t","1440","900","","","","","","","","","","","null","+","Fixation - short","","null","","","","","","","","","","","","","","","","",""
"","html-keyboard-response","30","82309","0.0-47.0","tjlts31t","","","","","","","","","","","","","458","jcr","Diagnostic practice","","f","","Diagnostic practice","10","-84","true","false","true","prac equal","LEFT","LEFT","f","1","true","","","",""
"","html-keyboard-response","31","83066","0.0-50.0","tjlts31t","1440","900","","","","","","","","","","","null","+","Fixation - short","","null","","","","","","","","","","","","","","","","",""
"","html-keyboard-response","32","83628","0.0-51.0","tjlts31t","","","","","","","","","","","","","560","jlm","Diagnostic practice","","f","","Diagnostic practice","11","-84","true","false","true","prac equal","RIGHT","LEFT","f","1","false","","","",""
"","html-keyboard-response","33","84381","0.0-54.0","tjlts31t","1440","900","","","","","","","","","","","null","+","Fixation - short","","null","","","","","","","","","","","","","","","","",""
"","html-keyboard-response","34","84951","0.0-55.0","tjlts31t","","","","","","","","","","","","","569","jcr","Diagnostic practice","","j","","Diagnostic practice","12","-84","true","false","false","prac equal","LEFT","RIGHT","j","1","false","","","",""
"","html-keyboard-response","35","85705","0.0-58.0","tjlts31t","1440","900","","","","","","","","","","","null","+","Fixation - short","","null","","","","","","","","","","","","","","","","",""
"","html-keyboard-response","36","86349","0.0-59.0","tjlts31t","","","","","","","","","","","","","643","jlm","Diagnostic practice","","j","","Diagnostic practice","13","-84","true","false","false","prac equal","RIGHT","RIGHT","j","1","true","","","",""
"","html-keyboard-response","37","87103","0.0-62.0","tjlts31t","1440","900","","","","","","","","","","","null","+","Fixation - short","","null","","","","","","","","","","","","","","","","",""
"","html-keyboard-response","38","87554","0.0-63.0","tjlts31t","","","","","","","","","","","","","446","jlm","Diagnostic practice","","f","","Diagnostic practice","14","-84","true","false","true","prac equal","RIGHT","LEFT","f","1","false","","","",""
"","html-keyboard-response","39","88311","0.0-66.0","tjlts31t","1440","900","","","","","","","","","","","null","+","Fixation - short","","null","","","","","","","","","","","","","","","","",""
"","html-keyboard-response","40","88939","0.0-67.0","tjlts31t","","","","","","","","","","","","","627","jcr","Diagnostic practice","","f","","Diagnostic practice","15","-84","true","false","true","prac equal","LEFT","LEFT","f","1","true","","","",""
"","html-keyboard-response","41","89693","0.0-70.0","tjlts31t","1440","900","","","","","","","","","","","null","+","Fixation - short","","null","","","","","","","","","","","","","","","","",""
"","instructions","42","100253","0.0-71.0","tjlts31t","","","","","","","","","","","","[{""page_index"":0,""viewing_time"":10557}]","10557","Instructions","Final experiment explanation","","","","","","","","","","","","","","","","","","",""
"","html-keyboard-response","43","108316","0.0-72.0","tjlts31t","","","","","","","","","","","","","6551","If yrp press LEFT | If ufc press RIGHT","Inducer practice",""," ","","Practice","","","","","","","","","","","","","","",""
"","html-keyboard-response","44","109068","0.0-73.0","tjlts31t","1440","900","","","","","","","","","","","null","+","Fixation - short","","null","","","","","","","","","","","","","","","","",""
"","html-keyboard-response","45","110039","0.0-74.0","tjlts31t","","","","","","","","","","","","","969","ufc","Inducer practice","","j","","Practice","","","","true","","","","","j","1","","true","RIGHT","",""
"","html-keyboard-response","46","110793","0.0-77.0","tjlts31t","1440","900","","","","","","","","","","","null","+","Fixation - short","","null","","","","","","","","","","","","","","","","",""
"","html-keyboard-response","47","116815","0.0-78.0","tjlts31t","","","","","","","","","","","","","6019","If ofa press LEFT | If crf press RIGHT","Inducer practice",""," ","","Practice","","","","","","","","","","","","","","",""
"","html-keyboard-response","48","117572","0.0-79.0","tjlts31t","1440","900","","","","","","","","","","","null","+","Fixation - short","","null","","","","","","","","","","","","","","","","",""
"","html-keyboard-response","49","118105","0.0-80.0","tjlts31t","","","","","","","","","","","","","532","crf","Inducer practice","","j","","Practice","","","","true","","","","","j","1","","true","RIGHT","",""
"","html-keyboard-response","50","118858","0.0-83.0","tjlts31t","1440","900","","","","","","","","","","","null","+","Fixation - short","","null","","","","","","","","","","","","","","","","",""
"","html-keyboard-response","51","122135","0.0-84.0","tjlts31t","","","","","","","","","","","","","3276","If jil press LEFT | If dlg press RIGHT","Inducer practice",""," ","","Practice","","","","","","","","","","","","","","",""
"","html-keyboard-response","52","122888","0.0-85.0","tjlts31t","1440","900","","","","","","","","","","","null","+","Fixation - short","","null","","","","","","","","","","","","","","","","",""
"","html-keyboard-response","53","123574","0.0-86.0","tjlts31t","","","","","","","","","","","","","685","jil","Inducer practice","","f","","Practice","","","","true","","","","","f","1","","true","LEFT","",""
"","html-keyboard-response","54","124331","0.0-89.0","tjlts31t","1440","900","","","","","","","","","","","null","+","Fixation - short","","null","","","","","","","","","","","","","","","","",""
"","html-keyboard-response","55","129677","0.0-90.0","tjlts31t","","","","","","","","","","","","","5345","If vle press LEFT | If uen press RIGHT","Inducer practice",""," ","","Practice","","","","","","","","","","","","","","",""
"","html-keyboard-response","56","130432","0.0-91.0","tjlts31t","1440","900","","","","","","","","","","","null","+","Fixation - short","","null","","","","","","","","","","","","","","","","",""
"","html-keyboard-response","57","130950","0.0-92.0","tjlts31t","","","","","","","","","","","","","517","uen","Inducer practice","","j","","Practice","","","","true","","","","","j","1","","true","RIGHT","",""
"","html-keyboard-response","58","131703","0.0-95.0","tjlts31t","1440","900","","","","","","","","","","","null","+","Fixation - short","","null","","","","","","","","","","","","","","","","",""
"","html-keyboard-response","59","135190","0.0-96.0","tjlts31t","","","","","","","","","","","","","3485","If ori press LEFT | If kue press RIGHT","Inducer practice",""," ","","Practice","","","","","","","","","","","","","","",""
"","html-keyboard-response","60","135946","0.0-97.0","tjlts31t","1440","900","","","","","","","","","","","null","+","Fixation - short","","null","","","","","","","","","","","","","","","","",""
"","html-keyboard-response","61","136447","0.0-98.0","tjlts31t","","","","","","","","","","","","","499","ori","Inducer practice","","f","","Practice","","","","true","","","","","f","1","","true","LEFT","",""
"","html-keyboard-response","62","137199","0.0-101.0","tjlts31t","1440","900","","","","","","","","","","","null","+","Fixation - short","","null","","","","","","","","","","","","","","","","",""
"","html-keyboard-response","63","139839","0.0-102.0","tjlts31t","","","","","","","","","","","","","2638","If vbt press LEFT | If dij press RIGHT","Inducer practice",""," ","","Practice","","","","","","","","","","","","","","",""
"","html-keyboard-response","64","140592","0.0-103.0","tjlts31t","1440","900","","","","","","","","","","","null","+","Fixation - short","","null","","","","","","","","","","","","","","","","",""
"","html-keyboard-response","65","141188","0.0-104.0","tjlts31t","","","","","","","","","","","","","595","vbt","Inducer practice","","f","","Practice","","","","true","","","","","f","1","","true","LEFT","",""
"","html-keyboard-response","66","141945","0.0-107.0","tjlts31t","1440","900","","","","","","","","","","","null","+","Fixation - short","","null","","","","","","","","","","","","","","","","",""
"","instructions","67","161456","0.0-108.0","tjlts31t","","","","","","","","","","","","[{""page_index"":0,""viewing_time"":19506}]","19507","Instructions","Final experiment explanation","","","","","","","","","","","","","","","","","","",""
"","html-keyboard-response","68","165315","0.0-109.0","tjlts31t","","","","","","","","","","","","","2349","If ume press LEFT | If drk press RIGHT","Cue practice",""," ","","Practice","","","","","","","","","","","","","","",""
"","html-keyboard-response","69","166068","0.0-110.0","tjlts31t","1440","900","","","","","","","","","","","null","+","Fixation - short","","null","","","","","","","","","","","","","","","","",""
"","html-keyboard-response","70","167010","0.0-111.0","tjlts31t","","","","","","","","","","","","","941","drk","Cue practice","","f","","Practice","0","13","false","false","false","both pre & post","RIGHT","RIGHT","j","0","true","","","",""
"","call-function","71","167011","0.0-113.0-0.0","tjlts31t","","","","","","","","","","","","","","","","","","","","","","","","","","","","","","","","","",""
"","html-keyboard-response","72","167315","0.0-113.0-1.0","tjlts31t","1440","900","","","","","","","","","","","null","Wrong","Feedback","","null","","","","","","","","","","","","","","","","",""
"","call-function","73","167316","0.0-113.0-2.0","tjlts31t","","","","","","","","","","","","","","","","","","","","","","","","","","","","","","","","","",""
"","html-keyboard-response","74","168068","0.0-114.0","tjlts31t","1440","900","","","","","","","","","","","null","+","Fixation - short","","null","","","","","","","","","","","","","","","","",""
"","html-keyboard-response","75","169767","0.0-115.0","tjlts31t","","","","","","","","","","","","","1688","ume","Cue practice","","j","","Practice","1","13","false","false","true","both pre & post","LEFT","LEFT","f","0","true","","","",""
"","call-function","76","169768","0.0-117.0-0.0","tjlts31t","","","","","","","","","","","","","","","","","","","","","","","","","","","","","","","","","",""
"","html-keyboard-response","77","170070","0.0-117.0-1.0","tjlts31t","1440","900","","","","","","","","","","","null","Wrong","Feedback","","null","","","","","","","","","","","","","","","","",""
"","call-function","78","170071","0.0-117.0-2.0","tjlts31t","","","","","","","","","","","","","","","","","","","","","","","","","","","","","","","","","",""
"","html-keyboard-response","79","170824","0.0-118.0","tjlts31t","1440","900","","","","","","","","","","","null","+","Fixation - short","","null","","","","","","","","","","","","","","","","",""
"","html-keyboard-response","80","171771","0.0-119.0","tjlts31t","","","","","","","","","","","","","946","drk","Cue practice","","j","","Practice","2","13","false","false","false","both pre & post","RIGHT","RIGHT","j","1","true","","","",""
"","html-keyboard-response","81","172525","0.0-122.0","tjlts31t","1440","900","","","","","","","","","","","null","+","Fixation - short","","null","","","","","","","","","","","","","","","","",""
"","html-keyboard-response","82","173838","0.0-123.0","tjlts31t","","","","","","","","","","","","","1311","ume","Cue practice","","f","","Practice","3","13","false","false","false","both pre & post","LEFT","RIGHT","j","0","false","","","",""
"","call-function","83","173838","0.0-125.0-0.0","tjlts31t","","","","","","","","","","","","","","","","","","","","","","","","","","","","","","","","","",""
"","html-keyboard-response","84","174141","0.0-125.0-1.0","tjlts31t","1440","900","","","","","","","","","","","null","Wrong","Feedback","","null","","","","","","","","","","","","","","","","",""
"","call-function","85","174142","0.0-125.0-2.0","tjlts31t","","","","","","","","","","","","","","","","","","","","","","","","","","","","","","","","","",""
"","html-keyboard-response","86","174899","0.0-126.0","tjlts31t","1440","900","","","","","","","","","","","null","+","Fixation - short","","null","","","","","","","","","","","","","","","","",""
"","html-keyboard-response","87","175584","0.0-127.0","tjlts31t","","","","","","","","","","","","","684","drk","Cue practice","","j","","Practice","4","13","false","false","false","both pre & post","RIGHT","RIGHT","j","1","true","","","",""
"","html-keyboard-response","88","176337","0.0-130.0","tjlts31t","1440","900","","","","","","","","","","","null","+","Fixation - short","","null","","","","","","","","","","","","","","","","",""
"","html-keyboard-response","89","177194","0.0-131.0","tjlts31t","","","","","","","","","","","","","856","drk","Cue practice","","f","","Practice","5","13","false","false","true","both pre & post","RIGHT","LEFT","f","1","false","","","",""
"","html-keyboard-response","90","177950","0.0-134.0","tjlts31t","1440","900","","","","","","","","","","","null","+","Fixation - short","","null","","","","","","","","","","","","","","","","",""
"","html-keyboard-response","91","178589","0.0-135.0","tjlts31t","","","","","","","","","","","","","638","drk","Cue practice","","f","","Practice","6","13","false","false","true","both pre & post","RIGHT","LEFT","f","1","false","","","",""
"","html-keyboard-response","92","179346","0.0-138.0","tjlts31t","1440","900","","","","","","","","","","","null","+","Fixation - short","","null","","","","","","","","","","","","","","","","",""
"","html-keyboard-response","93","180191","0.0-139.0","tjlts31t","","","","","","","","","","","","","843","ume","Cue practice","","f","","Practice","7","13","false","false","true","both pre & post","LEFT","LEFT","f","1","true","","","",""
"","html-keyboard-response","94","180947","0.0-142.0","tjlts31t","1440","900","","","","","","","","","","","null","+","Fixation - short","","null","","","","","","","","","","","","","","","","",""
"","html-keyboard-response","95","181464","0.0-143.0","tjlts31t","","","","","","","","","","","","","516","drk","Cue practice","","j","","Practice","8","13","false","false","false","both pre & post","RIGHT","RIGHT","j","1","true","","","",""
"","html-keyboard-response","96","182220","0.0-146.0","tjlts31t","1440","900","","","","","","","","","","","null","+","Fixation - short","","null","","","","","","","","","","","","","","","","",""
"","html-keyboard-response","97","182821","0.0-147.0","tjlts31t","","","","","","","","","","","","","599","drk","Cue practice","","f","","Practice","9","13","false","false","true","both pre & post","RIGHT","LEFT","f","1","false","","","",""
"","html-keyboard-response","98","183578","0.0-150.0","tjlts31t","1440","900","","","","","","","","","","","null","+","Fixation - short","","null","","","","","","","","","","","","","","","","",""
"","html-keyboard-response","99","184221","0.0-151.0","tjlts31t","","","","","","","","","","","","","642","drk","Cue practice","","j","","Practice","10","13","false","false","false","both pre & post","RIGHT","RIGHT","j","1","true","","","",""
"","html-keyboard-response","100","184974","0.0-154.0","tjlts31t","1440","900","","","","","","","","","","","null","+","Fixation - short","","null","","","","","","","","","","","","","","","","",""
"","html-keyboard-response","101","185572","0.0-155.0","tjlts31t","","","","","","","","","","","","","597","drk","Cue practice","","f","","Practice","11","13","false","false","true","both pre & post","RIGHT","LEFT","f","1","false","","","",""
"","html-keyboard-response","102","186329","0.0-158.0","tjlts31t","1440","900","","","","","","","","","","","null","+","Fixation - short","","null","","","","","","","","","","","","","","","","",""
"","html-keyboard-response","103","186927","0.0-159.0","tjlts31t","","","","","","","","","","","","","589","drk","Cue practice","","f","","Practice","12","13","false","false","true","both pre & post","RIGHT","LEFT","f","1","false","","","",""
"","html-keyboard-response","104","187684","0.0-162.0","tjlts31t","1440","900","","","","","","","","","","","null","+","Fixation - short","","null","","","","","","","","","","","","","","","","",""
"","canvas-keyboard-response","105","188951","0.0-163.0","tjlts31t","","","","","","","","","","","","","null","Cue","Cue","","null","","Practice","12","","","false","","","","","","","","","","",""
"","html-keyboard-response","106","189705","0.0-164.0","tjlts31t","1440","900","","","","","","","","","","","null","+","Fixation - short","","null","","","","","","","","","","","","","","","","",""
"","html-keyboard-response","107","190456","0.0-165.0","tjlts31t","","","","","","","","","","","","","749","drk","Cue practice","","f","","Practice","13","13","true","false","true","both pre & post","RIGHT","LEFT","f","1","false","","","",""
"","html-keyboard-response","108","191213","0.0-168.0","tjlts31t","1440","900","","","","","","","","","","","null","+","Fixation - short","","null","","","","","","","","","","","","","","","","",""
"","html-keyboard-response","109","191809","0.0-169.0","tjlts31t","","","","","","","","","","","","","594","drk","Cue practice","","j","","Practice","14","13","true","false","false","both pre & post","RIGHT","RIGHT","j","1","true","","","",""
"","html-keyboard-response","110","192566","0.0-172.0","tjlts31t","1440","900","","","","","","","","","","","null","+","Fixation - short","","null","","","","","","","","","","","","","","","","",""
"","html-keyboard-response","111","193180","0.0-173.0","tjlts31t","","","","","","","","","","","","","612","drk","Cue practice","","f","","Practice","15","13","true","false","true","both pre & post","RIGHT","LEFT","f","1","false","","","",""
"","html-keyboard-response","112","193937","0.0-176.0","tjlts31t","1440","900","","","","","","","","","","","null","+","Fixation - short","","null","","","","","","","","","","","","","","","","",""
"","html-keyboard-response","113","194980","0.0-177.0","tjlts31t","","","","","","","","","","","","","1042","ume","Inducer practice","","j","","Practice","","","","true","","","","","f","0","","false","LEFT","",""
"","call-function","114","194981","0.0-179.0-0.0","tjlts31t","","","","","","","","","","","","","","","","","","","","","","","","","","","","","","","","","",""
"","html-keyboard-response","115","195285","0.0-179.0-1.0","tjlts31t","1440","900","","","","","","","","","","","null","Wrong","Feedback","","null","","","","","","","","","","","","","","","","",""
"","call-function","116","195286","0.0-179.0-2.0","tjlts31t","","","","","","","","","","","","","","","","","","","","","","","","","","","","","","","","","",""
"","html-keyboard-response","117","196040","0.0-180.0","tjlts31t","1440","900","","","","","","","","","","","null","+","Fixation - short","","null","","","","","","","","","","","","","","","","",""
"","instructions","118","206321","0.0-181.0","tjlts31t","","","","","","","","","","","","[{""page_index"":0,""viewing_time"":10278}]","10278","End practice","End of practice","","","","","","","","","","","","","","","","","","",""
"","html-keyboard-response","119","209340","0.0-182.0","tjlts31t","1440","900","","","","","","","","","","","null","+","Fixation - long","","null","","","","","","","","","","","","","","","","",""
"","html-keyboard-response","120","213820","0.0-183.0","tjlts31t","","","","","","","","","","","","","4478","If ccx press LEFT | If pcm press RIGHT","Inducer instructions",""," ","","0","","","","","","","","","","","","","","",""
"","html-keyboard-response","121","214577","0.0-184.0","tjlts31t","1440","900","","","","","","","","","","","null","+","Fixation - short","","null","","","","","","","","","","","","","","","","",""
"","html-keyboard-response","122","215631","0.0-185.0","tjlts31t","","","","","","","","","","","","","1053","ccx","Diagnostic trial","","f","","0","0","4","false","false","true","both pre & post","LEFT","LEFT","f","1","true","","","",""
"","html-keyboard-response","123","216383","0.0-188.0","tjlts31t","1440","900","","","","","","","","","","","null","+","Fixation - short","","null","","","","","","","","","","","","","","","","",""
"","html-keyboard-response","124","217242","0.0-189.0","tjlts31t","","","","","","","","","","","","","858","pcm","Diagnostic trial","","f","","0","1","4","false","false","true","both pre & post","RIGHT","LEFT","f","1","false","","","",""
"","html-keyboard-response","125","217996","0.0-192.0","tjlts31t","1440","900","","","","","","","","","","","null","+","Fixation - short","","null","","","","","","","","","","","","","","","","",""
"","html-keyboard-response","126","218602","0.0-193.0","tjlts31t","","","","","","","","","","","","","604","ccx","Diagnostic trial","","f","","0","2","4","false","false","true","both pre & post","LEFT","LEFT","f","1","true","","","",""
"","html-keyboard-response","127","219357","0.0-196.0","tjlts31t","1440","900","","","","","","","","","","","null","+","Fixation - short","","null","","","","","","","","","","","","","","","","",""
"","html-keyboard-response","128","219898","0.0-197.0","tjlts31t","","","","","","","","","","","","","540","pcm","Diagnostic trial","","f","","0","3","4","false","false","true","both pre & post","RIGHT","LEFT","f","1","false","","","",""
"","html-keyboard-response","129","220653","0.0-200.0","tjlts31t","1440","900","","","","","","","","","","","null","+","Fixation - short","","null","","","","","","","","","","","","","","","","",""
"","canvas-keyboard-response","130","221907","0.0-201.0","tjlts31t","","","","","","","","","","","","","null","Cue","Cue","","null","","0","3","","","false","","","","","","","","","","",""
"","html-keyboard-response","131","222664","0.0-202.0","tjlts31t","1440","900","","","","","","","","","","","null","+","Fixation - short","","null","","","","","","","","","","","","","","","","",""
"","html-keyboard-response","132","224668","0.0-203.0","tjlts31t","","","","","","","","","","","","","null","pcm","Diagnostic trial","","null","","0","4","4","true","false","false","both pre & post","RIGHT","RIGHT","j","NaN","true","","","",""
"","call-function","133","224670","0.0-204.0-0.0","tjlts31t","","","","","","","","","","","","","","","","","","","","","","","","","","","","","","","","","",""
"","html-keyboard-response","134","224973","0.0-204.0-1.0","tjlts31t","1440","900","","","","","","","","","","","null","Slow","Feedback","","null","","","","","","","","","","","","","","","","",""
"","call-function","135","224975","0.0-204.0-2.0","tjlts31t","","","","","","","","","","","","","","","","","","","","","","","","","","","","","","","","","",""
"","html-keyboard-response","136","225731","0.0-206.0","tjlts31t","1440","900","","","","","","","","","","","null","+","Fixation - short","","null","","","","","","","","","","","","","","","","",""
"","html-keyboard-response","137","226456","0.0-207.0","tjlts31t","","","","","","","","","","","","","724","pcm","Diagnostic trial","","f","","0","5","4","true","false","true","both pre & post","RIGHT","LEFT","f","1","false","","","",""
"","html-keyboard-response","138","227213","0.0-210.0","tjlts31t","1440","900","","","","","","","","","","","null","+","Fixation - short","","null","","","","","","","","","","","","","","","","",""
"","html-keyboard-response","139","229225","0.0-211.0","tjlts31t","","","","","","","","","","","","","null","ccx","Diagnostic trial","","null","","0","6","4","true","false","false","both pre & post","LEFT","RIGHT","j","NaN","false","","","",""
"","call-function","140","229226","0.0-212.0-0.0","tjlts31t","","","","","","","","","","","","","","","","","","","","","","","","","","","","","","","","","",""
"","html-keyboard-response","141","229532","0.0-212.0-1.0","tjlts31t","1440","900","","","","","","","","","","","null","Slow","Feedback","","null","","","","","","","","","","","","","","","","",""
"","call-function","142","229533","0.0-212.0-2.0","tjlts31t","","","","","","","","","","","","","","","","","","","","","","","","","","","","","","","","","",""
"","html-keyboard-response","143","230284","0.0-214.0","tjlts31t","1440","900","","","","","","","","","","","null","+","Fixation - short","","null","","","","","","","","","","","","","","","","",""
"","html-keyboard-response","144","231778","0.0-215.0","tjlts31t","","","","","","","","","","","","","1493","ccx","Diagnostic trial","","f","","0","7","4","true","false","true","both pre & post","LEFT","LEFT","f","1","true","","","",""
"","html-keyboard-response","145","232534","0.0-218.0","tjlts31t","1440","900","","","","","","","","","","","null","+","Fixation - short","","null","","","","","","","","","","","","","","","","",""
"","html-keyboard-response","146","234125","0.0-219.0","tjlts31t","","","","","","","","","","","","","1590","ccx","Inducer trial","","f","","0","","","","true","","","","","f","1","","false","LEFT","",""
"","html-keyboard-response","147","234877","0.0-222.0","tjlts31t","1440","900","","","","","","","","","","","null","+","Fixation - short","","null","","","","","","","","","","","","","","","","",""
"","html-keyboard-response","148","240488","0.0-223.0","tjlts31t","","","","","","","","","","","","","5609","If cmj press LEFT | If glp press RIGHT","Inducer instructions",""," ","","1","","","","","","","","","","","","","","",""
"","html-keyboard-response","149","241244","0.0-224.0","tjlts31t","1440","900","","","","","","","","","","","null","+","Fixation - short","","null","","","","","","","","","","","","","","","","",""
"","html-keyboard-response","150","242169","0.0-225.0","tjlts31t","","","","","","","","","","","","","924","glp","Diagnostic trial","","j","","1","0","8","false","false","false","both pre & post","RIGHT","RIGHT","j","1","true","","","",""
"","html-keyboard-response","151","242925","0.0-228.0","tjlts31t","1440","900","","","","","","","","","","","null","+","Fixation - short","","null","","","","","","","","","","","","","","","","",""
"","html-keyboard-response","152","243653","0.0-229.0","tjlts31t","","","","","","","","","","","","","726","cmj","Diagnostic trial","","f","","1","1","8","false","false","true","both pre & post","LEFT","LEFT","f","1","true","","","",""
"","html-keyboard-response","153","244407","0.0-232.0","tjlts31t","1440","900","","","","","","","","","","","null","+","Fixation - short","","null","","","","","","","","","","","","","","","","",""
"","html-keyboard-response","154","245073","0.0-233.0","tjlts31t","","","","","","","","","","","","","665","cmj","Diagnostic trial","","j","","1","2","8","false","false","false","both pre & post","LEFT","RIGHT","j","1","false","","","",""
"","html-keyboard-response","155","245830","0.0-236.0","tjlts31t","1440","900","","","","","","","","","","","null","+","Fixation - short","","null","","","","","","","","","","","","","","","","",""
"","html-keyboard-response","156","246659","0.0-237.0","tjlts31t","","","","","","","","","","","","","829","glp","Diagnostic trial","","j","","1","3","8","false","false","false","both pre & post","RIGHT","RIGHT","j","1","true","","","",""
"","html-keyboard-response","157","247417","0.0-240.0","tjlts31t","1440","900","","","","","","","","","","","null","+","Fixation - short","","null","","","","","","","","","","","","","","","","",""
"","html-keyboard-response","158","248005","0.0-241.0","tjlts31t","","","","","","","","","","","","","587","glp","Diagnostic trial","","f","","1","4","8","false","false","true","both pre & post","RIGHT","LEFT","f","1","false","","","",""
"","html-keyboard-response","159","248759","0.0-244.0","tjlts31t","1440","900","","","","","","","","","","","null","+","Fixation - short","","null","","","","","","","","","","","","","","","","",""
"","html-keyboard-response","160","249383","0.0-245.0","tjlts31t","","","","","","","","","","","","","623","glp","Diagnostic trial","","f","","1","5","8","false","false","true","both pre & post","RIGHT","LEFT","f","1","false","","","",""
"","html-keyboard-response","161","250139","0.0-248.0","tjlts31t","1440","900","","","","","","","","","","","null","+","Fixation - short","","null","","","","","","","","","","","","","","","","",""
"","html-keyboard-response","162","250754","0.0-249.0","tjlts31t","","","","","","","","","","","","","613","glp","Diagnostic trial","","f","","1","6","8","false","false","true","both pre & post","RIGHT","LEFT","f","1","false","","","",""
"","html-keyboard-response","163","251511","0.0-252.0","tjlts31t","1440","900","","","","","","","","","","","null","+","Fixation - short","","null","","","","","","","","","","","","","","","","",""
"","html-keyboard-response","164","252104","0.0-253.0","tjlts31t","","","","","","","","","","","","","591","glp","Diagnostic trial","","j","","1","7","8","false","false","false","both pre & post","RIGHT","RIGHT","j","1","true","","","",""
"","html-keyboard-response","165","252861","0.0-256.0","tjlts31t","1440","900","","","","","","","","","","","null","+","Fixation - short","","null","","","","","","","","","","","","","","","","",""
"","canvas-keyboard-response","166","254118","0.0-257.0","tjlts31t","","","","","","","","","","","","","null","Cue","Cue","","null","","1","7","","","false","","","","","","","","","","",""
"","html-keyboard-response","167","254870","0.0-258.0","tjlts31t","1440","900","","","","","","","","","","","null","+","Fixation - short","","null","","","","","","","","","","","","","","","","",""
"","html-keyboard-response","168","255815","0.0-259.0","tjlts31t","","","","","","","","","","","","","943","cmj","Diagnostic trial","","j","","1","8","8","true","false","false","both pre & post","LEFT","RIGHT","j","1","false","","","",""
"","html-keyboard-response","169","256572","0.0-262.0","tjlts31t","1440","900","","","","","","","","","","","null","+","Fixation - short","","null","","","","","","","","","","","","","","","","",""
"","html-keyboard-response","170","257375","0.0-263.0","tjlts31t","","","","","","","","","","","","","802","glp","Diagnostic trial","","f","","1","9","8","true","false","true","both pre & post","RIGHT","LEFT","f","1","false","","","",""
"","html-keyboard-response","171","258132","0.0-266.0","tjlts31t","1440","900","","","","","","","","","","","null","+","Fixation - short","","null","","","","","","","","","","","","","","","","",""
"","html-keyboard-response","172","258774","0.0-267.0","tjlts31t","","","","","","","","","","","","","641","cmj","Diagnostic trial","","j","","1","10","8","true","false","false","both pre & post","LEFT","RIGHT","j","1","false","","","",""
"","html-keyboard-response","173","259531","0.0-270.0","tjlts31t","1440","900","","","","","","","","","","","null","+","Fixation - short","","null","","","","","","","","","","","","","","","","",""
"","html-keyboard-response","174","260251","0.0-271.0","tjlts31t","","","","","","","","","","","","","718","glp","Inducer trial","","j","","1","","","","true","","","","","j","1","","false","RIGHT","",""
"","html-keyboard-response","175","261007","0.0-274.0","tjlts31t","1440","900","","","","","","","","","","","null","+","Fixation - short","","null","","","","","","","","","","","","","","","","",""
"","html-keyboard-response","176","265587","0.0-275.0","tjlts31t","","","","","","","","","","","","","4579","If bms press LEFT | If rrd press RIGHT","Inducer instructions",""," ","","2","","","","","","","","","","","","","","",""
"","html-keyboard-response","177","266342","0.0-276.0","tjlts31t","1440","900","","","","","","","","","","","null","+","Fixation - short","","null","","","","","","","","","","","","","","","","",""
"","html-keyboard-response","178","267382","0.0-277.0","tjlts31t","","","","","","","","","","","","","1038","bms","Diagnostic trial","","j","","2","0","11","false","false","false","both pre & post","LEFT","RIGHT","j","1","false","","","",""
"","html-keyboard-response","179","268134","0.0-280.0","tjlts31t","1440","900","","","","","","","","","","","null","+","Fixation - short","","null","","","","","","","","","","","","","","","","",""
"","html-keyboard-response","180","268723","0.0-281.0","tjlts31t","","","","","","","","","","","","","588","bms","Diagnostic trial","","j","","2","1","11","false","false","false","both pre & post","LEFT","RIGHT","j","1","false","","","",""
"","html-keyboard-response","181","269476","0.0-284.0","tjlts31t","1440","900","","","","","","","","","","","null","+","Fixation - short","","null","","","","","","","","","","","","","","","","",""
"","html-keyboard-response","182","270047","0.0-285.0","tjlts31t","","","","","","","","","","","","","571","bms","Diagnostic trial","","j","","2","2","11","false","false","false","both pre & post","LEFT","RIGHT","j","1","false","","","",""
"","html-keyboard-response","183","270801","0.0-288.0","tjlts31t","1440","900","","","","","","","","","","","null","+","Fixation - short","","null","","","","","","","","","","","","","","","","",""
"","html-keyboard-response","184","271514","0.0-289.0","tjlts31t","","","","","","","","","","","","","711","bms","Diagnostic trial","","f","","2","3","11","false","false","true","both pre & post","LEFT","LEFT","f","1","true","","","",""
"","html-keyboard-response","185","272271","0.0-292.0","tjlts31t","1440","900","","","","","","","","","","","null","+","Fixation - short","","null","","","","","","","","","","","","","","","","",""
"","html-keyboard-response","186","272897","0.0-293.0","tjlts31t","","","","","","","","","","","","","624","rrd","Diagnostic trial","","j","","2","4","11","false","false","false","both pre & post","RIGHT","RIGHT","j","1","true","","","",""
"","html-keyboard-response","187","273655","0.0-296.0","tjlts31t","1440","900","","","","","","","","","","","null","+","Fixation - short","","null","","","","","","","","","","","","","","","","",""
"","html-keyboard-response","188","274331","0.0-297.0","tjlts31t","","","","","","","","","","","","","675","bms","Diagnostic trial","","f","","2","5","11","false","false","true","both pre & post","LEFT","LEFT","f","1","true","","","",""
"","html-keyboard-response","189","275084","0.0-300.0","tjlts31t","1440","900","","","","","","","","","","","null","+","Fixation - short","","null","","","","","","","","","","","","","","","","",""
"","html-keyboard-response","190","276049","0.0-301.0","tjlts31t","","","","","","","","","","","","","964","rrd","Diagnostic trial","","f","","2","6","11","false","false","true","both pre & post","RIGHT","LEFT","f","1","false","","","",""
"","html-keyboard-response","191","276806","0.0-304.0","tjlts31t","1440","900","","","","","","","","","","","null","+","Fixation - short","","null","","","","","","","","","","","","","","","","",""
"","html-keyboard-response","192","277398","0.0-305.0","tjlts31t","","","","","","","","","","","","","591","bms","Diagnostic trial","","f","","2","7","11","false","false","true","both pre & post","LEFT","LEFT","f","1","true","","","",""
"","html-keyboard-response","193","278154","0.0-308.0","tjlts31t","1440","900","","","","","","","","","","","null","+","Fixation - short","","null","","","","","","","","","","","","","","","","",""
"","html-keyboard-response","194","278701","0.0-309.0","tjlts31t","","","","","","","","","","","","","545","bms","Diagnostic trial","","f","","2","8","11","false","false","true","both pre & post","LEFT","LEFT","f","1","true","","","",""
"","html-keyboard-response","195","279457","0.0-312.0","tjlts31t","1440","900","","","","","","","","","","","null","+","Fixation - short","","null","","","","","","","","","","","","","","","","",""
"","html-keyboard-response","196","280060","0.0-313.0","tjlts31t","","","","","","","","","","","","","603","bms","Diagnostic trial","","f","","2","9","11","false","false","true","both pre & post","LEFT","LEFT","f","1","true","","","",""
"","html-keyboard-response","197","280817","0.0-316.0","tjlts31t","1440","900","","","","","","","","","","","null","+","Fixation - short","","null","","","","","","","","","","","","","","","","",""
"","html-keyboard-response","198","281476","0.0-317.0","tjlts31t","","","","","","","","","","","","","658","bms","Diagnostic trial","","j","","2","10","11","false","false","false","both pre & post","LEFT","RIGHT","j","1","false","","","",""
"","html-keyboard-response","199","282232","0.0-320.0","tjlts31t","1440","900","","","","","","","","","","","null","+","Fixation - short","","null","","","","","","","","","","","","","","","","",""
"","canvas-keyboard-response","200","283486","0.0-321.0","tjlts31t","","","","","","","","","","","","","null","Cue","Cue","","null","","2","10","","","false","","","","","","","","","","",""
"","html-keyboard-response","201","284243","0.0-322.0","tjlts31t","1440","900","","","","","","","","","","","null","+","Fixation - short","","null","","","","","","","","","","","","","","","","",""
"","html-keyboard-response","202","284935","0.0-323.0","tjlts31t","","","","","","","","","","","","","691","bms","Diagnostic trial","","j","","2","11","11","true","false","false","both pre & post","LEFT","RIGHT","j","1","false","","","",""
"","html-keyboard-response","203","285689","0.0-326.0","tjlts31t","1440","900","","","","","","","","","","","null","+","Fixation - short","","null","","","","","","","","","","","","","","","","",""
"","html-keyboard-response","204","286467","0.0-327.0","tjlts31t","","","","","","","","","","","","","777","rrd","Diagnostic trial","","f","","2","12","11","true","false","true","both pre & post","RIGHT","LEFT","f","1","false","","","",""
"","html-keyboard-response","205","287224","0.0-330.0","tjlts31t","1440","900","","","","","","","","","","","null","+","Fixation - short","","null","","","","","","","","","","","","","","","","",""
"","html-keyboard-response","206","287762","0.0-331.0","tjlts31t","","","","","","","","","","","","","537","rrd","Diagnostic trial","","f","","2","13","11","true","false","true","both pre & post","RIGHT","LEFT","f","1","false","","","",""
"","html-keyboard-response","207","288518","0.0-334.0","tjlts31t","1440","900","","","","","","","","","","","null","+","Fixation - short","","null","","","","","","","","","","","","","","","","",""
"","html-keyboard-response","208","289297","0.0-335.0","tjlts31t","","","","","","","","","","","","","777","bms","Inducer trial","","f","","2","","","","true","","","","","f","1","","false","LEFT","",""
"","html-keyboard-response","209","290054","0.0-338.0","tjlts31t","1440","900","","","","","","","","","","","null","+","Fixation - short","","null","","","","","","","","","","","","","","","","",""
"","html-keyboard-response","210","294677","0.0-339.0","tjlts31t","","","","","","","","","","","","","4622","If frn press LEFT | If oez press RIGHT","Inducer instructions",""," ","","3","","","","","","","","","","","","","","",""
"","html-keyboard-response","211","295430","0.0-340.0","tjlts31t","1440","900","","","","","","","","","","","null","+","Fixation - short","","null","","","","","","","","","","","","","","","","",""
"","html-keyboard-response","212","296309","0.0-341.0","tjlts31t","","","","","","","","","","","","","878","frn","Diagnostic trial","","j","","3","0","5","false","false","false","both pre & post","LEFT","RIGHT","j","1","false","","","",""
"","html-keyboard-response","213","297065","0.0-344.0","tjlts31t","1440","900","","","","","","","","","","","null","+","Fixation - short","","null","","","","","","","","","","","","","","","","",""
"","html-keyboard-response","214","298023","0.0-345.0","tjlts31t","","","","","","","","","","","","","956","frn","Diagnostic trial","","f","","3","1","5","false","false","true","both pre & post","LEFT","LEFT","f","1","true","","","",""
"","html-keyboard-response","215","298779","0.0-348.0","tjlts31t","1440","900","","","","","","","","","","","null","+","Fixation - short","","null","","","","","","","","","","","","","","","","",""
"","html-keyboard-response","216","299403","0.0-349.0","tjlts31t","","","","","","","","","","","","","622","frn","Diagnostic trial","","f","","3","2","5","false","false","true","both pre & post","LEFT","LEFT","f","1","true","","","",""
"","html-keyboard-response","217","300159","0.0-352.0","tjlts31t","1440","900","","","","","","","","","","","null","+","Fixation - short","","null","","","","","","","","","","","","","","","","",""
"","html-keyboard-response","218","300617","0.0-353.0","tjlts31t","","","","","","","","","","","","","458","frn","Diagnostic trial","","f","","3","3","5","false","false","true","both pre & post","LEFT","LEFT","f","1","true","","","",""
"","html-keyboard-response","219","301373","0.0-356.0","tjlts31t","1440","900","","","","","","","","","","","null","+","Fixation - short","","null","","","","","","","","","","","","","","","","",""
"","html-keyboard-response","220","302030","0.0-357.0","tjlts31t","","","","","","","","","","","","","656","oez","Diagnostic trial","","f","","3","4","5","false","false","true","both pre & post","RIGHT","LEFT","f","1","false","","","",""
"","html-keyboard-response","221","302783","0.0-360.0","tjlts31t","1440","900","","","","","","","","","","","null","+","Fixation - short","","null","","","","","","","","","","","","","","","","",""
"","canvas-keyboard-response","222","304040","0.0-361.0","tjlts31t","","","","","","","","","","","","","null","Cue","Cue","","null","","3","4","","","false","","","","","","","","","","",""
"","html-keyboard-response","223","304795","0.0-362.0","tjlts31t","1440","900","","","","","","","","","","","null","+","Fixation - short","","null","","","","","","","","","","","","","","","","",""
"","html-keyboard-response","224","305395","0.0-363.0","tjlts31t","","","","","","","","","","","","","598","frn","Diagnostic trial","","j","","3","5","5","true","false","false","both pre & post","LEFT","RIGHT","j","1","false","","","",""
"","html-keyboard-response","225","306151","0.0-366.0","tjlts31t","1440","900","","","","","","","","","","","null","+","Fixation - short","","null","","","","","","","","","","","","","","","","",""
"","html-keyboard-response","226","306632","0.0-367.0","tjlts31t","","","","","","","","","","","","","479","frn","Diagnostic trial","","j","","3","6","5","true","false","false","both pre & post","LEFT","RIGHT","j","1","false","","","",""
"","html-keyboard-response","227","307385","0.0-370.0","tjlts31t","1440","900","","","","","","","","","","","null","+","Fixation - short","","null","","","","","","","","","","","","","","","","",""
"","html-keyboard-response","228","308526","0.0-371.0","tjlts31t","","","","","","","","","","","","","1139","frn","Inducer trial","","f","","3","","","","true","","","","","f","1","","false","LEFT","",""
"","html-keyboard-response","229","309282","0.0-374.0","tjlts31t","1440","900","","","","","","","","","","","null","+","Fixation - short","","null","","","","","","","","","","","","","","","","",""
"","html-keyboard-response","230","320456","0.0-375.0","tjlts31t","","","","","","","","","","","","","11173","If vnn press LEFT | If adj press RIGHT","Inducer instructions",""," ","","4","","","","","","","","","","","","","","",""
"","html-keyboard-response","231","321213","0.0-376.0","tjlts31t","1440","900","","","","","","","","","","","null","+","Fixation - short","","null","","","","","","","","","","","","","","","","",""
"","html-keyboard-response","232","322050","0.0-377.0","tjlts31t","","","","","","","","","","","","","835","adj","Diagnostic trial","","f","","4","0","9","false","false","true","both pre & post","RIGHT","LEFT","f","1","false","","","",""
"","html-keyboard-response","233","322807","0.0-380.0","tjlts31t","1440","900","","","","","","","","","","","null","+","Fixation - short","","null","","","","","","","","","","","","","","","","",""
"","html-keyboard-response","234","323339","0.0-381.0","tjlts31t","","","","","","","","","","","","","531","adj","Diagnostic trial","","f","","4","1","9","false","false","true","both pre & post","RIGHT","LEFT","f","1","false","","","",""
"","html-keyboard-response","235","324090","0.0-384.0","tjlts31t","1440","900","","","","","","","","","","","null","+","Fixation - short","","null","","","","","","","","","","","","","","","","",""
"","html-keyboard-response","236","324518","0.0-385.0","tjlts31t","","","","","","","","","","","","","426","adj","Diagnostic trial","","f","","4","2","9","false","false","true","both pre & post","RIGHT","LEFT","f","1","false","","","",""
"","html-keyboard-response","237","325273","0.0-388.0","tjlts31t","1440","900","","","","","","","","","","","null","+","Fixation - short","","null","","","","","","","","","","","","","","","","",""
"","html-keyboard-response","238","325706","0.0-389.0","tjlts31t","","","","","","","","","","","","","432","adj","Diagnostic trial","","f","","4","3","9","false","false","true","both pre & post","RIGHT","LEFT","f","1","false","","","",""
"","html-keyboard-response","239","326462","0.0-392.0","tjlts31t","1440","900","","","","","","","","","","","null","+","Fixation - short","","null","","","","","","","","","","","","","","","","",""
"","html-keyboard-response","240","326951","0.0-393.0","tjlts31t","","","","","","","","","","","","","488","vnn","Diagnostic trial","","f","","4","4","9","false","false","true","both pre & post","LEFT","LEFT","f","1","true","","","",""
"","html-keyboard-response","241","327704","0.0-396.0","tjlts31t","1440","900","","","","","","","","","","","null","+","Fixation - short","","null","","","","","","","","","","","","","","","","",""
"","html-keyboard-response","242","328246","0.0-397.0","tjlts31t","","","","","","","","","","","","","541","vnn","Diagnostic trial","","j","","4","5","9","false","false","false","both pre & post","LEFT","RIGHT","j","1","false","","","",""
"","html-keyboard-response","243","329016","0.0-400.0","tjlts31t","1440","900","","","","","","","","","","","null","+","Fixation - short","","null","","","","","","","","","","","","","","","","",""
"","html-keyboard-response","244","329545","0.0-401.0","tjlts31t","","","","","","","","","","","","","527","adj","Diagnostic trial","","j","","4","6","9","false","false","false","both pre & post","RIGHT","RIGHT","j","1","true","","","",""
"","html-keyboard-response","245","330299","0.0-404.0","tjlts31t","1440","900","","","","","","","","","","","null","+","Fixation - short","","null","","","","","","","","","","","","","","","","",""
"","html-keyboard-response","246","330890","0.0-405.0","tjlts31t","","","","","","","","","","","","","589","adj","Diagnostic trial","","f","","4","7","9","false","false","true","both pre & post","RIGHT","LEFT","f","1","false","","","",""
"","html-keyboard-response","247","331647","0.0-408.0","tjlts31t","1440","900","","","","","","","","","","","null","+","Fixation - short","","null","","","","","","","","","","","","","","","","",""
"","html-keyboard-response","248","332085","0.0-409.0","tjlts31t","","","","","","","","","","","","","437","adj","Diagnostic trial","","f","","4","8","9","false","false","true","both pre & post","RIGHT","LEFT","f","1","false","","","",""
"","html-keyboard-response","249","332842","0.0-412.0","tjlts31t","1440","900","","","","","","","","","","","null","+","Fixation - short","","null","","","","","","","","","","","","","","","","",""
"","canvas-keyboard-response","250","334098","0.0-413.0","tjlts31t","","","","","","","","","","","","","null","Cue","Cue","","null","","4","8","","","false","","","","","","","","","","",""
"","html-keyboard-response","251","334853","0.0-414.0","tjlts31t","1440","900","","","","","","","","","","","null","+","Fixation - short","","null","","","","","","","","","","","","","","","","",""
"","html-keyboard-response","252","335423","0.0-415.0","tjlts31t","","","","","","","","","","","","","569","vnn","Diagnostic trial","","j","","4","9","9","true","false","false","both pre & post","LEFT","RIGHT","j","1","false","","","",""
"","html-keyboard-response","253","336179","0.0-418.0","tjlts31t","1440","900","","","","","","","","","","","null","+","Fixation - short","","null","","","","","","","","","","","","","","","","",""
"","html-keyboard-response","254","336696","0.0-419.0","tjlts31t","","","","","","","","","","","","","516","adj","Diagnostic trial","","f","","4","10","9","true","false","true","both pre & post","RIGHT","LEFT","f","1","false","","","",""
"","html-keyboard-response","255","337453","0.0-422.0","tjlts31t","1440","900","","","","","","","","","","","null","+","Fixation - short","","null","","","","","","","","","","","","","","","","",""
"","html-keyboard-response","256","338215","0.0-423.0","tjlts31t","","","","","","","","","","","","","761","vnn","Diagnostic trial","","f","","4","11","9","true","false","true","both pre & post","LEFT","LEFT","f","1","true","","","",""
"","html-keyboard-response","257","338970","0.0-426.0","tjlts31t","1440","900","","","","","","","","","","","null","+","Fixation - short","","null","","","","","","","","","","","","","","","","",""
"","html-keyboard-response","258","339536","0.0-427.0","tjlts31t","","","","","","","","","","","","","565","vnn","Inducer trial","","f","","4","","","","true","","","","","f","1","","false","LEFT","",""
"","html-keyboard-response","259","340288","0.0-430.0","tjlts31t","1440","900","","","","","","","","","","","null","+","Fixation - short","","null","","","","","","","","","","","","","","","","",""
"","html-keyboard-response","260","345125","0.0-431.0","tjlts31t","","","","","","","","","","","","","4835","If dul press LEFT | If iei press RIGHT","Inducer instructions",""," ","","5","","","","","","","","","","","","","","",""
"","html-keyboard-response","261","345887","0.0-432.0","tjlts31t","1440","900","","","","","","","","","","","null","+","Fixation - short","","null","","","","","","","","","","","","","","","","",""
"","html-keyboard-response","262","346561","0.0-433.0","tjlts31t","","","","","","","","","","","","","673","dul","Diagnostic trial","","f","","5","0","7","false","false","true","both pre & post","LEFT","LEFT","f","1","true","","","",""
"","html-keyboard-response","263","347317","0.0-436.0","tjlts31t","1440","900","","","","","","","","","","","null","+","Fixation - short","","null","","","","","","","","","","","","","","","","",""
"","html-keyboard-response","264","347908","0.0-437.0","tjlts31t","","","","","","","","","","","","","591","dul","Diagnostic trial","","j","","5","1","7","false","false","false","both pre & post","LEFT","RIGHT","j","1","false","","","",""
"","html-keyboard-response","265","348666","0.0-440.0","tjlts31t","1440","900","","","","","","","","","","","null","+","Fixation - short","","null","","","","","","","","","","","","","","","","",""
"","html-keyboard-response","266","349159","0.0-441.0","tjlts31t","","","","","","","","","","","","","492","dul","Diagnostic trial","","f","","5","2","7","false","false","true","both pre & post","LEFT","LEFT","f","1","true","","","",""
"","html-keyboard-response","267","349916","0.0-444.0","tjlts31t","1440","900","","","","","","","","","","","null","+","Fixation - short","","null","","","","","","","","","","","","","","","","",""
"","html-keyboard-response","268","350478","0.0-445.0","tjlts31t","","","","","","","","","","","","","561","iei","Diagnostic trial","","j","","5","3","7","false","false","false","both pre & post","RIGHT","RIGHT","j","1","true","","","",""
"","html-keyboard-response","269","351234","0.0-448.0","tjlts31t","1440","900","","","","","","","","","","","null","+","Fixation - short","","null","","","","","","","","","","","","","","","","",""
"","html-keyboard-response","270","351980","0.0-449.0","tjlts31t","","","","","","","","","","","","","745","iei","Diagnostic trial","","j","","5","4","7","false","false","false","both pre & post","RIGHT","RIGHT","j","1","true","","","",""
"","html-keyboard-response","271","352737","0.0-452.0","tjlts31t","1440","900","","","","","","","","","","","null","+","Fixation - short","","null","","","","","","","","","","","","","","","","",""
"","html-keyboard-response","272","353289","0.0-453.0","tjlts31t","","","","","","","","","","","","","551","iei","Diagnostic trial","","f","","5","5","7","false","false","true","both pre & post","RIGHT","LEFT","f","1","false","","","",""
"","html-keyboard-response","273","354043","0.0-456.0","tjlts31t","1440","900","","","","","","","","","","","null","+","Fixation - short","","null","","","","","","","","","","","","","","","","",""
"","html-keyboard-response","274","354613","0.0-457.0","tjlts31t","","","","","","","","","","","","","569","iei","Diagnostic trial","","j","","5","6","7","false","false","false","both pre & post","RIGHT","RIGHT","j","1","true","","","",""
"","html-keyboard-response","275","355371","0.0-460.0","tjlts31t","1440","900","","","","","","","","","","","null","+","Fixation - short","","null","","","","","","","","","","","","","","","","",""
"","canvas-keyboard-response","276","356630","0.0-461.0","tjlts31t","","","","","","","","","","","","","null","Cue","Cue","","null","","5","6","","","false","","","","","","","","","","",""
"","html-keyboard-response","277","357382","0.0-462.0","tjlts31t","1440","900","","","","","","","","","","","null","+","Fixation - short","","null","","","","","","","","","","","","","","","","",""
"","html-keyboard-response","278","358719","0.0-463.0","tjlts31t","","","","","","","","","","","","","1335","iei","Diagnostic trial","","f","","5","7","7","true","false","true","both pre & post","RIGHT","LEFT","f","1","false","","","",""
"","html-keyboard-response","279","359475","0.0-466.0","tjlts31t","1440","900","","","","","","","","","","","null","+","Fixation - short","","null","","","","","","","","","","","","","","","","",""
"","html-keyboard-response","280","360078","0.0-467.0","tjlts31t","","","","","","","","","","","","","601","dul","Diagnostic trial","","f","","5","8","7","true","false","true","both pre & post","LEFT","LEFT","f","1","true","","","",""
"","html-keyboard-response","281","360830","0.0-470.0","tjlts31t","1440","900","","","","","","","","","","","null","+","Fixation - short","","null","","","","","","","","","","","","","","","","",""
"","html-keyboard-response","282","361566","0.0-471.0","tjlts31t","","","","","","","","","","","","","736","iei","Diagnostic trial","","j","","5","9","7","true","false","false","both pre & post","RIGHT","RIGHT","j","1","true","","","",""
"","html-keyboard-response","283","362323","0.0-474.0","tjlts31t","1440","900","","","","","","","","","","","null","+","Fixation - short","","null","","","","","","","","","","","","","","","","",""
"","html-keyboard-response","284","363050","0.0-475.0","tjlts31t","","","","","","","","","","","","","726","dul","Inducer trial","","f","","5","","","","true","","","","","f","1","","false","LEFT","",""
"","html-keyboard-response","285","363807","0.0-478.0","tjlts31t","1440","900","","","","","","","","","","","null","+","Fixation - short","","null","","","","","","","","","","","","","","","","",""
"","html-keyboard-response","286","368030","0.0-479.0","tjlts31t","","","","","","","","","","","","","4221","If gso press LEFT | If flh press RIGHT","Inducer instructions",""," ","","6","","","","","","","","","","","","","","",""
"","html-keyboard-response","287","368781","0.0-480.0","tjlts31t","1440","900","","","","","","","","","","","null","+","Fixation - short","","null","","","","","","","","","","","","","","","","",""
"","html-keyboard-response","288","369713","0.0-481.0","tjlts31t","","","","","","","","","","","","","930","gso","Diagnostic trial","","j","","6","0","10","false","false","false","both pre & post","LEFT","RIGHT","j","1","false","","","",""
"","html-keyboard-response","289","370469","0.0-484.0","tjlts31t","1440","900","","","","","","","","","","","null","+","Fixation - short","","null","","","","","","","","","","","","","","","","",""
"","html-keyboard-response","290","370945","0.0-485.0","tjlts31t","","","","","","","","","","","","","474","flh","Diagnostic trial","","j","","6","1","10","false","false","false","both pre & post","RIGHT","RIGHT","j","1","true","","","",""
"","html-keyboard-response","291","371701","0.0-488.0","tjlts31t","1440","900","","","","","","","","","","","null","+","Fixation - short","","null","","","","","","","","","","","","","","","","",""
"","html-keyboard-response","292","372498","0.0-489.0","tjlts31t","","","","","","","","","","","","","796","flh","Diagnostic trial","","j","","6","2","10","false","false","false","both pre & post","RIGHT","RIGHT","j","1","true","","","",""
"","html-keyboard-response","293","373255","0.0-492.0","tjlts31t","1440","900","","","","","","","","","","","null","+","Fixation - short","","null","","","","","","","","","","","","","","","","",""
"","html-keyboard-response","294","373849","0.0-493.0","tjlts31t","","","","","","","","","","","","","592","gso","Diagnostic trial","","j","","6","3","10","false","false","false","both pre & post","LEFT","RIGHT","j","1","false","","","",""
"","html-keyboard-response","295","374606","0.0-496.0","tjlts31t","1440","900","","","","","","","","","","","null","+","Fixation - short","","null","","","","","","","","","","","","","","","","",""
"","html-keyboard-response","296","375200","0.0-497.0","tjlts31t","","","","","","","","","","","","","593","flh","Diagnostic trial","","j","","6","4","10","false","false","false","both pre & post","RIGHT","RIGHT","j","1","true","","","",""
"","html-keyboard-response","297","375957","0.0-500.0","tjlts31t","1440","900","","","","","","","","","","","null","+","Fixation - short","","null","","","","","","","","","","","","","","","","",""
"","html-keyboard-response","298","376472","0.0-501.0","tjlts31t","","","","","","","","","","","","","513","flh","Diagnostic trial","","j","","6","5","10","false","false","false","both pre & post","RIGHT","RIGHT","j","1","true","","","",""
"","html-keyboard-response","299","377229","0.0-504.0","tjlts31t","1440","900","","","","","","","","","","","null","+","Fixation - short","","null","","","","","","","","","","","","","","","","",""
"","html-keyboard-response","300","377830","0.0-505.0","tjlts31t","","","","","","","","","","","","","599","flh","Diagnostic trial","","j","","6","6","10","false","false","false","both pre & post","RIGHT","RIGHT","j","1","true","","","",""
"","html-keyboard-response","301","378581","0.0-508.0","tjlts31t","1440","900","","","","","","","","","","","null","+","Fixation - short","","null","","","","","","","","","","","","","","","","",""
"","html-keyboard-response","302","379132","0.0-509.0","tjlts31t","","","","","","","","","","","","","549","gso","Diagnostic trial","","f","","6","7","10","false","false","true","both pre & post","LEFT","LEFT","f","1","true","","","",""
"","html-keyboard-response","303","379884","0.0-512.0","tjlts31t","1440","900","","","","","","","","","","","null","+","Fixation - short","","null","","","","","","","","","","","","","","","","",""
"","html-keyboard-response","304","380475","0.0-513.0","tjlts31t","","","","","","","","","","","","","590","flh","Diagnostic trial","","f","","6","8","10","false","false","true","both pre & post","RIGHT","LEFT","f","1","false","","","",""
"","html-keyboard-response","305","381230","0.0-516.0","tjlts31t","1440","900","","","","","","","","","","","null","+","Fixation - short","","null","","","","","","","","","","","","","","","","",""
"","html-keyboard-response","306","381799","0.0-517.0","tjlts31t","","","","","","","","","","","","","568","gso","Diagnostic trial","","j","","6","9","10","false","false","false","both pre & post","LEFT","RIGHT","j","1","false","","","",""
"","html-keyboard-response","307","382556","0.0-520.0","tjlts31t","1440","900","","","","","","","","","","","null","+","Fixation - short","","null","","","","","","","","","","","","","","","","",""
"","canvas-keyboard-response","308","383813","0.0-521.0","tjlts31t","","","","","","","","","","","","","null","Cue","Cue","","null","","6","9","","","false","","","","","","","","","","",""
"","html-keyboard-response","309","384570","0.0-522.0","tjlts31t","1440","900","","","","","","","","","","","null","+","Fixation - short","","null","","","","","","","","","","","","","","","","",""
"","html-keyboard-response","310","385088","0.0-523.0","tjlts31t","","","","","","","","","","","","","516","flh","Diagnostic trial","","f","","6","10","10","true","false","true","both pre & post","RIGHT","LEFT","f","1","false","","","",""
"","html-keyboard-response","311","385843","0.0-526.0","tjlts31t","1440","900","","","","","","","","","","","null","+","Fixation - short","","null","","","","","","","","","","","","","","","","",""
"","html-keyboard-response","312","386644","0.0-527.0","tjlts31t","","","","","","","","","","","","","799","gso","Diagnostic trial","","f","","6","11","10","true","false","true","both pre & post","LEFT","LEFT","f","1","true","","","",""
"","html-keyboard-response","313","387400","0.0-530.0","tjlts31t","1440","900","","","","","","","","","","","null","+","Fixation - short","","null","","","","","","","","","","","","","","","","",""
"","html-keyboard-response","314","388142","0.0-531.0","tjlts31t","","","","","","","","","","","","","740","flh","Diagnostic trial","","j","","6","12","10","true","false","false","both pre & post","RIGHT","RIGHT","j","1","true","","","",""
"","html-keyboard-response","315","388894","0.0-534.0","tjlts31t","1440","900","","","","","","","","","","","null","+","Fixation - short","","null","","","","","","","","","","","","","","","","",""
"","html-keyboard-response","316","389481","0.0-535.0","tjlts31t","","","","","","","","","","","","","584","gso","Diagnostic trial","","f","","6","13","10","true","false","true","both pre & post","LEFT","LEFT","f","1","true","","","",""
"","html-keyboard-response","317","390237","0.0-538.0","tjlts31t","1440","900","","","","","","","","","","","null","+","Fixation - short","","null","","","","","","","","","","","","","","","","",""
"","html-keyboard-response","318","390970","0.0-539.0","tjlts31t","","","","","","","","","","","","","732","gso","Inducer trial","","f","","6","","","","true","","","","","f","1","","false","LEFT","",""
"","html-keyboard-response","319","391726","0.0-542.0","tjlts31t","1440","900","","","","","","","","","","","null","+","Fixation - short","","null","","","","","","","","","","","","","","","","",""
"","html-keyboard-response","320","398366","0.0-543.0","tjlts31t","","","","","","","","","","","","","6639","If edc press LEFT | If tkb press RIGHT","Inducer instructions",""," ","","7","","","","","","","","","","","","","","",""
"","html-keyboard-response","321","399120","0.0-544.0","tjlts31t","1440","900","","","","","","","","","","","null","+","Fixation - short","","null","","","","","","","","","","","","","","","","",""
"","html-keyboard-response","322","400193","0.0-545.0","tjlts31t","","","","","","","","","","","","","1071","tkb","Diagnostic trial","","j","","7","0","9","false","false","false","both pre & post","RIGHT","RIGHT","j","1","true","","","",""
"","html-keyboard-response","323","400946","0.0-548.0","tjlts31t","1440","900","","","","","","","","","","","null","+","Fixation - short","","null","","","","","","","","","","","","","","","","",""
"","html-keyboard-response","324","401453","0.0-549.0","tjlts31t","","","","","","","","","","","","","505","tkb","Diagnostic trial","","f","","7","1","9","false","false","true","both pre & post","RIGHT","LEFT","f","1","false","","","",""
"","html-keyboard-response","325","402206","0.0-552.0","tjlts31t","1440","900","","","","","","","","","","","null","+","Fixation - short","","null","","","","","","","","","","","","","","","","",""
"","html-keyboard-response","326","403419","0.0-553.0","tjlts31t","","","","","","","","","","","","","1211","edc","Diagnostic trial","","f","","7","2","9","false","false","true","both pre & post","LEFT","LEFT","f","1","true","","","",""
"","html-keyboard-response","327","404175","0.0-556.0","tjlts31t","1440","900","","","","","","","","","","","null","+","Fixation - short","","null","","","","","","","","","","","","","","","","",""
"","html-keyboard-response","328","404847","0.0-557.0","tjlts31t","","","","","","","","","","","","","671","edc","Diagnostic trial","","f","","7","3","9","false","false","true","both pre & post","LEFT","LEFT","f","1","true","","","",""
"","html-keyboard-response","329","405607","0.0-560.0","tjlts31t","1440","900","","","","","","","","","","","null","+","Fixation - short","","null","","","","","","","","","","","","","","","","",""
"","html-keyboard-response","330","406155","0.0-561.0","tjlts31t","","","","","","","","","","","","","545","edc","Diagnostic trial","","f","","7","4","9","false","false","true","both pre & post","LEFT","LEFT","f","1","true","","","",""
"","html-keyboard-response","331","406913","0.0-564.0","tjlts31t","1440","900","","","","","","","","","","","null","+","Fixation - short","","null","","","","","","","","","","","","","","","","",""
"","html-keyboard-response","332","407628","0.0-565.0","tjlts31t","","","","","","","","","","","","","712","tkb","Diagnostic trial","","j","","7","5","9","false","false","false","both pre & post","RIGHT","RIGHT","j","1","true","","","",""
"","html-keyboard-response","333","408384","0.0-568.0","tjlts31t","1440","900","","","","","","","","","","","null","+","Fixation - short","","null","","","","","","","","","","","","","","","","",""
"","html-keyboard-response","334","409093","0.0-569.0","tjlts31t","","","","","","","","","","","","","708","tkb","Diagnostic trial","","j","","7","6","9","false","false","false","both pre & post","RIGHT","RIGHT","j","1","true","","","",""
"","html-keyboard-response","335","409850","0.0-572.0","tjlts31t","1440","900","","","","","","","","","","","null","+","Fixation - short","","null","","","","","","","","","","","","","","","","",""
"","html-keyboard-response","336","410342","0.0-573.0","tjlts31t","","","","","","","","","","","","","491","tkb","Diagnostic trial","","j","","7","7","9","false","false","false","both pre & post","RIGHT","RIGHT","j","1","true","","","",""
"","html-keyboard-response","337","411098","0.0-576.0","tjlts31t","1440","900","","","","","","","","","","","null","+","Fixation - short","","null","","","","","","","","","","","","","","","","",""
"","html-keyboard-response","338","411586","0.0-577.0","tjlts31t","","","","","","","","","","","","","487","tkb","Diagnostic trial","","j","","7","8","9","false","false","false","both pre & post","RIGHT","RIGHT","j","1","true","","","",""
"","html-keyboard-response","339","412339","0.0-580.0","tjlts31t","1440","900","","","","","","","","","","","null","+","Fixation - short","","null","","","","","","","","","","","","","","","","",""
"","canvas-keyboard-response","340","413595","0.0-581.0","tjlts31t","","","","","","","","","","","","","null","Cue","Cue","","null","","7","8","","","false","","","","","","","","","","",""
"","html-keyboard-response","341","414350","0.0-582.0","tjlts31t","1440","900","","","","","","","","","","","null","+","Fixation - short","","null","","","","","","","","","","","","","","","","",""
"","html-keyboard-response","342","414998","0.0-583.0","tjlts31t","","","","","","","","","","","","","646","edc","Diagnostic trial","","j","","7","9","9","true","false","false","both pre & post","LEFT","RIGHT","j","1","false","","","",""
"","html-keyboard-response","343","415756","0.0-586.0","tjlts31t","1440","900","","","","","","","","","","","null","+","Fixation - short","","null","","","","","","","","","","","","","","","","",""
"","html-keyboard-response","344","416368","0.0-587.0","tjlts31t","","","","","","","","","","","","","611","edc","Diagnostic trial","","f","","7","10","9","true","false","true","both pre & post","LEFT","LEFT","f","1","true","","","",""
"","html-keyboard-response","345","417123","0.0-590.0","tjlts31t","1440","900","","","","","","","","","","","null","+","Fixation - short","","null","","","","","","","","","","","","","","","","",""
"","html-keyboard-response","346","417671","0.0-591.0","tjlts31t","","","","","","","","","","","","","546","edc","Diagnostic trial","","f","","7","11","9","true","false","true","both pre & post","LEFT","LEFT","f","1","true","","","",""
"","html-keyboard-response","347","418428","0.0-594.0","tjlts31t","1440","900","","","","","","","","","","","null","+","Fixation - short","","null","","","","","","","","","","","","","","","","",""
"","html-keyboard-response","348","419253","0.0-595.0","tjlts31t","","","","","","","","","","","","","824","tkb","Diagnostic trial","","j","","7","12","9","true","false","false","both pre & post","RIGHT","RIGHT","j","1","true","","","",""
"","html-keyboard-response","349","420009","0.0-598.0","tjlts31t","1440","900","","","","","","","","","","","null","+","Fixation - short","","null","","","","","","","","","","","","","","","","",""
"","html-keyboard-response","350","420576","0.0-599.0","tjlts31t","","","","","","","","","","","","","566","tkb","Inducer trial","","j","","7","","","","true","","","","","j","1","","false","RIGHT","",""
"","html-keyboard-response","351","421333","0.0-602.0","tjlts31t","1440","900","","","","","","","","","","","null","+","Fixation - short","","null","","","","","","","","","","","","","","","","",""
"","html-keyboard-response","352","425330","0.0-603.0","tjlts31t","","","","","","","","","","","","","3995","If sjn press LEFT | If quy press RIGHT","Inducer instructions",""," ","","8","","","","","","","","","","","","","","",""
"","html-keyboard-response","353","426083","0.0-604.0","tjlts31t","1440","900","","","","","","","","","","","null","+","Fixation - short","","null","","","","","","","","","","","","","","","","",""
"","html-keyboard-response","354","426761","0.0-605.0","tjlts31t","","","","","","","","","","","","","677","sjn","Diagnostic trial","","j","","8","0","8","false","false","false","both pre & post","LEFT","RIGHT","j","1","false","","","",""
"","html-keyboard-response","355","427519","0.0-608.0","tjlts31t","1440","900","","","","","","","","","","","null","+","Fixation - short","","null","","","","","","","","","","","","","","","","",""
"","html-keyboard-response","356","428057","0.0-609.0","tjlts31t","","","","","","","","","","","","","538","sjn","Diagnostic trial","","f","","8","1","8","false","false","true","both pre & post","LEFT","LEFT","f","1","true","","","",""
"","html-keyboard-response","357","428814","0.0-612.0","tjlts31t","1440","900","","","","","","","","","","","null","+","Fixation - short","","null","","","","","","","","","","","","","","","","",""
"","html-keyboard-response","358","429484","0.0-613.0","tjlts31t","","","","","","","","","","","","","668","quy","Diagnostic trial","","j","","8","2","8","false","false","false","both pre & post","RIGHT","RIGHT","j","1","true","","","",""
"","html-keyboard-response","359","430240","0.0-616.0","tjlts31t","1440","900","","","","","","","","","","","null","+","Fixation - short","","null","","","","","","","","","","","","","","","","",""
"","html-keyboard-response","360","430820","0.0-617.0","tjlts31t","","","","","","","","","","","","","579","quy","Diagnostic trial","","f","","8","3","8","false","false","true","both pre & post","RIGHT","LEFT","f","1","false","","","",""
"","html-keyboard-response","361","431578","0.0-620.0","tjlts31t","1440","900","","","","","","","","","","","null","+","Fixation - short","","null","","","","","","","","","","","","","","","","",""
"","html-keyboard-response","362","432083","0.0-621.0","tjlts31t","","","","","","","","","","","","","504","sjn","Diagnostic trial","","j","","8","4","8","false","false","false","both pre & post","LEFT","RIGHT","j","1","false","","","",""
"","html-keyboard-response","363","432840","0.0-624.0","tjlts31t","1440","900","","","","","","","","","","","null","+","Fixation - short","","null","","","","","","","","","","","","","","","","",""
"","html-keyboard-response","364","433326","0.0-625.0","tjlts31t","","","","","","","","","","","","","484","quy","Diagnostic trial","","f","","8","5","8","false","false","true","both pre & post","RIGHT","LEFT","f","1","false","","","",""
"","html-keyboard-response","365","434077","0.0-628.0","tjlts31t","1440","900","","","","","","","","","","","null","+","Fixation - short","","null","","","","","","","","","","","","","","","","",""
"","html-keyboard-response","366","434544","0.0-629.0","tjlts31t","","","","","","","","","","","","","465","sjn","Diagnostic trial","","j","","8","6","8","false","false","false","both pre & post","LEFT","RIGHT","j","1","false","","","",""
"","html-keyboard-response","367","435299","0.0-632.0","tjlts31t","1440","900","","","","","","","","","","","null","+","Fixation - short","","null","","","","","","","","","","","","","","","","",""
"","html-keyboard-response","368","435710","0.0-633.0","tjlts31t","","","","","","","","","","","","","409","quy","Diagnostic trial","","f","","8","7","8","false","false","true","both pre & post","RIGHT","LEFT","f","1","false","","","",""
"","html-keyboard-response","369","436466","0.0-636.0","tjlts31t","1440","900","","","","","","","","","","","null","+","Fixation - short","","null","","","","","","","","","","","","","","","","",""
"","canvas-keyboard-response","370","437720","0.0-637.0","tjlts31t","","","","","","","","","","","","","null","Cue","Cue","","null","","8","7","","","false","","","","","","","","","","",""
"","html-keyboard-response","371","438473","0.0-638.0","tjlts31t","1440","900","","","","","","","","","","","null","+","Fixation - short","","null","","","","","","","","","","","","","","","","",""
"","html-keyboard-response","372","439242","0.0-639.0","tjlts31t","","","","","","","","","","","","","768","quy","Diagnostic trial","","f","","8","8","8","true","false","true","both pre & post","RIGHT","LEFT","f","1","false","","","",""
"","html-keyboard-response","373","439998","0.0-642.0","tjlts31t","1440","900","","","","","","","","","","","null","+","Fixation - short","","null","","","","","","","","","","","","","","","","",""
"","html-keyboard-response","374","440459","0.0-643.0","tjlts31t","","","","","","","","","","","","","461","quy","Diagnostic trial","","f","","8","9","8","true","false","true","both pre & post","RIGHT","LEFT","f","1","false","","","",""
"","html-keyboard-response","375","441214","0.0-646.0","tjlts31t","1440","900","","","","","","","","","","","null","+","Fixation - short","","null","","","","","","","","","","","","","","","","",""
"","html-keyboard-response","376","442377","0.0-647.0","tjlts31t","","","","","","","","","","","","","1162","quy","Inducer trial","","j","","8","","","","true","","","","","j","1","","false","RIGHT","",""
"","html-keyboard-response","377","443135","0.0-650.0","tjlts31t","1440","900","","","","","","","","","","","null","+","Fixation - short","","null","","","","","","","","","","","","","","","","",""
"","html-keyboard-response","378","447777","0.0-651.0","tjlts31t","","","","","","","","","","","","","4641","If fuc press LEFT | If dgv press RIGHT","Inducer instructions",""," ","","9","","","","","","","","","","","","","","",""
"","html-keyboard-response","379","448531","0.0-652.0","tjlts31t","1440","900","","","","","","","","","","","null","+","Fixation - short","","null","","","","","","","","","","","","","","","","",""
"","html-keyboard-response","380","449250","0.0-653.0","tjlts31t","","","","","","","","","","","","","718","dgv","Diagnostic trial","","f","","9","0","6","false","false","true","both pre & post","RIGHT","LEFT","f","1","false","","","",""
"","html-keyboard-response","381","450010","0.0-656.0","tjlts31t","1440","900","","","","","","","","","","","null","+","Fixation - short","","null","","","","","","","","","","","","","","","","",""
"","html-keyboard-response","382","450440","0.0-657.0","tjlts31t","","","","","","","","","","","","","428","fuc","Diagnostic trial","","f","","9","1","6","false","false","true","both pre & post","LEFT","LEFT","f","1","true","","","",""
"","html-keyboard-response","383","451194","0.0-660.0","tjlts31t","1440","900","","","","","","","","","","","null","+","Fixation - short","","null","","","","","","","","","","","","","","","","",""
"","html-keyboard-response","384","451815","0.0-661.0","tjlts31t","","","","","","","","","","","","","621","fuc","Diagnostic trial","","j","","9","2","6","false","false","false","both pre & post","LEFT","RIGHT","j","1","false","","","",""
"","html-keyboard-response","385","452567","0.0-664.0","tjlts31t","1440","900","","","","","","","","","","","null","+","Fixation - short","","null","","","","","","","","","","","","","","","","",""
"","html-keyboard-response","386","453053","0.0-665.0","tjlts31t","","","","","","","","","","","","","485","fuc","Diagnostic trial","","f","","9","3","6","false","false","true","both pre & post","LEFT","LEFT","f","1","true","","","",""
"","html-keyboard-response","387","453807","0.0-668.0","tjlts31t","1440","900","","","","","","","","","","","null","+","Fixation - short","","null","","","","","","","","","","","","","","","","",""
"","html-keyboard-response","388","454476","0.0-669.0","tjlts31t","","","","","","","","","","","","","668","dgv","Diagnostic trial","","f","","9","4","6","false","false","true","both pre & post","RIGHT","LEFT","f","1","false","","","",""
"","html-keyboard-response","389","455233","0.0-672.0","tjlts31t","1440","900","","","","","","","","","","","null","+","Fixation - short","","null","","","","","","","","","","","","","","","","",""
"","html-keyboard-response","390","455998","0.0-673.0","tjlts31t","","","","","","","","","","","","","764","fuc","Diagnostic trial","","f","","9","5","6","false","false","true","both pre & post","LEFT","LEFT","f","1","true","","","",""
"","html-keyboard-response","391","456753","0.0-676.0","tjlts31t","1440","900","","","","","","","","","","","null","+","Fixation - short","","null","","","","","","","","","","","","","","","","",""
"","canvas-keyboard-response","392","458011","0.0-677.0","tjlts31t","","","","","","","","","","","","","null","Cue","Cue","","null","","9","5","","","false","","","","","","","","","","",""
"","html-keyboard-response","393","458765","0.0-678.0","tjlts31t","1440","900","","","","","","","","","","","null","+","Fixation - short","","null","","","","","","","","","","","","","","","","",""
"","html-keyboard-response","394","459560","0.0-679.0","tjlts31t","","","","","","","","","","","","","794","dgv","Diagnostic trial","","j","","9","6","6","true","false","false","both pre & post","RIGHT","RIGHT","j","1","true","","","",""
"","html-keyboard-response","395","460312","0.0-682.0","tjlts31t","1440","900","","","","","","","","","","","null","+","Fixation - short","","null","","","","","","","","","","","","","","","","",""
"","html-keyboard-response","396","460809","0.0-683.0","tjlts31t","","","","","","","","","","","","","495","dgv","Diagnostic trial","","j","","9","7","6","true","false","false","both pre & post","RIGHT","RIGHT","j","1","true","","","",""
"","html-keyboard-response","397","461566","0.0-686.0","tjlts31t","1440","900","","","","","","","","","","","null","+","Fixation - short","","null","","","","","","","","","","","","","","","","",""
"","html-keyboard-response","398","462223","0.0-687.0","tjlts31t","","","","","","","","","","","","","656","fuc","Diagnostic trial","","j","","9","8","6","true","false","false","both pre & post","LEFT","RIGHT","j","1","false","","","",""
"","html-keyboard-response","399","462979","0.0-690.0","tjlts31t","1440","900","","","","","","","","","","","null","+","Fixation - short","","null","","","","","","","","","","","","","","","","",""
"","html-keyboard-response","400","463650","0.0-691.0","tjlts31t","","","","","","","","","","","","","670","dgv","Inducer trial","","j","","9","","","","true","","","","","j","1","","false","RIGHT","",""
"","html-keyboard-response","401","464407","0.0-694.0","tjlts31t","1440","900","","","","","","","","","","","null","+","Fixation - short","","null","","","","","","","","","","","","","","","","",""
"","html-keyboard-response","402","468090","0.0-695.0","tjlts31t","","","","","","","","","","","","","3682","If otr press LEFT | If byy press RIGHT","Inducer instructions",""," ","","10","","","","","","","","","","","","","","",""
"","html-keyboard-response","403","468848","0.0-696.0","tjlts31t","1440","900","","","","","","","","","","","null","+","Fixation - short","","null","","","","","","","","","","","","","","","","",""
"","html-keyboard-response","404","469700","0.0-697.0","tjlts31t","","","","","","","","","","","","","850","otr","Diagnostic trial","","j","","10","0","6","false","false","false","both pre & post","LEFT","RIGHT","j","1","false","","","",""
"","html-keyboard-response","405","470456","0.0-700.0","tjlts31t","1440","900","","","","","","","","","","","null","+","Fixation - short","","null","","","","","","","","","","","","","","","","",""
"","html-keyboard-response","406","470887","0.0-701.0","tjlts31t","","","","","","","","","","","","","429","otr","Diagnostic trial","","j","","10","1","6","false","false","false","both pre & post","LEFT","RIGHT","j","1","false","","","",""
"","html-keyboard-response","407","471642","0.0-704.0","tjlts31t","1440","900","","","","","","","","","","","null","+","Fixation - short","","null","","","","","","","","","","","","","","","","",""
"","html-keyboard-response","408","472130","0.0-705.0","tjlts31t","","","","","","","","","","","","","487","byy","Diagnostic trial","","j","","10","2","6","false","false","false","both pre & post","RIGHT","RIGHT","j","1","true","","","",""
"","html-keyboard-response","409","472883","0.0-708.0","tjlts31t","1440","900","","","","","","","","","","","null","+","Fixation - short","","null","","","","","","","","","","","","","","","","",""
"","html-keyboard-response","410","473526","0.0-709.0","tjlts31t","","","","","","","","","","","","","641","byy","Diagnostic trial","","f","","10","3","6","false","false","true","both pre & post","RIGHT","LEFT","f","1","false","","","",""
"","html-keyboard-response","411","474278","0.0-712.0","tjlts31t","1440","900","","","","","","","","","","","null","+","Fixation - short","","null","","","","","","","","","","","","","","","","",""
"","html-keyboard-response","412","475015","0.0-713.0","tjlts31t","","","","","","","","","","","","","735","otr","Diagnostic trial","","f","","10","4","6","false","false","true","both pre & post","LEFT","LEFT","f","1","true","","","",""
"","html-keyboard-response","413","475773","0.0-716.0","tjlts31t","1440","900","","","","","","","","","","","null","+","Fixation - short","","null","","","","","","","","","","","","","","","","",""
"","html-keyboard-response","414","476231","0.0-717.0","tjlts31t","","","","","","","","","","","","","457","byy","Diagnostic trial","","f","","10","5","6","false","false","true","both pre & post","RIGHT","LEFT","f","1","false","","","",""
"","html-keyboard-response","415","476984","0.0-720.0","tjlts31t","1440","900","","","","","","","","","","","null","+","Fixation - short","","null","","","","","","","","","","","","","","","","",""
"","canvas-keyboard-response","416","478242","0.0-721.0","tjlts31t","","","","","","","","","","","","","null","Cue","Cue","","null","","10","5","","","false","","","","","","","","","","",""
"","html-keyboard-response","417","478999","0.0-722.0","tjlts31t","1440","900","","","","","","","","","","","null","+","Fixation - short","","null","","","","","","","","","","","","","","","","",""
"","html-keyboard-response","418","479550","0.0-723.0","tjlts31t","","","","","","","","","","","","","549","byy","Diagnostic trial","","f","","10","6","6","true","false","true","both pre & post","RIGHT","LEFT","f","1","false","","","",""
"","html-keyboard-response","419","480306","0.0-726.0","tjlts31t","1440","900","","","","","","","","","","","null","+","Fixation - short","","null","","","","","","","","","","","","","","","","",""
"","html-keyboard-response","420","481079","0.0-727.0","tjlts31t","","","","","","","","","","","","","773","byy","Inducer trial","","j","","10","","","","true","","","","","j","1","","false","RIGHT","",""
"","html-keyboard-response","421","481835","0.0-730.0","tjlts31t","1440","900","","","","","","","","","","","null","+","Fixation - short","","null","","","","","","","","","","","","","","","","",""
"","html-keyboard-response","422","487409","0.0-731.0","tjlts31t","","","","","","","","","","","","","5572","If idy press LEFT | If lpn press RIGHT","Inducer instructions",""," ","","11","","","","","","","","","","","","","","",""
"","html-keyboard-response","423","488162","0.0-732.0","tjlts31t","1440","900","","","","","","","","","","","null","+","Fixation - short","","null","","","","","","","","","","","","","","","","",""
"","html-keyboard-response","424","488786","0.0-733.0","tjlts31t","","","","","","","","","","","","","623","idy","Diagnostic trial","","f","","11","0","4","false","false","true","both pre & post","LEFT","LEFT","f","1","true","","","",""
"","html-keyboard-response","425","489542","0.0-736.0","tjlts31t","1440","900","","","","","","","","","","","null","+","Fixation - short","","null","","","","","","","","","","","","","","","","",""
"","html-keyboard-response","426","490224","0.0-737.0","tjlts31t","","","","","","","","","","","","","680","lpn","Diagnostic trial","","f","","11","1","4","false","false","true","both pre & post","RIGHT","LEFT","f","1","false","","","",""
"","html-keyboard-response","427","490979","0.0-740.0","tjlts31t","1440","900","","","","","","","","","","","null","+","Fixation - short","","null","","","","","","","","","","","","","","","","",""
"","html-keyboard-response","428","491525","0.0-741.0","tjlts31t","","","","","","","","","","","","","545","idy","Diagnostic trial","","j","","11","2","4","false","false","false","both pre & post","LEFT","RIGHT","j","1","false","","","",""
"","html-keyboard-response","429","492277","0.0-744.0","tjlts31t","1440","900","","","","","","","","","","","null","+","Fixation - short","","null","","","","","","","","","","","","","","","","",""
"","html-keyboard-response","430","492944","0.0-745.0","tjlts31t","","","","","","","","","","","","","665","idy","Diagnostic trial","","j","","11","3","4","false","false","false","both pre & post","LEFT","RIGHT","j","1","false","","","",""
"","html-keyboard-response","431","493700","0.0-748.0","tjlts31t","1440","900","","","","","","","","","","","null","+","Fixation - short","","null","","","","","","","","","","","","","","","","",""
"","canvas-keyboard-response","432","494957","0.0-749.0","tjlts31t","","","","","","","","","","","","","null","Cue","Cue","","null","","11","3","","","false","","","","","","","","","","",""
"","html-keyboard-response","433","495713","0.0-750.0","tjlts31t","1440","900","","","","","","","","","","","null","+","Fixation - short","","null","","","","","","","","","","","","","","","","",""
"","html-keyboard-response","434","496386","0.0-751.0","tjlts31t","","","","","","","","","","","","","671","idy","Diagnostic trial","","j","","11","4","4","true","false","false","both pre & post","LEFT","RIGHT","j","1","false","","","",""
"","html-keyboard-response","435","497142","0.0-754.0","tjlts31t","1440","900","","","","","","","","","","","null","+","Fixation - short","","null","","","","","","","","","","","","","","","","",""
"","html-keyboard-response","436","497855","0.0-755.0","tjlts31t","","","","","","","","","","","","","711","lpn","Diagnostic trial","","f","","11","5","4","true","false","true","both pre & post","RIGHT","LEFT","f","1","false","","","",""
"","html-keyboard-response","437","498611","0.0-758.0","tjlts31t","1440","900","","","","","","","","","","","null","+","Fixation - short","","null","","","","","","","","","","","","","","","","",""
"","html-keyboard-response","438","499764","0.0-759.0","tjlts31t","","","","","","","","","","","","","1150","idy","Diagnostic trial","","f","","11","6","4","true","false","true","both pre & post","LEFT","LEFT","f","1","true","","","",""
"","html-keyboard-response","439","500517","0.0-762.0","tjlts31t","1440","900","","","","","","","","","","","null","+","Fixation - short","","null","","","","","","","","","","","","","","","","",""
"","html-keyboard-response","440","501120","0.0-763.0","tjlts31t","","","","","","","","","","","","","602","lpn","Diagnostic trial","","f","","11","7","4","true","false","true","both pre & post","RIGHT","LEFT","f","1","false","","","",""
"","html-keyboard-response","441","501877","0.0-766.0","tjlts31t","1440","900","","","","","","","","","","","null","+","Fixation - short","","null","","","","","","","","","","","","","","","","",""
"","html-keyboard-response","442","502460","0.0-767.0","tjlts31t","","","","","","","","","","","","","582","lpn","Inducer trial","","j","","11","","","","true","","","","","j","1","","false","RIGHT","",""
"","html-keyboard-response","443","503216","0.0-770.0","tjlts31t","1440","900","","","","","","","","","","","null","+","Fixation - short","","null","","","","","","","","","","","","","","","","",""
"","html-keyboard-response","444","505986","0.0-771.0","tjlts31t","","","","","","","","","","","","","2769","If rpw press LEFT | If ibg press RIGHT","Inducer instructions",""," ","","12","","","","","","","","","","","","","","",""
"","html-keyboard-response","445","506742","0.0-772.0","tjlts31t","1440","900","","","","","","","","","","","null","+","Fixation - short","","null","","","","","","","","","","","","","","","","",""
"","html-keyboard-response","446","507466","0.0-773.0","tjlts31t","","","","","","","","","","","","","722","rpw","Diagnostic trial","","f","","12","0","7","false","false","true","both pre & post","LEFT","LEFT","f","1","true","","","",""
"","html-keyboard-response","447","508222","0.0-776.0","tjlts31t","1440","900","","","","","","","","","","","null","+","Fixation - short","","null","","","","","","","","","","","","","","","","",""
"","html-keyboard-response","448","508861","0.0-777.0","tjlts31t","","","","","","","","","","","","","637","ibg","Diagnostic trial","","j","","12","1","7","false","false","false","both pre & post","RIGHT","RIGHT","j","1","true","","","",""
"","html-keyboard-response","449","509617","0.0-780.0","tjlts31t","1440","900","","","","","","","","","","","null","+","Fixation - short","","null","","","","","","","","","","","","","","","","",""
"","html-keyboard-response","450","510162","0.0-781.0","tjlts31t","","","","","","","","","","","","","544","ibg","Diagnostic trial","","f","","12","2","7","false","false","true","both pre & post","RIGHT","LEFT","f","1","false","","","",""
"","html-keyboard-response","451","510919","0.0-784.0","tjlts31t","1440","900","","","","","","","","","","","null","+","Fixation - short","","null","","","","","","","","","","","","","","","","",""
"","html-keyboard-response","452","511882","0.0-785.0","tjlts31t","","","","","","","","","","","","","962","rpw","Diagnostic trial","","j","","12","3","7","false","false","false","both pre & post","LEFT","RIGHT","j","1","false","","","",""
"","html-keyboard-response","453","512636","0.0-788.0","tjlts31t","1440","900","","","","","","","","","","","null","+","Fixation - short","","null","","","","","","","","","","","","","","","","",""
"","html-keyboard-response","454","513126","0.0-789.0","tjlts31t","","","","","","","","","","","","","490","rpw","Diagnostic trial","","j","","12","4","7","false","false","false","both pre & post","LEFT","RIGHT","j","1","false","","","",""
"","html-keyboard-response","455","513877","0.0-792.0","tjlts31t","1440","900","","","","","","","","","","","null","+","Fixation - short","","null","","","","","","","","","","","","","","","","",""
"","html-keyboard-response","456","514506","0.0-793.0","tjlts31t","","","","","","","","","","","","","628","ibg","Diagnostic trial","","j","","12","5","7","false","false","false","both pre & post","RIGHT","RIGHT","j","1","true","","","",""
