"value","trial_type","trial_index","time_elapsed","internal_node_id","id","width","height","webaudio","browser","browser_version","mobile","os","fullscreen","vsync_rate","webcam","microphone","view_history","rt","stimulus","trial_info","success","response","exp_parameters","inducer_run","diagnostic_run","cue_num","post_cue","inducer_trial","italic","forced_equal_run","correct_inducer_response_side","correct_diag_response_side","correct_response_key","correct_response","congruent","force_equal","correct_indu_response_side","accuracy","interactive"
"","call-function","0","5","0.0-0.0","stu9gaoa","","","","","","","","","","","","","","","","","","","","","","","","","","","","","","","","","",""
"","browser-check","1","985","0.0-1.0","stu9gaoa","1536","703","true","chrome","123.0.0","false","Windows 10","true","61.62","true","true","","","","","","","","","","","","","","","","","","","","","","",""
"","instructions","2","50670","0.0-2.0","stu9gaoa","","","","","","","","","","","","[{""page_index"":0,""viewing_time"":18316},{""page_index"":1,""viewing_time"":22200},{""page_index"":2,""viewing_time"":9168}]","49684","The experiment and consent","The experiment and consent","","","","","","","","","","","","","","","","","","",""
"","fullscreen","3","2221666","0.0-3.0","stu9gaoa","","","","","","","","","","","","","2169939","","Full screen","true","","","","","","","","","","","","","","","","","",""
"","instructions","4","2251856","0.0-4.0","stu9gaoa","","","","","","","","","","","","[{""page_index"":0,""viewing_time"":20690},{""page_index"":1,""viewing_time"":9497}]","30187","Instructions","Basic overview explanation","","","","","","","","","","","","","","","","","","",""
"","html-keyboard-response","5","2261263","0.0-5.0","stu9gaoa","","","","","","","","","","","","","7899","If italic press LEFT | If upright press RIGHT","Diagnostic instructions",""," ","{""debug"":false,""skip_instructions"":false,""skip_practice"":false,""save_local_data"":false,""studu_name"":""exp2"",""default_background_colour"":""#cccccc"",""wrong_response_colour"":""#d22d2d"",""instruction_delay"":20000,""trial_duration"":2000,""short_fixation"":750,""long_fixation"":1500,""wrong_response_delay"":300,""too_slow_delay"":300,""instruction_font_size"":""24px"",""general_font_size"":""42px"",""fixation_size"":""48px"",""allowed_responses"":[""f"",""j""],""cue_min_length"":0,""cue_max_length"":4,""tot_post_cue_len"":72,""cue_colour"":""red"",""cue_shape"":""Triangle"",""cue_size"":70,""cue_duration"":1250,""avg_number_of_cues"":3,""inducer_colour"":""yellow"",""number_of_inducers"":24,""pre_cue_italic_forced_equal"":true,""post_cue_italic_forced_equal"":true,""prac_diagnostic_rounds"":16,""prac_inducer_rounds"":6,""prac_cue_rounds"":16,""prac_post_cue_num"":3}","","","","","","","","","","","","","","","",""
"","html-keyboard-response","6","2262033","0.0-6.0","stu9gaoa","1536","864","","","","","","","","","","","null","+","Fixation - short","","null","","","","","","","","","","","","","","","","",""
"","html-keyboard-response","7","2262743","0.0-7.0","stu9gaoa","","","","","","","","","","","","","709","jft","Diagnostic practice","","j","","Diagnostic practice","0","-84","true","false","false","prac equal","RIGHT","RIGHT","j","1","true","","","",""
"","html-keyboard-response","8","2263511","0.0-10.0","stu9gaoa","1536","864","","","","","","","","","","","null","+","Fixation - short","","null","","","","","","","","","","","","","","","","",""
"","html-keyboard-response","9","2263991","0.0-11.0","stu9gaoa","","","","","","","","","","","","","479","bwe","Diagnostic practice","","j","","Diagnostic practice","1","-84","true","false","false","prac equal","LEFT","RIGHT","j","1","false","","","",""
"","html-keyboard-response","10","2264750","0.0-14.0","stu9gaoa","1536","864","","","","","","","","","","","null","+","Fixation - short","","null","","","","","","","","","","","","","","","","",""
"","html-keyboard-response","11","2265183","0.0-15.0","stu9gaoa","","","","","","","","","","","","","433","jft","Diagnostic practice","","j","","Diagnostic practice","2","-84","true","false","false","prac equal","RIGHT","RIGHT","j","1","true","","","",""
"","html-keyboard-response","12","2265950","0.0-18.0","stu9gaoa","1536","864","","","","","","","","","","","null","+","Fixation - short","","null","","","","","","","","","","","","","","","","",""
"","html-keyboard-response","13","2266415","0.0-19.0","stu9gaoa","","","","","","","","","","","","","464","bwe","Diagnostic practice","","f","","Diagnostic practice","3","-84","true","false","true","prac equal","LEFT","LEFT","f","1","true","","","",""
"","html-keyboard-response","14","2267182","0.0-22.0","stu9gaoa","1536","864","","","","","","","","","","","null","+","Fixation - short","","null","","","","","","","","","","","","","","","","",""
"","html-keyboard-response","15","2267935","0.0-23.0","stu9gaoa","","","","","","","","","","","","","752","bwe","Diagnostic practice","","j","","Diagnostic practice","4","-84","true","false","false","prac equal","LEFT","RIGHT","j","1","false","","","",""
"","html-keyboard-response","16","2268700","0.0-26.0","stu9gaoa","1536","864","","","","","","","","","","","null","+","Fixation - short","","null","","","","","","","","","","","","","","","","",""
"","html-keyboard-response","17","2269183","0.0-27.0","stu9gaoa","","","","","","","","","","","","","483","jft","Diagnostic practice","","f","","Diagnostic practice","5","-84","true","false","true","prac equal","RIGHT","LEFT","f","1","false","","","",""
"","html-keyboard-response","18","2269948","0.0-30.0","stu9gaoa","1536","864","","","","","","","","","","","null","+","Fixation - short","","null","","","","","","","","","","","","","","","","",""
"","html-keyboard-response","19","2270462","0.0-31.0","stu9gaoa","","","","","","","","","","","","","513","jft","Diagnostic practice","","f","","Diagnostic practice","6","-84","true","false","true","prac equal","RIGHT","LEFT","f","1","false","","","",""
"","html-keyboard-response","20","2271231","0.0-34.0","stu9gaoa","1536","864","","","","","","","","","","","null","+","Fixation - short","","null","","","","","","","","","","","","","","","","",""
"","html-keyboard-response","21","2271735","0.0-35.0","stu9gaoa","","","","","","","","","","","","","503","bwe","Diagnostic practice","","f","","Diagnostic practice","7","-84","true","false","true","prac equal","LEFT","LEFT","f","1","true","","","",""
"","html-keyboard-response","22","2272493","0.0-38.0","stu9gaoa","1536","864","","","","","","","","","","","null","+","Fixation - short","","null","","","","","","","","","","","","","","","","",""
"","html-keyboard-response","23","2272959","0.0-39.0","stu9gaoa","","","","","","","","","","","","","466","jft","Diagnostic practice","","j","","Diagnostic practice","8","-84","true","false","false","prac equal","RIGHT","RIGHT","j","1","true","","","",""
"","html-keyboard-response","24","2273724","0.0-42.0","stu9gaoa","1536","864","","","","","","","","","","","null","+","Fixation - short","","null","","","","","","","","","","","","","","","","",""
"","html-keyboard-response","25","2274271","0.0-43.0","stu9gaoa","","","","","","","","","","","","","547","jft","Diagnostic practice","","j","","Diagnostic practice","9","-84","true","false","false","prac equal","RIGHT","RIGHT","j","1","true","","","",""
"","html-keyboard-response","26","2275030","0.0-46.0","stu9gaoa","1536","864","","","","","","","","","","","null","+","Fixation - short","","null","","","","","","","","","","","","","","","","",""
"","html-keyboard-response","27","2275704","0.0-47.0","stu9gaoa","","","","","","","","","","","","","674","bwe","Diagnostic practice","","j","","Diagnostic practice","10","-84","true","false","false","prac equal","LEFT","RIGHT","j","1","false","","","",""
"","html-keyboard-response","28","2276470","0.0-50.0","stu9gaoa","1536","864","","","","","","","","","","","null","+","Fixation - short","","null","","","","","","","","","","","","","","","","",""
"","html-keyboard-response","29","2276968","0.0-51.0","stu9gaoa","","","","","","","","","","","","","497","jft","Diagnostic practice","","f","","Diagnostic practice","11","-84","true","false","true","prac equal","RIGHT","LEFT","f","1","false","","","",""
"","html-keyboard-response","30","2277728","0.0-54.0","stu9gaoa","1536","864","","","","","","","","","","","null","+","Fixation - short","","null","","","","","","","","","","","","","","","","",""
"","html-keyboard-response","31","2278255","0.0-55.0","stu9gaoa","","","","","","","","","","","","","526","bwe","Diagnostic practice","","f","","Diagnostic practice","12","-84","true","false","true","prac equal","LEFT","LEFT","f","1","true","","","",""
"","html-keyboard-response","32","2279021","0.0-58.0","stu9gaoa","1536","864","","","","","","","","","","","null","+","Fixation - short","","null","","","","","","","","","","","","","","","","",""
"","html-keyboard-response","33","2279826","0.0-59.0","stu9gaoa","","","","","","","","","","","","","809","bwe","Diagnostic practice","","j","","Diagnostic practice","13","-84","true","false","false","prac equal","LEFT","RIGHT","j","1","false","","","",""
"","html-keyboard-response","34","2280583","0.0-62.0","stu9gaoa","1536","864","","","","","","","","","","","null","+","Fixation - short","","null","","","","","","","","","","","","","","","","",""
"","html-keyboard-response","35","2281051","0.0-63.0","stu9gaoa","","","","","","","","","","","","","467","jft","Diagnostic practice","","f","","Diagnostic practice","14","-84","true","false","true","prac equal","RIGHT","LEFT","f","1","false","","","",""
"","html-keyboard-response","36","2281807","0.0-66.0","stu9gaoa","1536","864","","","","","","","","","","","null","+","Fixation - short","","null","","","","","","","","","","","","","","","","",""
"","html-keyboard-response","37","2282307","0.0-67.0","stu9gaoa","","","","","","","","","","","","","500","bwe","Diagnostic practice","","f","","Diagnostic practice","15","-84","true","false","true","prac equal","LEFT","LEFT","f","1","true","","","",""
"","html-keyboard-response","38","2283065","0.0-70.0","stu9gaoa","1536","864","","","","","","","","","","","null","+","Fixation - short","","null","","","","","","","","","","","","","","","","",""
"","instructions","39","2291106","0.0-71.0","stu9gaoa","","","","","","","","","","","","[{""page_index"":0,""viewing_time"":8040}]","8041","Instructions","Final experiment explanation","","","","","","","","","","","","","","","","","","",""
"","html-keyboard-response","40","2298581","0.0-72.0","stu9gaoa","","","","","","","","","","","","","5969","If geb press LEFT | If cnl press RIGHT","Inducer practice",""," ","","Practice","","","","","","","","","","","","","","",""
"","html-keyboard-response","41","2299334","0.0-73.0","stu9gaoa","1536","864","","","","","","","","","","","null","+","Fixation - short","","null","","","","","","","","","","","","","","","","",""
"","html-keyboard-response","42","2300011","0.0-74.0","stu9gaoa","","","","","","","","","","","","","676","cnl","Inducer practice","","j","","Practice","","","","true","","","","","j","1","","true","RIGHT","",""
"","html-keyboard-response","43","2300773","0.0-77.0","stu9gaoa","1536","864","","","","","","","","","","","null","+","Fixation - short","","null","","","","","","","","","","","","","","","","",""
"","html-keyboard-response","44","2305202","0.0-78.0","stu9gaoa","","","","","","","","","","","","","4428","If hlb press LEFT | If ecl press RIGHT","Inducer practice",""," ","","Practice","","","","","","","","","","","","","","",""
"","html-keyboard-response","45","2305963","0.0-79.0","stu9gaoa","1536","864","","","","","","","","","","","null","+","Fixation - short","","null","","","","","","","","","","","","","","","","",""
"","html-keyboard-response","46","2306642","0.0-80.0","stu9gaoa","","","","","","","","","","","","","679","hlb","Inducer practice","","f","","Practice","","","","true","","","","","f","1","","true","LEFT","",""
"","html-keyboard-response","47","2307399","0.0-83.0","stu9gaoa","1536","864","","","","","","","","","","","null","+","Fixation - short","","null","","","","","","","","","","","","","","","","",""
"","html-keyboard-response","48","2310082","0.0-84.0","stu9gaoa","","","","","","","","","","","","","2683","If ivr press LEFT | If cui press RIGHT","Inducer practice",""," ","","Practice","","","","","","","","","","","","","","",""
"","html-keyboard-response","49","2310835","0.0-85.0","stu9gaoa","1536","864","","","","","","","","","","","null","+","Fixation - short","","null","","","","","","","","","","","","","","","","",""
"","html-keyboard-response","50","2311570","0.0-86.0","stu9gaoa","","","","","","","","","","","","","734","cui","Inducer practice","","j","","Practice","","","","true","","","","","j","1","","true","RIGHT","",""
"","html-keyboard-response","51","2312340","0.0-89.0","stu9gaoa","1536","864","","","","","","","","","","","null","+","Fixation - short","","null","","","","","","","","","","","","","","","","",""
"","html-keyboard-response","52","2313978","0.0-90.0","stu9gaoa","","","","","","","","","","","","","1637","If hfs press LEFT | If swr press RIGHT","Inducer practice",""," ","","Practice","","","","","","","","","","","","","","",""
"","html-keyboard-response","53","2314737","0.0-91.0","stu9gaoa","1536","864","","","","","","","","","","","null","+","Fixation - short","","null","","","","","","","","","","","","","","","","",""
"","html-keyboard-response","54","2315826","0.0-92.0","stu9gaoa","","","","","","","","","","","","","1088","hfs","Inducer practice","","j","","Practice","","","","true","","","","","f","0","","true","LEFT","",""
"","call-function","55","2315827","0.0-94.0-0.0","stu9gaoa","","","","","","","","","","","","","","","","","","","","","","","","","","","","","","","","","",""
"","html-keyboard-response","56","2316134","0.0-94.0-1.0","stu9gaoa","1536","864","","","","","","","","","","","null","Wrong","Feedback","","null","","","","","","","","","","","","","","","","",""
"","call-function","57","2316134","0.0-94.0-2.0","stu9gaoa","","","","","","","","","","","","","","","","","","","","","","","","","","","","","","","","","",""
"","html-keyboard-response","58","2316898","0.0-95.0","stu9gaoa","1536","864","","","","","","","","","","","null","+","Fixation - short","","null","","","","","","","","","","","","","","","","",""
"","html-keyboard-response","59","2318026","0.0-96.0","stu9gaoa","","","","","","","","","","","","","1127","If faq press LEFT | If zpl press RIGHT","Inducer practice",""," ","","Practice","","","","","","","","","","","","","","",""
"","html-keyboard-response","60","2318787","0.0-97.0","stu9gaoa","1536","864","","","","","","","","","","","null","+","Fixation - short","","null","","","","","","","","","","","","","","","","",""
"","html-keyboard-response","61","2319346","0.0-98.0","stu9gaoa","","","","","","","","","","","","","559","zpl","Inducer practice","","j","","Practice","","","","true","","","","","j","1","","true","RIGHT","",""
"","html-keyboard-response","62","2320101","0.0-101.0","stu9gaoa","1536","864","","","","","","","","","","","null","+","Fixation - short","","null","","","","","","","","","","","","","","","","",""
"","html-keyboard-response","63","2321370","0.0-102.0","stu9gaoa","","","","","","","","","","","","","1269","If ume press LEFT | If ila press RIGHT","Inducer practice",""," ","","Practice","","","","","","","","","","","","","","",""
"","html-keyboard-response","64","2322139","0.0-103.0","stu9gaoa","1536","864","","","","","","","","","","","null","+","Fixation - short","","null","","","","","","","","","","","","","","","","",""
"","html-keyboard-response","65","2322634","0.0-104.0","stu9gaoa","","","","","","","","","","","","","495","ume","Inducer practice","","f","","Practice","","","","true","","","","","f","1","","true","LEFT","",""
"","html-keyboard-response","66","2323400","0.0-107.0","stu9gaoa","1536","864","","","","","","","","","","","null","+","Fixation - short","","null","","","","","","","","","","","","","","","","",""
"","instructions","67","2352813","0.0-108.0","stu9gaoa","","","","","","","","","","","","[{""page_index"":0,""viewing_time"":29402}]","29402","Instructions","Final experiment explanation","","","","","","","","","","","","","","","","","","",""
"","html-keyboard-response","68","2357029","0.0-109.0","stu9gaoa","","","","","","","","","","","","","2714","If gso press LEFT | If bsh press RIGHT","Cue practice",""," ","","Practice","","","","","","","","","","","","","","",""
"","html-keyboard-response","69","2357793","0.0-110.0","stu9gaoa","1536","864","","","","","","","","","","","null","+","Fixation - short","","null","","","","","","","","","","","","","","","","",""
"","html-keyboard-response","70","2358317","0.0-111.0","stu9gaoa","","","","","","","","","","","","","523","bsh","Cue practice","","j","","Practice","0","13","false","false","true","both pre & post","RIGHT","LEFT","f","0","false","","","",""
"","call-function","71","2358317","0.0-113.0-0.0","stu9gaoa","","","","","","","","","","","","","","","","","","","","","","","","","","","","","","","","","",""
"","html-keyboard-response","72","2358623","0.0-113.0-1.0","stu9gaoa","1536","864","","","","","","","","","","","null","Wrong","Feedback","","null","","","","","","","","","","","","","","","","",""
"","call-function","73","2358624","0.0-113.0-2.0","stu9gaoa","","","","","","","","","","","","","","","","","","","","","","","","","","","","","","","","","",""
"","html-keyboard-response","74","2359378","0.0-114.0","stu9gaoa","1536","864","","","","","","","","","","","null","+","Fixation - short","","null","","","","","","","","","","","","","","","","",""
"","html-keyboard-response","75","2360357","0.0-115.0","stu9gaoa","","","","","","","","","","","","","978","gso","Cue practice","","f","","Practice","1","13","false","false","true","both pre & post","LEFT","LEFT","f","1","true","","","",""
"","html-keyboard-response","76","2361123","0.0-118.0","stu9gaoa","1536","864","","","","","","","","","","","null","+","Fixation - short","","null","","","","","","","","","","","","","","","","",""
"","html-keyboard-response","77","2361805","0.0-119.0","stu9gaoa","","","","","","","","","","","","","681","gso","Cue practice","","f","","Practice","2","13","false","false","true","both pre & post","LEFT","LEFT","f","1","true","","","",""
"","html-keyboard-response","78","2362556","0.0-122.0","stu9gaoa","1536","864","","","","","","","","","","","null","+","Fixation - short","","null","","","","","","","","","","","","","","","","",""
"","html-keyboard-response","79","2363133","0.0-123.0","stu9gaoa","","","","","","","","","","","","","576","gso","Cue practice","","f","","Practice","3","13","false","false","true","both pre & post","LEFT","LEFT","f","1","true","","","",""
"","html-keyboard-response","80","2363892","0.0-126.0","stu9gaoa","1536","864","","","","","","","","","","","null","+","Fixation - short","","null","","","","","","","","","","","","","","","","",""
"","html-keyboard-response","81","2364757","0.0-127.0","stu9gaoa","","","","","","","","","","","","","864","bsh","Cue practice","","j","","Practice","4","13","false","false","false","both pre & post","RIGHT","RIGHT","j","1","true","","","",""
"","html-keyboard-response","82","2365523","0.0-130.0","stu9gaoa","1536","864","","","","","","","","","","","null","+","Fixation - short","","null","","","","","","","","","","","","","","","","",""
"","html-keyboard-response","83","2366221","0.0-131.0","stu9gaoa","","","","","","","","","","","","","698","bsh","Cue practice","","j","","Practice","5","13","false","false","false","both pre & post","RIGHT","RIGHT","j","1","true","","","",""
"","html-keyboard-response","84","2366989","0.0-134.0","stu9gaoa","1536","864","","","","","","","","","","","null","+","Fixation - short","","null","","","","","","","","","","","","","","","","",""
"","html-keyboard-response","85","2367718","0.0-135.0","stu9gaoa","","","","","","","","","","","","","728","bsh","Cue practice","","j","","Practice","6","13","false","false","false","both pre & post","RIGHT","RIGHT","j","1","true","","","",""
"","html-keyboard-response","86","2368476","0.0-138.0","stu9gaoa","1536","864","","","","","","","","","","","null","+","Fixation - short","","null","","","","","","","","","","","","","","","","",""
"","html-keyboard-response","87","2369845","0.0-139.0","stu9gaoa","","","","","","","","","","","","","1368","gso","Cue practice","","j","","Practice","7","13","false","false","false","both pre & post","LEFT","RIGHT","j","1","false","","","",""
"","html-keyboard-response","88","2370611","0.0-142.0","stu9gaoa","1536","864","","","","","","","","","","","null","+","Fixation - short","","null","","","","","","","","","","","","","","","","",""
"","html-keyboard-response","89","2371541","0.0-143.0","stu9gaoa","","","","","","","","","","","","","929","gso","Cue practice","","j","","Practice","8","13","false","false","false","both pre & post","LEFT","RIGHT","j","1","false","","","",""
"","html-keyboard-response","90","2372304","0.0-146.0","stu9gaoa","1536","864","","","","","","","","","","","null","+","Fixation - short","","null","","","","","","","","","","","","","","","","",""
"","html-keyboard-response","91","2373046","0.0-147.0","stu9gaoa","","","","","","","","","","","","","741","gso","Cue practice","","f","","Practice","9","13","false","false","true","both pre & post","LEFT","LEFT","f","1","true","","","",""
"","html-keyboard-response","92","2373811","0.0-150.0","stu9gaoa","1536","864","","","","","","","","","","","null","+","Fixation - short","","null","","","","","","","","","","","","","","","","",""
"","html-keyboard-response","93","2375070","0.0-151.0","stu9gaoa","","","","","","","","","","","","","1258","gso","Cue practice","","f","","Practice","10","13","false","false","true","both pre & post","LEFT","LEFT","f","1","true","","","",""
"","html-keyboard-response","94","2375822","0.0-154.0","stu9gaoa","1536","864","","","","","","","","","","","null","+","Fixation - short","","null","","","","","","","","","","","","","","","","",""
"","html-keyboard-response","95","2376349","0.0-155.0","stu9gaoa","","","","","","","","","","","","","526","gso","Cue practice","","f","","Practice","11","13","false","false","true","both pre & post","LEFT","LEFT","f","1","true","","","",""
"","html-keyboard-response","96","2377112","0.0-158.0","stu9gaoa","1536","864","","","","","","","","","","","null","+","Fixation - short","","null","","","","","","","","","","","","","","","","",""
"","html-keyboard-response","97","2377805","0.0-159.0","stu9gaoa","","","","","","","","","","","","","692","gso","Cue practice","","j","","Practice","12","13","false","false","false","both pre & post","LEFT","RIGHT","j","1","false","","","",""
"","html-keyboard-response","98","2378568","0.0-162.0","stu9gaoa","1536","864","","","","","","","","","","","null","+","Fixation - short","","null","","","","","","","","","","","","","","","","",""
"","canvas-keyboard-response","99","2379843","0.0-163.0","stu9gaoa","","","","","","","","","","","","","null","Cue","Cue","","null","","Practice","12","","","false","","","","","","","","","","",""
"","html-keyboard-response","100","2380595","0.0-164.0","stu9gaoa","1536","864","","","","","","","","","","","null","+","Fixation - short","","null","","","","","","","","","","","","","","","","",""
"","html-keyboard-response","101","2381773","0.0-165.0","stu9gaoa","","","","","","","","","","","","","1178","gso","Cue practice","","f","","Practice","13","13","true","false","true","both pre & post","LEFT","LEFT","f","1","true","","","",""
"","html-keyboard-response","102","2382539","0.0-168.0","stu9gaoa","1536","864","","","","","","","","","","","null","+","Fixation - short","","null","","","","","","","","","","","","","","","","",""
"","html-keyboard-response","103","2383302","0.0-169.0","stu9gaoa","","","","","","","","","","","","","763","gso","Cue practice","","j","","Practice","14","13","true","false","false","both pre & post","LEFT","RIGHT","j","1","false","","","",""
"","html-keyboard-response","104","2384064","0.0-172.0","stu9gaoa","1536","864","","","","","","","","","","","null","+","Fixation - short","","null","","","","","","","","","","","","","","","","",""
"","html-keyboard-response","105","2384933","0.0-173.0","stu9gaoa","","","","","","","","","","","","","869","gso","Cue practice","","f","","Practice","15","13","true","false","true","both pre & post","LEFT","LEFT","f","1","true","","","",""
"","html-keyboard-response","106","2385688","0.0-176.0","stu9gaoa","1536","864","","","","","","","","","","","null","+","Fixation - short","","null","","","","","","","","","","","","","","","","",""
"","html-keyboard-response","107","2387110","0.0-177.0","stu9gaoa","","","","","","","","","","","","","1422","bsh","Inducer practice","","j","","Practice","","","","true","","","","","j","1","","false","RIGHT","",""
"","html-keyboard-response","108","2387868","0.0-180.0","stu9gaoa","1536","864","","","","","","","","","","","null","+","Fixation - short","","null","","","","","","","","","","","","","","","","",""
"","instructions","109","2392844","0.0-181.0","stu9gaoa","","","","","","","","","","","","[{""page_index"":0,""viewing_time"":4976}]","4976","End practice","End of practice","","","","","","","","","","","","","","","","","","",""
"","html-keyboard-response","110","2395867","0.0-182.0","stu9gaoa","1536","864","","","","","","","","","","","null","+","Fixation - long","","null","","","","","","","","","","","","","","","","",""
"","html-keyboard-response","111","2398333","0.0-183.0","stu9gaoa","","","","","","","","","","","","","2466","If ebe press LEFT | If amb press RIGHT","Inducer instructions",""," ","","0","","","","","","","","","","","","","","",""
"","html-keyboard-response","112","2399085","0.0-184.0","stu9gaoa","1536","864","","","","","","","","","","","null","+","Fixation - short","","null","","","","","","","","","","","","","","","","",""
"","html-keyboard-response","113","2400054","0.0-185.0","stu9gaoa","","","","","","","","","","","","","968","amb","Diagnostic trial","","f","","0","0","7","false","false","true","both pre & post","RIGHT","LEFT","f","1","false","","","",""
"","html-keyboard-response","114","2400811","0.0-188.0","stu9gaoa","1536","864","","","","","","","","","","","null","+","Fixation - short","","null","","","","","","","","","","","","","","","","",""
"","html-keyboard-response","115","2402069","0.0-189.0","stu9gaoa","","","","","","","","","","","","","1258","ebe","Diagnostic trial","","f","","0","1","7","false","false","true","both pre & post","LEFT","LEFT","f","1","true","","","",""
"","html-keyboard-response","116","2402822","0.0-192.0","stu9gaoa","1536","864","","","","","","","","","","","null","+","Fixation - short","","null","","","","","","","","","","","","","","","","",""
"","html-keyboard-response","117","2404158","0.0-193.0","stu9gaoa","","","","","","","","","","","","","1335","ebe","Diagnostic trial","","f","","0","2","7","false","false","true","both pre & post","LEFT","LEFT","f","1","true","","","",""
"","html-keyboard-response","118","2404910","0.0-196.0","stu9gaoa","1536","864","","","","","","","","","","","null","+","Fixation - short","","null","","","","","","","","","","","","","","","","",""
"","html-keyboard-response","119","2405709","0.0-197.0","stu9gaoa","","","","","","","","","","","","","799","ebe","Diagnostic trial","","f","","0","3","7","false","false","true","both pre & post","LEFT","LEFT","f","1","true","","","",""
"","html-keyboard-response","120","2406466","0.0-200.0","stu9gaoa","1536","864","","","","","","","","","","","null","+","Fixation - short","","null","","","","","","","","","","","","","","","","",""
"","html-keyboard-response","121","2407286","0.0-201.0","stu9gaoa","","","","","","","","","","","","","819","amb","Diagnostic trial","","j","","0","4","7","false","false","false","both pre & post","RIGHT","RIGHT","j","1","true","","","",""
"","html-keyboard-response","122","2408044","0.0-204.0","stu9gaoa","1536","864","","","","","","","","","","","null","+","Fixation - short","","null","","","","","","","","","","","","","","","","",""
"","html-keyboard-response","123","2410046","0.0-205.0","stu9gaoa","","","","","","","","","","","","","null","ebe","Diagnostic trial","","null","","0","5","7","false","false","false","both pre & post","LEFT","RIGHT","j","NaN","false","","","",""
"","call-function","124","2410047","0.0-206.0-0.0","stu9gaoa","","","","","","","","","","","","","","","","","","","","","","","","","","","","","","","","","",""
"","html-keyboard-response","125","2410358","0.0-206.0-1.0","stu9gaoa","1536","864","","","","","","","","","","","null","Slow","Feedback","","null","","","","","","","","","","","","","","","","",""
"","call-function","126","2410358","0.0-206.0-2.0","stu9gaoa","","","","","","","","","","","","","","","","","","","","","","","","","","","","","","","","","",""
"","html-keyboard-response","127","2411110","0.0-208.0","stu9gaoa","1536","864","","","","","","","","","","","null","+","Fixation - short","","null","","","","","","","","","","","","","","","","",""
"","html-keyboard-response","128","2411845","0.0-209.0","stu9gaoa","","","","","","","","","","","","","735","amb","Diagnostic trial","","j","","0","6","7","false","false","false","both pre & post","RIGHT","RIGHT","j","1","true","","","",""
"","html-keyboard-response","129","2412609","0.0-212.0","stu9gaoa","1536","864","","","","","","","","","","","null","+","Fixation - short","","null","","","","","","","","","","","","","","","","",""
"","canvas-keyboard-response","130","2413872","0.0-213.0","stu9gaoa","","","","","","","","","","","","","null","Cue","Cue","","null","","0","6","","","false","","","","","","","","","","",""
"","html-keyboard-response","131","2414645","0.0-214.0","stu9gaoa","1536","864","","","","","","","","","","","null","+","Fixation - short","","null","","","","","","","","","","","","","","","","",""
"","html-keyboard-response","132","2416079","0.0-215.0","stu9gaoa","","","","","","","","","","","","","1433","ebe","Diagnostic trial","","j","","0","7","7","true","false","false","both pre & post","LEFT","RIGHT","j","1","false","","","",""
"","html-keyboard-response","133","2416835","0.0-218.0","stu9gaoa","1536","864","","","","","","","","","","","null","+","Fixation - short","","null","","","","","","","","","","","","","","","","",""
"","html-keyboard-response","134","2417447","0.0-219.0","stu9gaoa","","","","","","","","","","","","","612","ebe","Diagnostic trial","","f","","0","8","7","true","false","true","both pre & post","LEFT","LEFT","f","1","true","","","",""
"","html-keyboard-response","135","2418210","0.0-222.0","stu9gaoa","1536","864","","","","","","","","","","","null","+","Fixation - short","","null","","","","","","","","","","","","","","","","",""
"","html-keyboard-response","136","2419295","0.0-223.0","stu9gaoa","","","","","","","","","","","","","1084","amb","Diagnostic trial","","f","","0","9","7","true","false","true","both pre & post","RIGHT","LEFT","f","1","false","","","",""
"","html-keyboard-response","137","2420053","0.0-226.0","stu9gaoa","1536","864","","","","","","","","","","","null","+","Fixation - short","","null","","","","","","","","","","","","","","","","",""
"","html-keyboard-response","138","2420544","0.0-227.0","stu9gaoa","","","","","","","","","","","","","490","amb","Diagnostic trial","","f","","0","10","7","true","false","true","both pre & post","RIGHT","LEFT","f","1","false","","","",""
"","html-keyboard-response","139","2421295","0.0-230.0","stu9gaoa","1536","864","","","","","","","","","","","null","+","Fixation - short","","null","","","","","","","","","","","","","","","","",""
"","html-keyboard-response","140","2422366","0.0-231.0","stu9gaoa","","","","","","","","","","","","","1071","ebe","Inducer trial","","j","","0","","","","true","","","","","f","0","","false","LEFT","",""
"","call-function","141","2422367","0.0-233.0-0.0","stu9gaoa","","","","","","","","","","","","","","","","","","","","","","","","","","","","","","","","","",""
"","html-keyboard-response","142","2422672","0.0-233.0-1.0","stu9gaoa","1536","864","","","","","","","","","","","null","Wrong","Feedback","","null","","","","","","","","","","","","","","","","",""
"","call-function","143","2422673","0.0-233.0-2.0","stu9gaoa","","","","","","","","","","","","","","","","","","","","","","","","","","","","","","","","","",""
"","html-keyboard-response","144","2423428","0.0-234.0","stu9gaoa","1536","864","","","","","","","","","","","null","+","Fixation - short","","null","","","","","","","","","","","","","","","","",""
"","html-keyboard-response","145","2424950","0.0-235.0","stu9gaoa","","","","","","","","","","","","","1521","If frn press LEFT | If pxv press RIGHT","Inducer instructions",""," ","","1","","","","","","","","","","","","","","",""
"","html-keyboard-response","146","2425722","0.0-236.0","stu9gaoa","1536","864","","","","","","","","","","","null","+","Fixation - short","","null","","","","","","","","","","","","","","","","",""
"","html-keyboard-response","147","2426342","0.0-237.0","stu9gaoa","","","","","","","","","","","","","620","pxv","Diagnostic trial","","j","","1","0","11","false","false","false","both pre & post","RIGHT","RIGHT","j","1","true","","","",""
"","html-keyboard-response","148","2427094","0.0-240.0","stu9gaoa","1536","864","","","","","","","","","","","null","+","Fixation - short","","null","","","","","","","","","","","","","","","","",""
"","html-keyboard-response","149","2427646","0.0-241.0","stu9gaoa","","","","","","","","","","","","","551","pxv","Diagnostic trial","","f","","1","1","11","false","false","true","both pre & post","RIGHT","LEFT","f","1","false","","","",""
"","html-keyboard-response","150","2428398","0.0-244.0","stu9gaoa","1536","864","","","","","","","","","","","null","+","Fixation - short","","null","","","","","","","","","","","","","","","","",""
"","html-keyboard-response","151","2429502","0.0-245.0","stu9gaoa","","","","","","","","","","","","","1103","frn","Diagnostic trial","","f","","1","2","11","false","false","false","both pre & post","LEFT","RIGHT","j","0","false","","","",""
"","call-function","152","2429502","0.0-247.0-0.0","stu9gaoa","","","","","","","","","","","","","","","","","","","","","","","","","","","","","","","","","",""
"","html-keyboard-response","153","2429811","0.0-247.0-1.0","stu9gaoa","1536","864","","","","","","","","","","","null","Wrong","Feedback","","null","","","","","","","","","","","","","","","","",""
"","call-function","154","2429812","0.0-247.0-2.0","stu9gaoa","","","","","","","","","","","","","","","","","","","","","","","","","","","","","","","","","",""
"","html-keyboard-response","155","2430574","0.0-248.0","stu9gaoa","1536","864","","","","","","","","","","","null","+","Fixation - short","","null","","","","","","","","","","","","","","","","",""
"","html-keyboard-response","156","2431415","0.0-249.0","stu9gaoa","","","","","","","","","","","","","841","pxv","Diagnostic trial","","f","","1","3","11","false","false","true","both pre & post","RIGHT","LEFT","f","1","false","","","",""
"","html-keyboard-response","157","2432172","0.0-252.0","stu9gaoa","1536","864","","","","","","","","","","","null","+","Fixation - short","","null","","","","","","","","","","","","","","","","",""
"","html-keyboard-response","158","2433542","0.0-253.0","stu9gaoa","","","","","","","","","","","","","1370","frn","Diagnostic trial","","f","","1","4","11","false","false","false","both pre & post","LEFT","RIGHT","j","0","false","","","",""
"","call-function","159","2433542","0.0-255.0-0.0","stu9gaoa","","","","","","","","","","","","","","","","","","","","","","","","","","","","","","","","","",""
"","html-keyboard-response","160","2433845","0.0-255.0-1.0","stu9gaoa","1536","864","","","","","","","","","","","null","Wrong","Feedback","","null","","","","","","","","","","","","","","","","",""
"","call-function","161","2433845","0.0-255.0-2.0","stu9gaoa","","","","","","","","","","","","","","","","","","","","","","","","","","","","","","","","","",""
"","html-keyboard-response","162","2434610","0.0-256.0","stu9gaoa","1536","864","","","","","","","","","","","null","+","Fixation - short","","null","","","","","","","","","","","","","","","","",""
"","html-keyboard-response","163","2435543","0.0-257.0","stu9gaoa","","","","","","","","","","","","","932","frn","Diagnostic trial","","j","","1","5","11","false","false","false","both pre & post","LEFT","RIGHT","j","1","false","","","",""
"","html-keyboard-response","164","2436306","0.0-260.0","stu9gaoa","1536","864","","","","","","","","","","","null","+","Fixation - short","","null","","","","","","","","","","","","","","","","",""
"","html-keyboard-response","165","2437303","0.0-261.0","stu9gaoa","","","","","","","","","","","","","997","pxv","Diagnostic trial","","j","","1","6","11","false","false","false","both pre & post","RIGHT","RIGHT","j","1","true","","","",""
"","html-keyboard-response","166","2438069","0.0-264.0","stu9gaoa","1536","864","","","","","","","","","","","null","+","Fixation - short","","null","","","","","","","","","","","","","","","","",""
"","html-keyboard-response","167","2438520","0.0-265.0","stu9gaoa","","","","","","","","","","","","","450","frn","Diagnostic trial","","f","","1","7","11","false","false","true","both pre & post","LEFT","LEFT","f","1","true","","","",""
"","html-keyboard-response","168","2439278","0.0-268.0","stu9gaoa","1536","864","","","","","","","","","","","null","+","Fixation - short","","null","","","","","","","","","","","","","","","","",""
"","html-keyboard-response","169","2440183","0.0-269.0","stu9gaoa","","","","","","","","","","","","","905","frn","Diagnostic trial","","f","","1","8","11","false","false","true","both pre & post","LEFT","LEFT","f","1","true","","","",""
"","html-keyboard-response","170","2440948","0.0-272.0","stu9gaoa","1536","864","","","","","","","","","","","null","+","Fixation - short","","null","","","","","","","","","","","","","","","","",""
"","html-keyboard-response","171","2441439","0.0-273.0","stu9gaoa","","","","","","","","","","","","","490","pxv","Diagnostic trial","","f","","1","9","11","false","false","true","both pre & post","RIGHT","LEFT","f","1","false","","","",""
"","html-keyboard-response","172","2442192","0.0-276.0","stu9gaoa","1536","864","","","","","","","","","","","null","+","Fixation - short","","null","","","","","","","","","","","","","","","","",""
"","html-keyboard-response","173","2442663","0.0-277.0","stu9gaoa","","","","","","","","","","","","","471","pxv","Diagnostic trial","","f","","1","10","11","false","false","true","both pre & post","RIGHT","LEFT","f","1","false","","","",""
"","html-keyboard-response","174","2443416","0.0-280.0","stu9gaoa","1536","864","","","","","","","","","","","null","+","Fixation - short","","null","","","","","","","","","","","","","","","","",""
"","canvas-keyboard-response","175","2444676","0.0-281.0","stu9gaoa","","","","","","","","","","","","","null","Cue","Cue","","null","","1","10","","","false","","","","","","","","","","",""
"","html-keyboard-response","176","2445439","0.0-282.0","stu9gaoa","1536","864","","","","","","","","","","","null","+","Fixation - short","","null","","","","","","","","","","","","","","","","",""
"","html-keyboard-response","177","2446478","0.0-283.0","stu9gaoa","","","","","","","","","","","","","1039","frn","Diagnostic trial","","j","","1","11","11","true","false","false","both pre & post","LEFT","RIGHT","j","1","false","","","",""
"","html-keyboard-response","178","2447233","0.0-286.0","stu9gaoa","1536","864","","","","","","","","","","","null","+","Fixation - short","","null","","","","","","","","","","","","","","","","",""
"","html-keyboard-response","179","2447958","0.0-287.0","stu9gaoa","","","","","","","","","","","","","724","pxv","Diagnostic trial","","f","","1","12","11","true","false","true","both pre & post","RIGHT","LEFT","f","1","false","","","",""
"","html-keyboard-response","180","2448716","0.0-290.0","stu9gaoa","1536","864","","","","","","","","","","","null","+","Fixation - short","","null","","","","","","","","","","","","","","","","",""
"","html-keyboard-response","181","2449542","0.0-291.0","stu9gaoa","","","","","","","","","","","","","826","frn","Diagnostic trial","","j","","1","13","11","true","false","false","both pre & post","LEFT","RIGHT","j","1","false","","","",""
"","html-keyboard-response","182","2450303","0.0-294.0","stu9gaoa","1536","864","","","","","","","","","","","null","+","Fixation - short","","null","","","","","","","","","","","","","","","","",""
"","html-keyboard-response","183","2450910","0.0-295.0","stu9gaoa","","","","","","","","","","","","","607","frn","Diagnostic trial","","j","","1","14","11","true","false","false","both pre & post","LEFT","RIGHT","j","1","false","","","",""
"","html-keyboard-response","184","2451678","0.0-298.0","stu9gaoa","1536","864","","","","","","","","","","","null","+","Fixation - short","","null","","","","","","","","","","","","","","","","",""
"","html-keyboard-response","185","2452615","0.0-299.0","stu9gaoa","","","","","","","","","","","","","936","frn","Inducer trial","","j","","1","","","","true","","","","","f","0","","false","LEFT","",""
"","call-function","186","2452616","0.0-301.0-0.0","stu9gaoa","","","","","","","","","","","","","","","","","","","","","","","","","","","","","","","","","",""
"","html-keyboard-response","187","2452922","0.0-301.0-1.0","stu9gaoa","1536","864","","","","","","","","","","","null","Wrong","Feedback","","null","","","","","","","","","","","","","","","","",""
"","call-function","188","2452922","0.0-301.0-2.0","stu9gaoa","","","","","","","","","","","","","","","","","","","","","","","","","","","","","","","","","",""
"","html-keyboard-response","189","2453682","0.0-302.0","stu9gaoa","1536","864","","","","","","","","","","","null","+","Fixation - short","","null","","","","","","","","","","","","","","","","",""
"","html-keyboard-response","190","2455591","0.0-303.0","stu9gaoa","","","","","","","","","","","","","1908","If edc press LEFT | If ndm press RIGHT","Inducer instructions",""," ","","2","","","","","","","","","","","","","","",""
"","html-keyboard-response","191","2456356","0.0-304.0","stu9gaoa","1536","864","","","","","","","","","","","null","+","Fixation - short","","null","","","","","","","","","","","","","","","","",""
"","html-keyboard-response","192","2457134","0.0-305.0","stu9gaoa","","","","","","","","","","","","","778","ndm","Diagnostic trial","","j","","2","0","11","false","false","false","both pre & post","RIGHT","RIGHT","j","1","true","","","",""
"","html-keyboard-response","193","2457894","0.0-308.0","stu9gaoa","1536","864","","","","","","","","","","","null","+","Fixation - short","","null","","","","","","","","","","","","","","","","",""
"","html-keyboard-response","194","2458710","0.0-309.0","stu9gaoa","","","","","","","","","","","","","816","edc","Diagnostic trial","","f","","2","1","11","false","false","true","both pre & post","LEFT","LEFT","f","1","true","","","",""
"","html-keyboard-response","195","2459469","0.0-312.0","stu9gaoa","1536","864","","","","","","","","","","","null","+","Fixation - short","","null","","","","","","","","","","","","","","","","",""
"","html-keyboard-response","196","2460110","0.0-313.0","stu9gaoa","","","","","","","","","","","","","640","edc","Diagnostic trial","","f","","2","2","11","false","false","true","both pre & post","LEFT","LEFT","f","1","true","","","",""
"","html-keyboard-response","197","2460887","0.0-316.0","stu9gaoa","1536","864","","","","","","","","","","","null","+","Fixation - short","","null","","","","","","","","","","","","","","","","",""
"","html-keyboard-response","198","2461638","0.0-317.0","stu9gaoa","","","","","","","","","","","","","750","ndm","Diagnostic trial","","j","","2","3","11","false","false","false","both pre & post","RIGHT","RIGHT","j","1","true","","","",""
"","html-keyboard-response","199","2462396","0.0-320.0","stu9gaoa","1536","864","","","","","","","","","","","null","+","Fixation - short","","null","","","","","","","","","","","","","","","","",""
"","html-keyboard-response","200","2462895","0.0-321.0","stu9gaoa","","","","","","","","","","","","","499","edc","Diagnostic trial","","f","","2","4","11","false","false","true","both pre & post","LEFT","LEFT","f","1","true","","","",""
"","html-keyboard-response","201","2463647","0.0-324.0","stu9gaoa","1536","864","","","","","","","","","","","null","+","Fixation - short","","null","","","","","","","","","","","","","","","","",""
"","html-keyboard-response","202","2464383","0.0-325.0","stu9gaoa","","","","","","","","","","","","","735","ndm","Diagnostic trial","","j","","2","5","11","false","false","false","both pre & post","RIGHT","RIGHT","j","1","true","","","",""
"","html-keyboard-response","203","2465138","0.0-328.0","stu9gaoa","1536","864","","","","","","","","","","","null","+","Fixation - short","","null","","","","","","","","","","","","","","","","",""
"","html-keyboard-response","204","2465735","0.0-329.0","stu9gaoa","","","","","","","","","","","","","597","edc","Diagnostic trial","","f","","2","6","11","false","false","true","both pre & post","LEFT","LEFT","f","1","true","","","",""
"","html-keyboard-response","205","2466498","0.0-332.0","stu9gaoa","1536","864","","","","","","","","","","","null","+","Fixation - short","","null","","","","","","","","","","","","","","","","",""
"","html-keyboard-response","206","2467671","0.0-333.0","stu9gaoa","","","","","","","","","","","","","1172","ndm","Diagnostic trial","","f","","2","7","11","false","false","true","both pre & post","RIGHT","LEFT","f","1","false","","","",""
"","html-keyboard-response","207","2468435","0.0-336.0","stu9gaoa","1536","864","","","","","","","","","","","null","+","Fixation - short","","null","","","","","","","","","","","","","","","","",""
"","html-keyboard-response","208","2469046","0.0-337.0","stu9gaoa","","","","","","","","","","","","","611","edc","Diagnostic trial","","f","","2","8","11","false","false","false","both pre & post","LEFT","RIGHT","j","0","false","","","",""
"","call-function","209","2469047","0.0-339.0-0.0","stu9gaoa","","","","","","","","","","","","","","","","","","","","","","","","","","","","","","","","","",""
"","html-keyboard-response","210","2469361","0.0-339.0-1.0","stu9gaoa","1536","864","","","","","","","","","","","null","Wrong","Feedback","","null","","","","","","","","","","","","","","","","",""
"","call-function","211","2469361","0.0-339.0-2.0","stu9gaoa","","","","","","","","","","","","","","","","","","","","","","","","","","","","","","","","","",""
"","html-keyboard-response","212","2470117","0.0-340.0","stu9gaoa","1536","864","","","","","","","","","","","null","+","Fixation - short","","null","","","","","","","","","","","","","","","","",""
"","html-keyboard-response","213","2471471","0.0-341.0","stu9gaoa","","","","","","","","","","","","","1353","ndm","Diagnostic trial","","j","","2","9","11","false","false","false","both pre & post","RIGHT","RIGHT","j","1","true","","","",""
"","html-keyboard-response","214","2472234","0.0-344.0","stu9gaoa","1536","864","","","","","","","","","","","null","+","Fixation - short","","null","","","","","","","","","","","","","","","","",""
"","html-keyboard-response","215","2473215","0.0-345.0","stu9gaoa","","","","","","","","","","","","","980","ndm","Diagnostic trial","","f","","2","10","11","false","false","true","both pre & post","RIGHT","LEFT","f","1","false","","","",""
"","html-keyboard-response","216","2473978","0.0-348.0","stu9gaoa","1536","864","","","","","","","","","","","null","+","Fixation - short","","null","","","","","","","","","","","","","","","","",""
"","canvas-keyboard-response","217","2475249","0.0-349.0","stu9gaoa","","","","","","","","","","","","","null","Cue","Cue","","null","","2","10","","","false","","","","","","","","","","",""
"","html-keyboard-response","218","2476005","0.0-350.0","stu9gaoa","1536","864","","","","","","","","","","","null","+","Fixation - short","","null","","","","","","","","","","","","","","","","",""
"","html-keyboard-response","219","2476785","0.0-351.0","stu9gaoa","","","","","","","","","","","","","779","ndm","Diagnostic trial","","j","","2","11","11","true","false","false","both pre & post","RIGHT","RIGHT","j","1","true","","","",""
"","html-keyboard-response","220","2477546","0.0-354.0","stu9gaoa","1536","864","","","","","","","","","","","null","+","Fixation - short","","null","","","","","","","","","","","","","","","","",""
"","html-keyboard-response","221","2478433","0.0-355.0","stu9gaoa","","","","","","","","","","","","","886","ndm","Diagnostic trial","","f","","2","12","11","true","false","true","both pre & post","RIGHT","LEFT","f","1","false","","","",""
"","html-keyboard-response","222","2479201","0.0-358.0","stu9gaoa","1536","864","","","","","","","","","","","null","+","Fixation - short","","null","","","","","","","","","","","","","","","","",""
"","html-keyboard-response","223","2480192","0.0-359.0","stu9gaoa","","","","","","","","","","","","","990","ndm","Inducer trial","","j","","2","","","","true","","","","","j","1","","false","RIGHT","",""
"","html-keyboard-response","224","2480952","0.0-362.0","stu9gaoa","1536","864","","","","","","","","","","","null","+","Fixation - short","","null","","","","","","","","","","","","","","","","",""
"","html-keyboard-response","225","2482633","0.0-363.0","stu9gaoa","","","","","","","","","","","","","1680","If eeu press LEFT | If csp press RIGHT","Inducer instructions",""," ","","3","","","","","","","","","","","","","","",""
"","html-keyboard-response","226","2483401","0.0-364.0","stu9gaoa","1536","864","","","","","","","","","","","null","+","Fixation - short","","null","","","","","","","","","","","","","","","","",""
"","html-keyboard-response","227","2484024","0.0-365.0","stu9gaoa","","","","","","","","","","","","","623","csp","Diagnostic trial","","j","","3","0","5","false","false","true","both pre & post","RIGHT","LEFT","f","0","false","","","",""
"","call-function","228","2484025","0.0-367.0-0.0","stu9gaoa","","","","","","","","","","","","","","","","","","","","","","","","","","","","","","","","","",""
"","html-keyboard-response","229","2484336","0.0-367.0-1.0","stu9gaoa","1536","864","","","","","","","","","","","null","Wrong","Feedback","","null","","","","","","","","","","","","","","","","",""
"","call-function","230","2484337","0.0-367.0-2.0","stu9gaoa","","","","","","","","","","","","","","","","","","","","","","","","","","","","","","","","","",""
"","html-keyboard-response","231","2485109","0.0-368.0","stu9gaoa","1536","864","","","","","","","","","","","null","+","Fixation - short","","null","","","","","","","","","","","","","","","","",""
"","html-keyboard-response","232","2486120","0.0-369.0","stu9gaoa","","","","","","","","","","","","","1010","eeu","Diagnostic trial","","f","","3","1","5","false","false","false","both pre & post","LEFT","RIGHT","j","0","false","","","",""
"","call-function","233","2486120","0.0-371.0-0.0","stu9gaoa","","","","","","","","","","","","","","","","","","","","","","","","","","","","","","","","","",""
"","html-keyboard-response","234","2486432","0.0-371.0-1.0","stu9gaoa","1536","864","","","","","","","","","","","null","Wrong","Feedback","","null","","","","","","","","","","","","","","","","",""
"","call-function","235","2486433","0.0-371.0-2.0","stu9gaoa","","","","","","","","","","","","","","","","","","","","","","","","","","","","","","","","","",""
"","html-keyboard-response","236","2487185","0.0-372.0","stu9gaoa","1536","864","","","","","","","","","","","null","+","Fixation - short","","null","","","","","","","","","","","","","","","","",""
"","html-keyboard-response","237","2488112","0.0-373.0","stu9gaoa","","","","","","","","","","","","","926","eeu","Diagnostic trial","","f","","3","2","5","false","false","false","both pre & post","LEFT","RIGHT","j","0","false","","","",""
"","call-function","238","2488112","0.0-375.0-0.0","stu9gaoa","","","","","","","","","","","","","","","","","","","","","","","","","","","","","","","","","",""
"","html-keyboard-response","239","2488422","0.0-375.0-1.0","stu9gaoa","1536","864","","","","","","","","","","","null","Wrong","Feedback","","null","","","","","","","","","","","","","","","","",""
"","call-function","240","2488423","0.0-375.0-2.0","stu9gaoa","","","","","","","","","","","","","","","","","","","","","","","","","","","","","","","","","",""
"","html-keyboard-response","241","2489187","0.0-376.0","stu9gaoa","1536","864","","","","","","","","","","","null","+","Fixation - short","","null","","","","","","","","","","","","","","","","",""
"","html-keyboard-response","242","2490624","0.0-377.0","stu9gaoa","","","","","","","","","","","","","1436","csp","Diagnostic trial","","f","","3","3","5","false","false","true","both pre & post","RIGHT","LEFT","f","1","false","","","",""
"","html-keyboard-response","243","2491389","0.0-380.0","stu9gaoa","1536","864","","","","","","","","","","","null","+","Fixation - short","","null","","","","","","","","","","","","","","","","",""
"","html-keyboard-response","244","2491951","0.0-381.0","stu9gaoa","","","","","","","","","","","","","561","eeu","Diagnostic trial","","j","","3","4","5","false","false","true","both pre & post","LEFT","LEFT","f","0","true","","","",""
"","call-function","245","2491951","0.0-383.0-0.0","stu9gaoa","","","","","","","","","","","","","","","","","","","","","","","","","","","","","","","","","",""
"","html-keyboard-response","246","2492270","0.0-383.0-1.0","stu9gaoa","1536","864","","","","","","","","","","","null","Wrong","Feedback","","null","","","","","","","","","","","","","","","","",""
"","call-function","247","2492270","0.0-383.0-2.0","stu9gaoa","","","","","","","","","","","","","","","","","","","","","","","","","","","","","","","","","",""
"","html-keyboard-response","248","2493034","0.0-384.0","stu9gaoa","1536","864","","","","","","","","","","","null","+","Fixation - short","","null","","","","","","","","","","","","","","","","",""
"","canvas-keyboard-response","249","2494296","0.0-385.0","stu9gaoa","","","","","","","","","","","","","null","Cue","Cue","","null","","3","4","","","false","","","","","","","","","","",""
"","html-keyboard-response","250","2495062","0.0-386.0","stu9gaoa","1536","864","","","","","","","","","","","null","+","Fixation - short","","null","","","","","","","","","","","","","","","","",""
"","html-keyboard-response","251","2495792","0.0-387.0","stu9gaoa","","","","","","","","","","","","","729","eeu","Diagnostic trial","","f","","3","5","5","true","false","true","both pre & post","LEFT","LEFT","f","1","true","","","",""
"","html-keyboard-response","252","2496553","0.0-390.0","stu9gaoa","1536","864","","","","","","","","","","","null","+","Fixation - short","","null","","","","","","","","","","","","","","","","",""
"","html-keyboard-response","253","2496984","0.0-391.0","stu9gaoa","","","","","","","","","","","","","430","eeu","Diagnostic trial","","f","","3","6","5","true","false","true","both pre & post","LEFT","LEFT","f","1","true","","","",""
"","html-keyboard-response","254","2497736","0.0-394.0","stu9gaoa","1536","864","","","","","","","","","","","null","+","Fixation - short","","null","","","","","","","","","","","","","","","","",""
"","html-keyboard-response","255","2498408","0.0-395.0","stu9gaoa","","","","","","","","","","","","","671","eeu","Diagnostic trial","","f","","3","7","5","true","false","false","both pre & post","LEFT","RIGHT","j","0","false","","","",""
"","call-function","256","2498409","0.0-397.0-0.0","stu9gaoa","","","","","","","","","","","","","","","","","","","","","","","","","","","","","","","","","",""
"","html-keyboard-response","257","2498712","0.0-397.0-1.0","stu9gaoa","1536","864","","","","","","","","","","","null","Wrong","Feedback","","null","","","","","","","","","","","","","","","","",""
"","call-function","258","2498713","0.0-397.0-2.0","stu9gaoa","","","","","","","","","","","","","","","","","","","","","","","","","","","","","","","","","",""
"","html-keyboard-response","259","2499479","0.0-398.0","stu9gaoa","1536","864","","","","","","","","","","","null","+","Fixation - short","","null","","","","","","","","","","","","","","","","",""
"","html-keyboard-response","260","2500200","0.0-399.0","stu9gaoa","","","","","","","","","","","","","720","csp","Diagnostic trial","","j","","3","8","5","true","false","false","both pre & post","RIGHT","RIGHT","j","1","true","","","",""
"","html-keyboard-response","261","2500954","0.0-402.0","stu9gaoa","1536","864","","","","","","","","","","","null","+","Fixation - short","","null","","","","","","","","","","","","","","","","",""
"","html-keyboard-response","262","2501991","0.0-403.0","stu9gaoa","","","","","","","","","","","","","1037","csp","Inducer trial","","j","","3","","","","true","","","","","j","1","","false","RIGHT","",""
"","html-keyboard-response","263","2502753","0.0-406.0","stu9gaoa","1536","864","","","","","","","","","","","null","+","Fixation - short","","null","","","","","","","","","","","","","","","","",""
"","html-keyboard-response","264","2507504","0.0-407.0","stu9gaoa","","","","","","","","","","","","","4751","If imm press LEFT | If dij press RIGHT","Inducer instructions",""," ","","4","","","","","","","","","","","","","","",""
"","html-keyboard-response","265","2508264","0.0-408.0","stu9gaoa","1536","864","","","","","","","","","","","null","+","Fixation - short","","null","","","","","","","","","","","","","","","","",""
"","html-keyboard-response","266","2508937","0.0-409.0","stu9gaoa","","","","","","","","","","","","","672","dij","Diagnostic trial","","j","","4","0","4","false","false","false","both pre & post","RIGHT","RIGHT","j","1","true","","","",""
"","html-keyboard-response","267","2509707","0.0-412.0","stu9gaoa","1536","864","","","","","","","","","","","null","+","Fixation - short","","null","","","","","","","","","","","","","","","","",""
"","html-keyboard-response","268","2510600","0.0-413.0","stu9gaoa","","","","","","","","","","","","","892","imm","Diagnostic trial","","f","","4","1","4","false","false","true","both pre & post","LEFT","LEFT","f","1","true","","","",""
"","html-keyboard-response","269","2511365","0.0-416.0","stu9gaoa","1536","864","","","","","","","","","","","null","+","Fixation - short","","null","","","","","","","","","","","","","","","","",""
"","html-keyboard-response","270","2512152","0.0-417.0","stu9gaoa","","","","","","","","","","","","","786","dij","Diagnostic trial","","f","","4","2","4","false","false","true","both pre & post","RIGHT","LEFT","f","1","false","","","",""
"","html-keyboard-response","271","2512912","0.0-420.0","stu9gaoa","1536","864","","","","","","","","","","","null","+","Fixation - short","","null","","","","","","","","","","","","","","","","",""
"","html-keyboard-response","272","2514280","0.0-421.0","stu9gaoa","","","","","","","","","","","","","1367","imm","Diagnostic trial","","f","","4","3","4","false","false","false","both pre & post","LEFT","RIGHT","j","0","false","","","",""
"","call-function","273","2514280","0.0-423.0-0.0","stu9gaoa","","","","","","","","","","","","","","","","","","","","","","","","","","","","","","","","","",""
"","html-keyboard-response","274","2514588","0.0-423.0-1.0","stu9gaoa","1536","864","","","","","","","","","","","null","Wrong","Feedback","","null","","","","","","","","","","","","","","","","",""
"","call-function","275","2514588","0.0-423.0-2.0","stu9gaoa","","","","","","","","","","","","","","","","","","","","","","","","","","","","","","","","","",""
"","html-keyboard-response","276","2515353","0.0-424.0","stu9gaoa","1536","864","","","","","","","","","","","null","+","Fixation - short","","null","","","","","","","","","","","","","","","","",""
"","canvas-keyboard-response","277","2516617","0.0-425.0","stu9gaoa","","","","","","","","","","","","","null","Cue","Cue","","null","","4","3","","","false","","","","","","","","","","",""
"","html-keyboard-response","278","2517373","0.0-426.0","stu9gaoa","1536","864","","","","","","","","","","","null","+","Fixation - short","","null","","","","","","","","","","","","","","","","",""
"","html-keyboard-response","279","2518169","0.0-427.0","stu9gaoa","","","","","","","","","","","","","795","imm","Diagnostic trial","","f","","4","4","4","true","false","true","both pre & post","LEFT","LEFT","f","1","true","","","",""
"","html-keyboard-response","280","2518928","0.0-430.0","stu9gaoa","1536","864","","","","","","","","","","","null","+","Fixation - short","","null","","","","","","","","","","","","","","","","",""
"","html-keyboard-response","281","2519993","0.0-431.0","stu9gaoa","","","","","","","","","","","","","1064","dij","Diagnostic trial","","j","","4","5","4","true","false","true","both pre & post","RIGHT","LEFT","f","0","false","","","",""
"","call-function","282","2519993","0.0-433.0-0.0","stu9gaoa","","","","","","","","","","","","","","","","","","","","","","","","","","","","","","","","","",""
"","html-keyboard-response","283","2520304","0.0-433.0-1.0","stu9gaoa","1536","864","","","","","","","","","","","null","Wrong","Feedback","","null","","","","","","","","","","","","","","","","",""
"","call-function","284","2520305","0.0-433.0-2.0","stu9gaoa","","","","","","","","","","","","","","","","","","","","","","","","","","","","","","","","","",""
"","html-keyboard-response","285","2521079","0.0-434.0","stu9gaoa","1536","864","","","","","","","","","","","null","+","Fixation - short","","null","","","","","","","","","","","","","","","","",""
"","html-keyboard-response","286","2522104","0.0-435.0","stu9gaoa","","","","","","","","","","","","","1024","dij","Diagnostic trial","","j","","4","6","4","true","false","false","both pre & post","RIGHT","RIGHT","j","1","true","","","",""
"","html-keyboard-response","287","2522872","0.0-438.0","stu9gaoa","1536","864","","","","","","","","","","","null","+","Fixation - short","","null","","","","","","","","","","","","","","","","",""
"","html-keyboard-response","288","2523872","0.0-439.0","stu9gaoa","","","","","","","","","","","","","1000","dij","Inducer trial","","j","","4","","","","true","","","","","j","1","","false","RIGHT","",""
"","html-keyboard-response","289","2524630","0.0-442.0","stu9gaoa","1536","864","","","","","","","","","","","null","+","Fixation - short","","null","","","","","","","","","","","","","","","","",""
"","html-keyboard-response","290","2526040","0.0-443.0","stu9gaoa","","","","","","","","","","","","","1409","If mik press LEFT | If cta press RIGHT","Inducer instructions",""," ","","5","","","","","","","","","","","","","","",""
"","html-keyboard-response","291","2526795","0.0-444.0","stu9gaoa","1536","864","","","","","","","","","","","null","+","Fixation - short","","null","","","","","","","","","","","","","","","","",""
"","html-keyboard-response","292","2527760","0.0-445.0","stu9gaoa","","","","","","","","","","","","","965","cta","Diagnostic trial","","j","","5","0","7","false","false","false","both pre & post","RIGHT","RIGHT","j","1","true","","","",""
"","html-keyboard-response","293","2528515","0.0-448.0","stu9gaoa","1536","864","","","","","","","","","","","null","+","Fixation - short","","null","","","","","","","","","","","","","","","","",""
"","html-keyboard-response","294","2529249","0.0-449.0","stu9gaoa","","","","","","","","","","","","","734","mik","Diagnostic trial","","f","","5","1","7","false","false","true","both pre & post","LEFT","LEFT","f","1","true","","","",""
"","html-keyboard-response","295","2530011","0.0-452.0","stu9gaoa","1536","864","","","","","","","","","","","null","+","Fixation - short","","null","","","","","","","","","","","","","","","","",""
"","html-keyboard-response","296","2530431","0.0-453.0","stu9gaoa","","","","","","","","","","","","","419","mik","Diagnostic trial","","f","","5","2","7","false","false","false","both pre & post","LEFT","RIGHT","j","0","false","","","",""
"","call-function","297","2530431","0.0-455.0-0.0","stu9gaoa","","","","","","","","","","","","","","","","","","","","","","","","","","","","","","","","","",""
"","html-keyboard-response","298","2530747","0.0-455.0-1.0","stu9gaoa","1536","864","","","","","","","","","","","null","Wrong","Feedback","","null","","","","","","","","","","","","","","","","",""
"","call-function","299","2530747","0.0-455.0-2.0","stu9gaoa","","","","","","","","","","","","","","","","","","","","","","","","","","","","","","","","","",""
"","html-keyboard-response","300","2531503","0.0-456.0","stu9gaoa","1536","864","","","","","","","","","","","null","+","Fixation - short","","null","","","","","","","","","","","","","","","","",""
"","html-keyboard-response","301","2532448","0.0-457.0","stu9gaoa","","","","","","","","","","","","","944","cta","Diagnostic trial","","j","","5","3","7","false","false","false","both pre & post","RIGHT","RIGHT","j","1","true","","","",""
"","html-keyboard-response","302","2533211","0.0-460.0","stu9gaoa","1536","864","","","","","","","","","","","null","+","Fixation - short","","null","","","","","","","","","","","","","","","","",""
"","html-keyboard-response","303","2534148","0.0-461.0","stu9gaoa","","","","","","","","","","","","","941","mik","Diagnostic trial","","j","","5","4","7","false","false","false","both pre & post","LEFT","RIGHT","j","1","false","","","",""
"","html-keyboard-response","304","2534917","0.0-464.0","stu9gaoa","1536","864","","","","","","","","","","","null","+","Fixation - short","","null","","","","","","","","","","","","","","","","",""
"","html-keyboard-response","305","2535812","0.0-465.0","stu9gaoa","","","","","","","","","","","","","895","mik","Diagnostic trial","","f","","5","5","7","false","false","true","both pre & post","LEFT","LEFT","f","1","true","","","",""
"","html-keyboard-response","306","2536572","0.0-468.0","stu9gaoa","1536","864","","","","","","","","","","","null","+","Fixation - short","","null","","","","","","","","","","","","","","","","",""
"","html-keyboard-response","307","2538107","0.0-469.0","stu9gaoa","","","","","","","","","","","","","1534","mik","Diagnostic trial","","j","","5","6","7","false","false","true","both pre & post","LEFT","LEFT","f","0","true","","","",""
"","call-function","308","2538108","0.0-471.0-0.0","stu9gaoa","","","","","","","","","","","","","","","","","","","","","","","","","","","","","","","","","",""
"","html-keyboard-response","309","2538427","0.0-471.0-1.0","stu9gaoa","1536","864","","","","","","","","","","","null","Wrong","Feedback","","null","","","","","","","","","","","","","","","","",""
"","call-function","310","2538428","0.0-471.0-2.0","stu9gaoa","","","","","","","","","","","","","","","","","","","","","","","","","","","","","","","","","",""
"","html-keyboard-response","311","2539179","0.0-472.0","stu9gaoa","1536","864","","","","","","","","","","","null","+","Fixation - short","","null","","","","","","","","","","","","","","","","",""
"","canvas-keyboard-response","312","2540439","0.0-473.0","stu9gaoa","","","","","","","","","","","","","null","Cue","Cue","","null","","5","6","","","false","","","","","","","","","","",""
"","html-keyboard-response","313","2541191","0.0-474.0","stu9gaoa","1536","864","","","","","","","","","","","null","+","Fixation - short","","null","","","","","","","","","","","","","","","","",""
"","html-keyboard-response","314","2542051","0.0-475.0","stu9gaoa","","","","","","","","","","","","","860","cta","Diagnostic trial","","j","","5","7","7","true","false","false","both pre & post","RIGHT","RIGHT","j","1","true","","","",""
"","html-keyboard-response","315","2542812","0.0-478.0","stu9gaoa","1536","864","","","","","","","","","","","null","+","Fixation - short","","null","","","","","","","","","","","","","","","","",""
"","html-keyboard-response","316","2544707","0.0-479.0","stu9gaoa","","","","","","","","","","","","","1895","cta","Diagnostic trial","","j","","5","8","7","true","false","true","both pre & post","RIGHT","LEFT","f","0","false","","","",""
"","call-function","317","2544707","0.0-481.0-0.0","stu9gaoa","","","","","","","","","","","","","","","","","","","","","","","","","","","","","","","","","",""
"","html-keyboard-response","318","2545026","0.0-481.0-1.0","stu9gaoa","1536","864","","","","","","","","","","","null","Wrong","Feedback","","null","","","","","","","","","","","","","","","","",""
"","call-function","319","2545026","0.0-481.0-2.0","stu9gaoa","","","","","","","","","","","","","","","","","","","","","","","","","","","","","","","","","",""
"","html-keyboard-response","320","2545790","0.0-482.0","stu9gaoa","1536","864","","","","","","","","","","","null","+","Fixation - short","","null","","","","","","","","","","","","","","","","",""
"","html-keyboard-response","321","2546971","0.0-483.0","stu9gaoa","","","","","","","","","","","","","1180","mik","Inducer trial","","f","","5","","","","true","","","","","f","1","","false","LEFT","",""
"","html-keyboard-response","322","2547739","0.0-486.0","stu9gaoa","1536","864","","","","","","","","","","","null","+","Fixation - short","","null","","","","","","","","","","","","","","","","",""
"","html-keyboard-response","323","2549235","0.0-487.0","stu9gaoa","","","","","","","","","","","","","1496","If rbc press LEFT | If dgv press RIGHT","Inducer instructions",""," ","","6","","","","","","","","","","","","","","",""
"","html-keyboard-response","324","2549994","0.0-488.0","stu9gaoa","1536","864","","","","","","","","","","","null","+","Fixation - short","","null","","","","","","","","","","","","","","","","",""
"","html-keyboard-response","325","2551276","0.0-489.0","stu9gaoa","","","","","","","","","","","","","1282","dgv","Diagnostic trial","","j","","6","0","11","false","false","false","both pre & post","RIGHT","RIGHT","j","1","true","","","",""
"","html-keyboard-response","326","2552039","0.0-492.0","stu9gaoa","1536","864","","","","","","","","","","","null","+","Fixation - short","","null","","","","","","","","","","","","","","","","",""
"","html-keyboard-response","327","2552812","0.0-493.0","stu9gaoa","","","","","","","","","","","","","772","rbc","Diagnostic trial","","f","","6","1","11","false","false","true","both pre & post","LEFT","LEFT","f","1","true","","","",""
"","html-keyboard-response","328","2553586","0.0-496.0","stu9gaoa","1536","864","","","","","","","","","","","null","+","Fixation - short","","null","","","","","","","","","","","","","","","","",""
"","html-keyboard-response","329","2554300","0.0-497.0","stu9gaoa","","","","","","","","","","","","","714","dgv","Diagnostic trial","","f","","6","2","11","false","false","true","both pre & post","RIGHT","LEFT","f","1","false","","","",""
"","html-keyboard-response","330","2555057","0.0-500.0","stu9gaoa","1536","864","","","","","","","","","","","null","+","Fixation - short","","null","","","","","","","","","","","","","","","","",""
"","html-keyboard-response","331","2556101","0.0-501.0","stu9gaoa","","","","","","","","","","","","","1044","rbc","Diagnostic trial","","j","","6","3","11","false","false","false","both pre & post","LEFT","RIGHT","j","1","false","","","",""
"","html-keyboard-response","332","2556866","0.0-504.0","stu9gaoa","1536","864","","","","","","","","","","","null","+","Fixation - short","","null","","","","","","","","","","","","","","","","",""
"","html-keyboard-response","333","2558532","0.0-505.0","stu9gaoa","","","","","","","","","","","","","1665","dgv","Diagnostic trial","","f","","6","4","11","false","false","true","both pre & post","RIGHT","LEFT","f","1","false","","","",""
"","html-keyboard-response","334","2559294","0.0-508.0","stu9gaoa","1536","864","","","","","","","","","","","null","+","Fixation - short","","null","","","","","","","","","","","","","","","","",""
"","html-keyboard-response","335","2560060","0.0-509.0","stu9gaoa","","","","","","","","","","","","","765","rbc","Diagnostic trial","","j","","6","5","11","false","false","false","both pre & post","LEFT","RIGHT","j","1","false","","","",""
"","html-keyboard-response","336","2560826","0.0-512.0","stu9gaoa","1536","864","","","","","","","","","","","null","+","Fixation - short","","null","","","","","","","","","","","","","","","","",""
"","html-keyboard-response","337","2561748","0.0-513.0","stu9gaoa","","","","","","","","","","","","","921","dgv","Diagnostic trial","","j","","6","6","11","false","false","false","both pre & post","RIGHT","RIGHT","j","1","true","","","",""
"","html-keyboard-response","338","2562505","0.0-516.0","stu9gaoa","1536","864","","","","","","","","","","","null","+","Fixation - short","","null","","","","","","","","","","","","","","","","",""
"","html-keyboard-response","339","2563227","0.0-517.0","stu9gaoa","","","","","","","","","","","","","721","rbc","Diagnostic trial","","j","","6","7","11","false","false","false","both pre & post","LEFT","RIGHT","j","1","false","","","",""
"","html-keyboard-response","340","2563980","0.0-520.0","stu9gaoa","1536","864","","","","","","","","","","","null","+","Fixation - short","","null","","","","","","","","","","","","","","","","",""
"","html-keyboard-response","341","2564523","0.0-521.0","stu9gaoa","","","","","","","","","","","","","542","rbc","Diagnostic trial","","j","","6","8","11","false","false","false","both pre & post","LEFT","RIGHT","j","1","false","","","",""
"","html-keyboard-response","342","2565282","0.0-524.0","stu9gaoa","1536","864","","","","","","","","","","","null","+","Fixation - short","","null","","","","","","","","","","","","","","","","",""
"","html-keyboard-response","343","2565915","0.0-525.0","stu9gaoa","","","","","","","","","","","","","633","rbc","Diagnostic trial","","f","","6","9","11","false","false","true","both pre & post","LEFT","LEFT","f","1","true","","","",""
"","html-keyboard-response","344","2566683","0.0-528.0","stu9gaoa","1536","864","","","","","","","","","","","null","+","Fixation - short","","null","","","","","","","","","","","","","","","","",""
"","html-keyboard-response","345","2567739","0.0-529.0","stu9gaoa","","","","","","","","","","","","","1055","dgv","Diagnostic trial","","j","","6","10","11","false","false","false","both pre & post","RIGHT","RIGHT","j","1","true","","","",""
"","html-keyboard-response","346","2568497","0.0-532.0","stu9gaoa","1536","864","","","","","","","","","","","null","+","Fixation - short","","null","","","","","","","","","","","","","","","","",""
"","canvas-keyboard-response","347","2569757","0.0-533.0","stu9gaoa","","","","","","","","","","","","","null","Cue","Cue","","null","","6","10","","","false","","","","","","","","","","",""
"","html-keyboard-response","348","2570526","0.0-534.0","stu9gaoa","1536","864","","","","","","","","","","","null","+","Fixation - short","","null","","","","","","","","","","","","","","","","",""
"","html-keyboard-response","349","2571475","0.0-535.0","stu9gaoa","","","","","","","","","","","","","948","rbc","Diagnostic trial","","f","","6","11","11","true","false","true","both pre & post","LEFT","LEFT","f","1","true","","","",""
"","html-keyboard-response","350","2572237","0.0-538.0","stu9gaoa","1536","864","","","","","","","","","","","null","+","Fixation - short","","null","","","","","","","","","","","","","","","","",""
"","html-keyboard-response","351","2572955","0.0-539.0","stu9gaoa","","","","","","","","","","","","","718","rbc","Diagnostic trial","","f","","6","12","11","true","false","true","both pre & post","LEFT","LEFT","f","1","true","","","",""
"","html-keyboard-response","352","2573720","0.0-542.0","stu9gaoa","1536","864","","","","","","","","","","","null","+","Fixation - short","","null","","","","","","","","","","","","","","","","",""
"","html-keyboard-response","353","2575459","0.0-543.0","stu9gaoa","","","","","","","","","","","","","1739","dgv","Inducer trial","","j","","6","","","","true","","","","","j","1","","false","RIGHT","",""
"","html-keyboard-response","354","2576213","0.0-546.0","stu9gaoa","1536","864","","","","","","","","","","","null","+","Fixation - short","","null","","","","","","","","","","","","","","","","",""
"","html-keyboard-response","355","2577379","0.0-547.0","stu9gaoa","","","","","","","","","","","","","1166","If jsf press LEFT | If lpn press RIGHT","Inducer instructions",""," ","","7","","","","","","","","","","","","","","",""
"","html-keyboard-response","356","2578142","0.0-548.0","stu9gaoa","1536","864","","","","","","","","","","","null","+","Fixation - short","","null","","","","","","","","","","","","","","","","",""
"","html-keyboard-response","357","2579187","0.0-549.0","stu9gaoa","","","","","","","","","","","","","1044","jsf","Diagnostic trial","","j","","7","0","11","false","false","false","both pre & post","LEFT","RIGHT","j","1","false","","","",""
"","html-keyboard-response","358","2579943","0.0-552.0","stu9gaoa","1536","864","","","","","","","","","","","null","+","Fixation - short","","null","","","","","","","","","","","","","","","","",""
"","html-keyboard-response","359","2580715","0.0-553.0","stu9gaoa","","","","","","","","","","","","","772","lpn","Diagnostic trial","","j","","7","1","11","false","false","false","both pre & post","RIGHT","RIGHT","j","1","true","","","",""
"","html-keyboard-response","360","2581477","0.0-556.0","stu9gaoa","1536","864","","","","","","","","","","","null","+","Fixation - short","","null","","","","","","","","","","","","","","","","",""
"","html-keyboard-response","361","2582091","0.0-557.0","stu9gaoa","","","","","","","","","","","","","614","lpn","Diagnostic trial","","f","","7","2","11","false","false","true","both pre & post","RIGHT","LEFT","f","1","false","","","",""
"","html-keyboard-response","362","2582858","0.0-560.0","stu9gaoa","1536","864","","","","","","","","","","","null","+","Fixation - short","","null","","","","","","","","","","","","","","","","",""
"","html-keyboard-response","363","2583611","0.0-561.0","stu9gaoa","","","","","","","","","","","","","753","jsf","Diagnostic trial","","j","","7","3","11","false","false","false","both pre & post","LEFT","RIGHT","j","1","false","","","",""
"","html-keyboard-response","364","2584372","0.0-564.0","stu9gaoa","1536","864","","","","","","","","","","","null","+","Fixation - short","","null","","","","","","","","","","","","","","","","",""
"","html-keyboard-response","365","2585196","0.0-565.0","stu9gaoa","","","","","","","","","","","","","823","jsf","Diagnostic trial","","j","","7","4","11","false","false","false","both pre & post","LEFT","RIGHT","j","1","false","","","",""
"","html-keyboard-response","366","2585960","0.0-568.0","stu9gaoa","1536","864","","","","","","","","","","","null","+","Fixation - short","","null","","","","","","","","","","","","","","","","",""
"","html-keyboard-response","367","2586931","0.0-569.0","stu9gaoa","","","","","","","","","","","","","971","lpn","Diagnostic trial","","j","","7","5","11","false","false","false","both pre & post","RIGHT","RIGHT","j","1","true","","","",""
"","html-keyboard-response","368","2587686","0.0-572.0","stu9gaoa","1536","864","","","","","","","","","","","null","+","Fixation - short","","null","","","","","","","","","","","","","","","","",""
"","html-keyboard-response","369","2588507","0.0-573.0","stu9gaoa","","","","","","","","","","","","","820","lpn","Diagnostic trial","","f","","7","6","11","false","false","true","both pre & post","RIGHT","LEFT","f","1","false","","","",""
"","html-keyboard-response","370","2589276","0.0-576.0","stu9gaoa","1536","864","","","","","","","","","","","null","+","Fixation - short","","null","","","","","","","","","","","","","","","","",""
"","html-keyboard-response","371","2590019","0.0-577.0","stu9gaoa","","","","","","","","","","","","","742","lpn","Diagnostic trial","","j","","7","7","11","false","false","false","both pre & post","RIGHT","RIGHT","j","1","true","","","",""
"","html-keyboard-response","372","2590774","0.0-580.0","stu9gaoa","1536","864","","","","","","","","","","","null","+","Fixation - short","","null","","","","","","","","","","","","","","","","",""
"","html-keyboard-response","373","2591803","0.0-581.0","stu9gaoa","","","","","","","","","","","","","1029","jsf","Diagnostic trial","","j","","7","8","11","false","false","false","both pre & post","LEFT","RIGHT","j","1","false","","","",""
"","html-keyboard-response","374","2592558","0.0-584.0","stu9gaoa","1536","864","","","","","","","","","","","null","+","Fixation - short","","null","","","","","","","","","","","","","","","","",""
"","html-keyboard-response","375","2593291","0.0-585.0","stu9gaoa","","","","","","","","","","","","","733","lpn","Diagnostic trial","","f","","7","9","11","false","false","true","both pre & post","RIGHT","LEFT","f","1","false","","","",""
"","html-keyboard-response","376","2594057","0.0-588.0","stu9gaoa","1536","864","","","","","","","","","","","null","+","Fixation - short","","null","","","","","","","","","","","","","","","","",""
"","html-keyboard-response","377","2595268","0.0-589.0","stu9gaoa","","","","","","","","","","","","","1210","lpn","Diagnostic trial","","j","","7","10","11","false","false","false","both pre & post","RIGHT","RIGHT","j","1","true","","","",""
"","html-keyboard-response","378","2596040","0.0-592.0","stu9gaoa","1536","864","","","","","","","","","","","null","+","Fixation - short","","null","","","","","","","","","","","","","","","","",""
"","canvas-keyboard-response","379","2597301","0.0-593.0","stu9gaoa","","","","","","","","","","","","","null","Cue","Cue","","null","","7","10","","","false","","","","","","","","","","",""
"","html-keyboard-response","380","2598055","0.0-594.0","stu9gaoa","1536","864","","","","","","","","","","","null","+","Fixation - short","","null","","","","","","","","","","","","","","","","",""
"","html-keyboard-response","381","2599053","0.0-595.0","stu9gaoa","","","","","","","","","","","","","997","lpn","Diagnostic trial","","f","","7","11","11","true","false","true","both pre & post","RIGHT","LEFT","f","1","false","","","",""
"","html-keyboard-response","382","2599811","0.0-598.0","stu9gaoa","1536","864","","","","","","","","","","","null","+","Fixation - short","","null","","","","","","","","","","","","","","","","",""
"","html-keyboard-response","383","2600404","0.0-599.0","stu9gaoa","","","","","","","","","","","","","593","jsf","Diagnostic trial","","j","","7","12","11","true","false","true","both pre & post","LEFT","LEFT","f","0","true","","","",""
"","call-function","384","2600405","0.0-601.0-0.0","stu9gaoa","","","","","","","","","","","","","","","","","","","","","","","","","","","","","","","","","",""
"","html-keyboard-response","385","2600716","0.0-601.0-1.0","stu9gaoa","1536","864","","","","","","","","","","","null","Wrong","Feedback","","null","","","","","","","","","","","","","","","","",""
"","call-function","386","2600716","0.0-601.0-2.0","stu9gaoa","","","","","","","","","","","","","","","","","","","","","","","","","","","","","","","","","",""
"","html-keyboard-response","387","2601473","0.0-602.0","stu9gaoa","1536","864","","","","","","","","","","","null","+","Fixation - short","","null","","","","","","","","","","","","","","","","",""
"","html-keyboard-response","388","2602196","0.0-603.0","stu9gaoa","","","","","","","","","","","","","722","jsf","Diagnostic trial","","j","","7","13","11","true","false","false","both pre & post","LEFT","RIGHT","j","1","false","","","",""
"","html-keyboard-response","389","2602947","0.0-606.0","stu9gaoa","1536","864","","","","","","","","","","","null","+","Fixation - short","","null","","","","","","","","","","","","","","","","",""
"","html-keyboard-response","390","2603684","0.0-607.0","stu9gaoa","","","","","","","","","","","","","736","jsf","Diagnostic trial","","j","","7","14","11","true","false","false","both pre & post","LEFT","RIGHT","j","1","false","","","",""
"","html-keyboard-response","391","2604435","0.0-610.0","stu9gaoa","1536","864","","","","","","","","","","","null","+","Fixation - short","","null","","","","","","","","","","","","","","","","",""
"","html-keyboard-response","392","2605940","0.0-611.0","stu9gaoa","","","","","","","","","","","","","1504","lpn","Inducer trial","","j","","7","","","","true","","","","","j","1","","false","RIGHT","",""
"","html-keyboard-response","393","2606701","0.0-614.0","stu9gaoa","1536","864","","","","","","","","","","","null","+","Fixation - short","","null","","","","","","","","","","","","","","","","",""
"","html-keyboard-response","394","2607892","0.0-615.0","stu9gaoa","","","","","","","","","","","","","1191","If vnn press LEFT | If vpu press RIGHT","Inducer instructions",""," ","","8","","","","","","","","","","","","","","",""
"","html-keyboard-response","395","2608661","0.0-616.0","stu9gaoa","1536","864","","","","","","","","","","","null","+","Fixation - short","","null","","","","","","","","","","","","","","","","",""
"","html-keyboard-response","396","2609780","0.0-617.0","stu9gaoa","","","","","","","","","","","","","1117","vpu","Diagnostic trial","","f","","8","0","4","false","false","true","both pre & post","RIGHT","LEFT","f","1","false","","","",""
"","html-keyboard-response","397","2610531","0.0-620.0","stu9gaoa","1536","864","","","","","","","","","","","null","+","Fixation - short","","null","","","","","","","","","","","","","","","","",""
"","html-keyboard-response","398","2611364","0.0-621.0","stu9gaoa","","","","","","","","","","","","","832","vnn","Diagnostic trial","","f","","8","1","4","false","false","true","both pre & post","LEFT","LEFT","f","1","true","","","",""
"","html-keyboard-response","399","2612129","0.0-624.0","stu9gaoa","1536","864","","","","","","","","","","","null","+","Fixation - short","","null","","","","","","","","","","","","","","","","",""
"","html-keyboard-response","400","2612964","0.0-625.0","stu9gaoa","","","","","","","","","","","","","835","vpu","Diagnostic trial","","j","","8","2","4","false","false","false","both pre & post","RIGHT","RIGHT","j","1","true","","","",""
"","html-keyboard-response","401","2613730","0.0-628.0","stu9gaoa","1536","864","","","","","","","","","","","null","+","Fixation - short","","null","","","","","","","","","","","","","","","","",""
"","html-keyboard-response","402","2614452","0.0-629.0","stu9gaoa","","","","","","","","","","","","","721","vpu","Diagnostic trial","","j","","8","3","4","false","false","false","both pre & post","RIGHT","RIGHT","j","1","true","","","",""
"","html-keyboard-response","403","2615212","0.0-632.0","stu9gaoa","1536","864","","","","","","","","","","","null","+","Fixation - short","","null","","","","","","","","","","","","","","","","",""
"","canvas-keyboard-response","404","2616479","0.0-633.0","stu9gaoa","","","","","","","","","","","","","null","Cue","Cue","","null","","8","3","","","false","","","","","","","","","","",""
"","html-keyboard-response","405","2617245","0.0-634.0","stu9gaoa","1536","864","","","","","","","","","","","null","+","Fixation - short","","null","","","","","","","","","","","","","","","","",""
"","html-keyboard-response","406","2618093","0.0-635.0","stu9gaoa","","","","","","","","","","","","","847","vpu","Diagnostic trial","","j","","8","4","4","true","false","false","both pre & post","RIGHT","RIGHT","j","1","true","","","",""
"","html-keyboard-response","407","2618845","0.0-638.0","stu9gaoa","1536","864","","","","","","","","","","","null","+","Fixation - short","","null","","","","","","","","","","","","","","","","",""
"","html-keyboard-response","408","2619446","0.0-639.0","stu9gaoa","","","","","","","","","","","","","600","vnn","Diagnostic trial","","f","","8","5","4","true","false","true","both pre & post","LEFT","LEFT","f","1","true","","","",""
"","html-keyboard-response","409","2620211","0.0-642.0","stu9gaoa","1536","864","","","","","","","","","","","null","+","Fixation - short","","null","","","","","","","","","","","","","","","","",""
"","html-keyboard-response","410","2620932","0.0-643.0","stu9gaoa","","","","","","","","","","","","","721","vnn","Diagnostic trial","","f","","8","6","4","true","false","true","both pre & post","LEFT","LEFT","f","1","true","","","",""
"","html-keyboard-response","411","2621694","0.0-646.0","stu9gaoa","1536","864","","","","","","","","","","","null","+","Fixation - short","","null","","","","","","","","","","","","","","","","",""
"","html-keyboard-response","412","2622228","0.0-647.0","stu9gaoa","","","","","","","","","","","","","533","vnn","Diagnostic trial","","f","","8","7","4","true","false","true","both pre & post","LEFT","LEFT","f","1","true","","","",""
"","html-keyboard-response","413","2622994","0.0-650.0","stu9gaoa","1536","864","","","","","","","","","","","null","+","Fixation - short","","null","","","","","","","","","","","","","","","","",""
"","html-keyboard-response","414","2624156","0.0-651.0","stu9gaoa","","","","","","","","","","","","","1162","vnn","Inducer trial","","f","","8","","","","true","","","","","f","1","","false","LEFT","",""
"","html-keyboard-response","415","2624920","0.0-654.0","stu9gaoa","1536","864","","","","","","","","","","","null","+","Fixation - short","","null","","","","","","","","","","","","","","","","",""
"","html-keyboard-response","416","2625868","0.0-655.0","stu9gaoa","","","","","","","","","","","","","947","If efg press LEFT | If pcm press RIGHT","Inducer instructions",""," ","","9","","","","","","","","","","","","","","",""
"","html-keyboard-response","417","2626639","0.0-656.0","stu9gaoa","1536","864","","","","","","","","","","","null","+","Fixation - short","","null","","","","","","","","","","","","","","","","",""
"","html-keyboard-response","418","2627628","0.0-657.0","stu9gaoa","","","","","","","","","","","","","988","pcm","Diagnostic trial","","f","","9","0","4","false","false","true","both pre & post","RIGHT","LEFT","f","1","false","","","",""
"","html-keyboard-response","419","2628391","0.0-660.0","stu9gaoa","1536","864","","","","","","","","","","","null","+","Fixation - short","","null","","","","","","","","","","","","","","","","",""
"","html-keyboard-response","420","2629172","0.0-661.0","stu9gaoa","","","","","","","","","","","","","780","efg","Diagnostic trial","","f","","9","1","4","false","false","true","both pre & post","LEFT","LEFT","f","1","true","","","",""
"","html-keyboard-response","421","2629931","0.0-664.0","stu9gaoa","1536","864","","","","","","","","","","","null","+","Fixation - short","","null","","","","","","","","","","","","","","","","",""
"","html-keyboard-response","422","2630540","0.0-665.0","stu9gaoa","","","","","","","","","","","","","609","efg","Diagnostic trial","","j","","9","2","4","false","false","false","both pre & post","LEFT","RIGHT","j","1","false","","","",""
"","html-keyboard-response","423","2631300","0.0-668.0","stu9gaoa","1536","864","","","","","","","","","","","null","+","Fixation - short","","null","","","","","","","","","","","","","","","","",""
"","html-keyboard-response","424","2632236","0.0-669.0","stu9gaoa","","","","","","","","","","","","","936","pcm","Diagnostic trial","","j","","9","3","4","false","false","false","both pre & post","RIGHT","RIGHT","j","1","true","","","",""
"","html-keyboard-response","425","2632995","0.0-672.0","stu9gaoa","1536","864","","","","","","","","","","","null","+","Fixation - short","","null","","","","","","","","","","","","","","","","",""
"","canvas-keyboard-response","426","2634256","0.0-673.0","stu9gaoa","","","","","","","","","","","","","null","Cue","Cue","","null","","9","3","","","false","","","","","","","","","","",""
"","html-keyboard-response","427","2635007","0.0-674.0","stu9gaoa","1536","864","","","","","","","","","","","null","+","Fixation - short","","null","","","","","","","","","","","","","","","","",""
"","html-keyboard-response","428","2635813","0.0-675.0","stu9gaoa","","","","","","","","","","","","","805","pcm","Diagnostic trial","","j","","9","4","4","true","false","false","both pre & post","RIGHT","RIGHT","j","1","true","","","",""
"","html-keyboard-response","429","2636571","0.0-678.0","stu9gaoa","1536","864","","","","","","","","","","","null","+","Fixation - short","","null","","","","","","","","","","","","","","","","",""
"","html-keyboard-response","430","2637532","0.0-679.0","stu9gaoa","","","","","","","","","","","","","961","efg","Diagnostic trial","","j","","9","5","4","true","false","false","both pre & post","LEFT","RIGHT","j","1","false","","","",""
"","html-keyboard-response","431","2638297","0.0-682.0","stu9gaoa","1536","864","","","","","","","","","","","null","+","Fixation - short","","null","","","","","","","","","","","","","","","","",""
"","html-keyboard-response","432","2639109","0.0-683.0","stu9gaoa","","","","","","","","","","","","","811","pcm","Diagnostic trial","","j","","9","6","4","true","false","false","both pre & post","RIGHT","RIGHT","j","1","true","","","",""
"","html-keyboard-response","433","2639873","0.0-686.0","stu9gaoa","1536","864","","","","","","","","","","","null","+","Fixation - short","","null","","","","","","","","","","","","","","","","",""
"","html-keyboard-response","434","2640372","0.0-687.0","stu9gaoa","","","","","","","","","","","","","499","pcm","Diagnostic trial","","j","","9","7","4","true","false","false","both pre & post","RIGHT","RIGHT","j","1","true","","","",""
"","html-keyboard-response","435","2641134","0.0-690.0","stu9gaoa","1536","864","","","","","","","","","","","null","+","Fixation - short","","null","","","","","","","","","","","","","","","","",""
"","html-keyboard-response","436","2641651","0.0-691.0","stu9gaoa","","","","","","","","","","","","","517","efg","Inducer trial","","f","","9","","","","true","","","","","f","1","","false","LEFT","",""
"","html-keyboard-response","437","2642417","0.0-694.0","stu9gaoa","1536","864","","","","","","","","","","","null","+","Fixation - short","","null","","","","","","","","","","","","","","","","",""
"","html-keyboard-response","438","2643260","0.0-695.0","stu9gaoa","","","","","","","","","","","","","843","If hrc press LEFT | If yoy press RIGHT","Inducer instructions",""," ","","10","","","","","","","","","","","","","","",""
"","html-keyboard-response","439","2644017","0.0-696.0","stu9gaoa","1536","864","","","","","","","","","","","null","+","Fixation - short","","null","","","","","","","","","","","","","","","","",""
"","html-keyboard-response","440","2644940","0.0-697.0","stu9gaoa","","","","","","","","","","","","","923","hrc","Diagnostic trial","","f","","10","0","4","false","false","true","both pre & post","LEFT","LEFT","f","1","true","","","",""
"","html-keyboard-response","441","2645698","0.0-700.0","stu9gaoa","1536","864","","","","","","","","","","","null","+","Fixation - short","","null","","","","","","","","","","","","","","","","",""
"","html-keyboard-response","442","2646718","0.0-701.0","stu9gaoa","","","","","","","","","","","","","1019","yoy","Diagnostic trial","","j","","10","1","4","false","false","false","both pre & post","RIGHT","RIGHT","j","1","true","","","",""
"","html-keyboard-response","443","2647481","0.0-704.0","stu9gaoa","1536","864","","","","","","","","","","","null","+","Fixation - short","","null","","","","","","","","","","","","","","","","",""
"","html-keyboard-response","444","2648500","0.0-705.0","stu9gaoa","","","","","","","","","","","","","1018","yoy","Diagnostic trial","","f","","10","2","4","false","false","true","both pre & post","RIGHT","LEFT","f","1","false","","","",""
"","html-keyboard-response","445","2649265","0.0-708.0","stu9gaoa","1536","864","","","","","","","","","","","null","+","Fixation - short","","null","","","","","","","","","","","","","","","","",""
"","html-keyboard-response","446","2650100","0.0-709.0","stu9gaoa","","","","","","","","","","","","","835","yoy","Diagnostic trial","","j","","10","3","4","false","false","false","both pre & post","RIGHT","RIGHT","j","1","true","","","",""
"","html-keyboard-response","447","2650862","0.0-712.0","stu9gaoa","1536","864","","","","","","","","","","","null","+","Fixation - short","","null","","","","","","","","","","","","","","","","",""
"","canvas-keyboard-response","448","2652113","0.0-713.0","stu9gaoa","","","","","","","","","","","","","null","Cue","Cue","","null","","10","3","","","false","","","","","","","","","","",""
"","html-keyboard-response","449","2652879","0.0-714.0","stu9gaoa","1536","864","","","","","","","","","","","null","+","Fixation - short","","null","","","","","","","","","","","","","","","","",""
"","html-keyboard-response","450","2653756","0.0-715.0","stu9gaoa","","","","","","","","","","","","","876","yoy","Diagnostic trial","","j","","10","4","4","true","false","false","both pre & post","RIGHT","RIGHT","j","1","true","","","",""
"","html-keyboard-response","451","2654519","0.0-718.0","stu9gaoa","1536","864","","","","","","","","","","","null","+","Fixation - short","","null","","","","","","","","","","","","","","","","",""
"","html-keyboard-response","452","2655212","0.0-719.0","stu9gaoa","","","","","","","","","","","","","692","hrc","Diagnostic trial","","j","","10","5","4","true","false","false","both pre & post","LEFT","RIGHT","j","1","false","","","",""
"","html-keyboard-response","453","2655989","0.0-722.0","stu9gaoa","1536","864","","","","","","","","","","","null","+","Fixation - short","","null","","","","","","","","","","","","","","","","",""
"","html-keyboard-response","454","2656773","0.0-723.0","stu9gaoa","","","","","","","","","","","","","783","hrc","Diagnostic trial","","j","","10","6","4","true","false","false","both pre & post","LEFT","RIGHT","j","1","false","","","",""
"","html-keyboard-response","455","2657540","0.0-726.0","stu9gaoa","1536","864","","","","","","","","","","","null","+","Fixation - short","","null","","","","","","","","","","","","","","","","",""
"","html-keyboard-response","456","2658293","0.0-727.0","stu9gaoa","","","","","","","","","","","","","752","yoy","Diagnostic trial","","f","","10","7","4","true","false","true","both pre & post","RIGHT","LEFT","f","1","false","","","",""
"","html-keyboard-response","457","2659051","0.0-730.0","stu9gaoa","1536","864","","","","","","","","","","","null","+","Fixation - short","","null","","","","","","","","","","","","","","","","",""
"","html-keyboard-response","458","2659884","0.0-731.0","stu9gaoa","","","","","","","","","","","","","832","yoy","Inducer trial","","f","","10","","","","true","","","","","j","0","","false","RIGHT","",""
"","call-function","459","2659885","0.0-733.0-0.0","stu9gaoa","","","","","","","","","","","","","","","","","","","","","","","","","","","","","","","","","",""
"","html-keyboard-response","460","2660199","0.0-733.0-1.0","stu9gaoa","1536","864","","","","","","","","","","","null","Wrong","Feedback","","null","","","","","","","","","","","","","","","","",""
"","call-function","461","2660200","0.0-733.0-2.0","stu9gaoa","","","","","","","","","","","","","","","","","","","","","","","","","","","","","","","","","",""
