"value","trial_type","trial_index","time_elapsed","internal_node_id","id","width","height","webaudio","browser","browser_version","mobile","os","fullscreen","vsync_rate","webcam","microphone","view_history","rt","stimulus","trial_info","success","response","exp_parameters","inducer_run","diagnostic_run","cue_num","post_cue","inducer_trial","italic","forced_equal_run","correct_inducer_response_side","correct_diag_response_side","correct_response_key","correct_response","congruent","force_equal","correct_indu_response_side","accuracy","interactive"
"","call-function","0","2","0.0-0.0","0d9lxg08","","","","","","","","","","","","","","","","","","","","","","","","","","","","","","","","","",""
"","browser-check","1","812","0.0-1.0","0d9lxg08","1825","958","true","edge-chromium","123.0.0","false","Windows 10","true","75.35","true","true","","","","","","","","","","","","","","","","","","","","","","",""
"","instructions","2","99301","0.0-2.0","0d9lxg08","","","","","","","","","","","","[{""page_index"":0,""viewing_time"":49525},{""page_index"":1,""viewing_time"":24946},{""page_index"":2,""viewing_time"":24017}]","98488","The experiment and consent","The experiment and consent","","","","","","","","","","","","","","","","","","",""
"","fullscreen","3","111927","0.0-3.0","0d9lxg08","","","","","","","","","","","","","11611","","Full screen","true","","","","","","","","","","","","","","","","","",""
"","instructions","4","178002","0.0-4.0","0d9lxg08","","","","","","","","","","","","[{""page_index"":0,""viewing_time"":29634},{""page_index"":1,""viewing_time"":36439}]","66074","Instructions","Basic overview explanation","","","","","","","","","","","","","","","","","","",""
"","html-keyboard-response","5","199519","0.0-5.0","0d9lxg08","","","","","","","","","","","","","null","If italic press LEFT | If upright press RIGHT","Diagnostic instructions","","null","{""debug"":false,""skip_instructions"":false,""skip_practice"":false,""save_local_data"":false,""studu_name"":""exp2"",""default_background_colour"":""#cccccc"",""wrong_response_colour"":""#d22d2d"",""instruction_delay"":20000,""trial_duration"":2000,""short_fixation"":750,""long_fixation"":1500,""wrong_response_delay"":300,""too_slow_delay"":300,""instruction_font_size"":""24px"",""general_font_size"":""42px"",""fixation_size"":""48px"",""allowed_responses"":[""f"",""j""],""cue_min_length"":0,""cue_max_length"":4,""tot_post_cue_len"":72,""cue_colour"":""red"",""cue_shape"":""Triangle"",""cue_size"":70,""cue_duration"":1250,""avg_number_of_cues"":3,""inducer_colour"":""yellow"",""number_of_inducers"":24,""pre_cue_italic_forced_equal"":true,""post_cue_italic_forced_equal"":true,""prac_diagnostic_rounds"":16,""prac_inducer_rounds"":6,""prac_cue_rounds"":16,""prac_post_cue_num"":3}","","","","","","","","","","","","","","","",""
"","html-keyboard-response","6","200286","0.0-6.0","0d9lxg08","1920","1080","","","","","","","","","","","null","+","Fixation - short","","null","","","","","","","","","","","","","","","","",""
"","html-keyboard-response","7","202341","0.0-7.0","0d9lxg08","","","","","","","","","","","","","2055","ibg","Diagnostic practice","","f","","Diagnostic practice","0","-84","true","false","true","prac equal","LEFT","LEFT","f","1","true","","","",""
"","html-keyboard-response","8","203098","0.0-10.0","0d9lxg08","1920","1080","","","","","","","","","","","null","+","Fixation - short","","null","","","","","","","","","","","","","","","","",""
"","html-keyboard-response","9","204043","0.0-11.0","0d9lxg08","","","","","","","","","","","","","944","ibg","Diagnostic practice","","j","","Diagnostic practice","1","-84","true","false","false","prac equal","LEFT","RIGHT","j","1","false","","","",""
"","html-keyboard-response","10","204809","0.0-14.0","0d9lxg08","1920","1080","","","","","","","","","","","null","+","Fixation - short","","null","","","","","","","","","","","","","","","","",""
"","html-keyboard-response","11","205496","0.0-15.0","0d9lxg08","","","","","","","","","","","","","686","wab","Diagnostic practice","","j","","Diagnostic practice","2","-84","true","false","false","prac equal","RIGHT","RIGHT","j","1","true","","","",""
"","html-keyboard-response","12","206262","0.0-18.0","0d9lxg08","1920","1080","","","","","","","","","","","null","+","Fixation - short","","null","","","","","","","","","","","","","","","","",""
"","html-keyboard-response","13","206885","0.0-19.0","0d9lxg08","","","","","","","","","","","","","623","wab","Diagnostic practice","","f","","Diagnostic practice","3","-84","true","false","true","prac equal","RIGHT","LEFT","f","1","false","","","",""
"","html-keyboard-response","14","207646","0.0-22.0","0d9lxg08","1920","1080","","","","","","","","","","","null","+","Fixation - short","","null","","","","","","","","","","","","","","","","",""
"","html-keyboard-response","15","208372","0.0-23.0","0d9lxg08","","","","","","","","","","","","","725","wab","Diagnostic practice","","j","","Diagnostic practice","4","-84","true","false","false","prac equal","RIGHT","RIGHT","j","1","true","","","",""
"","html-keyboard-response","16","209129","0.0-26.0","0d9lxg08","1920","1080","","","","","","","","","","","null","+","Fixation - short","","null","","","","","","","","","","","","","","","","",""
"","html-keyboard-response","17","210193","0.0-27.0","0d9lxg08","","","","","","","","","","","","","1064","ibg","Diagnostic practice","","j","","Diagnostic practice","5","-84","true","false","false","prac equal","LEFT","RIGHT","j","1","false","","","",""
"","html-keyboard-response","18","210954","0.0-30.0","0d9lxg08","1920","1080","","","","","","","","","","","null","+","Fixation - short","","null","","","","","","","","","","","","","","","","",""
"","html-keyboard-response","19","211505","0.0-31.0","0d9lxg08","","","","","","","","","","","","","550","ibg","Diagnostic practice","","j","","Diagnostic practice","6","-84","true","false","false","prac equal","LEFT","RIGHT","j","1","false","","","",""
"","html-keyboard-response","20","212261","0.0-34.0","0d9lxg08","1920","1080","","","","","","","","","","","null","+","Fixation - short","","null","","","","","","","","","","","","","","","","",""
"","html-keyboard-response","21","212949","0.0-35.0","0d9lxg08","","","","","","","","","","","","","687","ibg","Diagnostic practice","","f","","Diagnostic practice","7","-84","true","false","true","prac equal","LEFT","LEFT","f","1","true","","","",""
"","html-keyboard-response","22","213702","0.0-38.0","0d9lxg08","1920","1080","","","","","","","","","","","null","+","Fixation - short","","null","","","","","","","","","","","","","","","","",""
"","html-keyboard-response","23","214471","0.0-39.0","0d9lxg08","","","","","","","","","","","","","769","ibg","Diagnostic practice","","j","","Diagnostic practice","8","-84","true","false","false","prac equal","LEFT","RIGHT","j","1","false","","","",""
"","html-keyboard-response","24","215223","0.0-42.0","0d9lxg08","1920","1080","","","","","","","","","","","null","+","Fixation - short","","null","","","","","","","","","","","","","","","","",""
"","html-keyboard-response","25","215905","0.0-43.0","0d9lxg08","","","","","","","","","","","","","681","ibg","Diagnostic practice","","j","","Diagnostic practice","9","-84","true","false","false","prac equal","LEFT","RIGHT","j","1","false","","","",""
"","html-keyboard-response","26","216663","0.0-46.0","0d9lxg08","1920","1080","","","","","","","","","","","null","+","Fixation - short","","null","","","","","","","","","","","","","","","","",""
"","html-keyboard-response","27","217540","0.0-47.0","0d9lxg08","","","","","","","","","","","","","876","ibg","Diagnostic practice","","f","","Diagnostic practice","10","-84","true","false","true","prac equal","LEFT","LEFT","f","1","true","","","",""
"","html-keyboard-response","28","218305","0.0-50.0","0d9lxg08","1920","1080","","","","","","","","","","","null","+","Fixation - short","","null","","","","","","","","","","","","","","","","",""
"","html-keyboard-response","29","218870","0.0-51.0","0d9lxg08","","","","","","","","","","","","","564","ibg","Diagnostic practice","","f","","Diagnostic practice","11","-84","true","false","true","prac equal","LEFT","LEFT","f","1","true","","","",""
"","html-keyboard-response","30","219624","0.0-54.0","0d9lxg08","1920","1080","","","","","","","","","","","null","+","Fixation - short","","null","","","","","","","","","","","","","","","","",""
"","html-keyboard-response","31","220114","0.0-55.0","0d9lxg08","","","","","","","","","","","","","489","ibg","Diagnostic practice","","f","","Diagnostic practice","12","-84","true","false","true","prac equal","LEFT","LEFT","f","1","true","","","",""
"","html-keyboard-response","32","220880","0.0-58.0","0d9lxg08","1920","1080","","","","","","","","","","","null","+","Fixation - short","","null","","","","","","","","","","","","","","","","",""
"","html-keyboard-response","33","221334","0.0-59.0","0d9lxg08","","","","","","","","","","","","","453","ibg","Diagnostic practice","","f","","Diagnostic practice","13","-84","true","false","true","prac equal","LEFT","LEFT","f","1","true","","","",""
"","html-keyboard-response","34","222091","0.0-62.0","0d9lxg08","1920","1080","","","","","","","","","","","null","+","Fixation - short","","null","","","","","","","","","","","","","","","","",""
"","html-keyboard-response","35","222707","0.0-63.0","0d9lxg08","","","","","","","","","","","","","615","ibg","Diagnostic practice","","j","","Diagnostic practice","14","-84","true","false","false","prac equal","LEFT","RIGHT","j","1","false","","","",""
"","html-keyboard-response","36","223465","0.0-66.0","0d9lxg08","1920","1080","","","","","","","","","","","null","+","Fixation - short","","null","","","","","","","","","","","","","","","","",""
"","html-keyboard-response","37","224652","0.0-67.0","0d9lxg08","","","","","","","","","","","","","1186","wab","Diagnostic practice","","f","","Diagnostic practice","15","-84","true","false","true","prac equal","RIGHT","LEFT","f","1","false","","","",""
"","html-keyboard-response","38","225410","0.0-70.0","0d9lxg08","1920","1080","","","","","","","","","","","null","+","Fixation - short","","null","","","","","","","","","","","","","","","","",""
"","instructions","39","281423","0.0-71.0","0d9lxg08","","","","","","","","","","","","[{""page_index"":0,""viewing_time"":56011}]","56011","Instructions","Final experiment explanation","","","","","","","","","","","","","","","","","","",""
"","html-keyboard-response","40","292997","0.0-72.0","0d9lxg08","","","","","","","","","","","","","10063","If upf press LEFT | If hrc press RIGHT","Inducer practice",""," ","","Practice","","","","","","","","","","","","","","",""
"","html-keyboard-response","41","293759","0.0-73.0","0d9lxg08","1920","1080","","","","","","","","","","","null","+","Fixation - short","","null","","","","","","","","","","","","","","","","",""
"","html-keyboard-response","42","294424","0.0-74.0","0d9lxg08","","","","","","","","","","","","","664","upf","Inducer practice","","f","","Practice","","","","true","","","","","f","1","","true","LEFT","",""
"","html-keyboard-response","43","295188","0.0-77.0","0d9lxg08","1920","1080","","","","","","","","","","","null","+","Fixation - short","","null","","","","","","","","","","","","","","","","",""
"","html-keyboard-response","44","301581","0.0-78.0","0d9lxg08","","","","","","","","","","","","","6392","If bsh press LEFT | If epy press RIGHT","Inducer practice",""," ","","Practice","","","","","","","","","","","","","","",""
"","html-keyboard-response","45","302335","0.0-79.0","0d9lxg08","1920","1080","","","","","","","","","","","null","+","Fixation - short","","null","","","","","","","","","","","","","","","","",""
"","html-keyboard-response","46","302825","0.0-80.0","0d9lxg08","","","","","","","","","","","","","490","epy","Inducer practice","","j","","Practice","","","","true","","","","","j","1","","true","RIGHT","",""
"","html-keyboard-response","47","303592","0.0-83.0","0d9lxg08","1920","1080","","","","","","","","","","","null","+","Fixation - short","","null","","","","","","","","","","","","","","","","",""
"","html-keyboard-response","48","306487","0.0-84.0","0d9lxg08","","","","","","","","","","","","","2895","If imm press LEFT | If cer press RIGHT","Inducer practice",""," ","","Practice","","","","","","","","","","","","","","",""
"","html-keyboard-response","49","307244","0.0-85.0","0d9lxg08","1920","1080","","","","","","","","","","","null","+","Fixation - short","","null","","","","","","","","","","","","","","","","",""
"","html-keyboard-response","50","307935","0.0-86.0","0d9lxg08","","","","","","","","","","","","","690","cer","Inducer practice","","j","","Practice","","","","true","","","","","j","1","","true","RIGHT","",""
"","html-keyboard-response","51","308699","0.0-89.0","0d9lxg08","1920","1080","","","","","","","","","","","null","+","Fixation - short","","null","","","","","","","","","","","","","","","","",""
"","html-keyboard-response","52","310645","0.0-90.0","0d9lxg08","","","","","","","","","","","","","1945","If xet press LEFT | If iei press RIGHT","Inducer practice",""," ","","Practice","","","","","","","","","","","","","","",""
"","html-keyboard-response","53","311403","0.0-91.0","0d9lxg08","1920","1080","","","","","","","","","","","null","+","Fixation - short","","null","","","","","","","","","","","","","","","","",""
"","html-keyboard-response","54","312027","0.0-92.0","0d9lxg08","","","","","","","","","","","","","624","xet","Inducer practice","","f","","Practice","","","","true","","","","","f","1","","true","LEFT","",""
"","html-keyboard-response","55","312779","0.0-95.0","0d9lxg08","1920","1080","","","","","","","","","","","null","+","Fixation - short","","null","","","","","","","","","","","","","","","","",""
"","html-keyboard-response","56","314213","0.0-96.0","0d9lxg08","","","","","","","","","","","","","1433","If edc press LEFT | If ofa press RIGHT","Inducer practice",""," ","","Practice","","","","","","","","","","","","","","",""
"","html-keyboard-response","57","314967","0.0-97.0","0d9lxg08","1920","1080","","","","","","","","","","","null","+","Fixation - short","","null","","","","","","","","","","","","","","","","",""
"","html-keyboard-response","58","315633","0.0-98.0","0d9lxg08","","","","","","","","","","","","","665","ofa","Inducer practice","","j","","Practice","","","","true","","","","","j","1","","true","RIGHT","",""
"","html-keyboard-response","59","316393","0.0-101.0","0d9lxg08","1920","1080","","","","","","","","","","","null","+","Fixation - short","","null","","","","","","","","","","","","","","","","",""
"","html-keyboard-response","60","318307","0.0-102.0","0d9lxg08","","","","","","","","","","","","","1913","If ume press LEFT | If hlb press RIGHT","Inducer practice",""," ","","Practice","","","","","","","","","","","","","","",""
"","html-keyboard-response","61","319061","0.0-103.0","0d9lxg08","1920","1080","","","","","","","","","","","null","+","Fixation - short","","null","","","","","","","","","","","","","","","","",""
"","html-keyboard-response","62","319467","0.0-104.0","0d9lxg08","","","","","","","","","","","","","405","ume","Inducer practice","","f","","Practice","","","","true","","","","","f","1","","true","LEFT","",""
"","html-keyboard-response","63","320222","0.0-107.0","0d9lxg08","1920","1080","","","","","","","","","","","null","+","Fixation - short","","null","","","","","","","","","","","","","","","","",""
"","instructions","64","414946","0.0-108.0","0d9lxg08","","","","","","","","","","","","[{""page_index"":0,""viewing_time"":94724}]","94724","Instructions","Final experiment explanation","","","","","","","","","","","","","","","","","","",""
"","html-keyboard-response","65","420511","0.0-109.0","0d9lxg08","","","","","","","","","","","","","4057","If jil press LEFT | If lff press RIGHT","Cue practice",""," ","","Practice","","","","","","","","","","","","","","",""
"","html-keyboard-response","66","421271","0.0-110.0","0d9lxg08","1920","1080","","","","","","","","","","","null","+","Fixation - short","","null","","","","","","","","","","","","","","","","",""
"","html-keyboard-response","67","422184","0.0-111.0","0d9lxg08","","","","","","","","","","","","","913","jil","Cue practice","","f","","Practice","0","13","false","false","true","both pre & post","LEFT","LEFT","f","1","true","","","",""
"","html-keyboard-response","68","422939","0.0-114.0","0d9lxg08","1920","1080","","","","","","","","","","","null","+","Fixation - short","","null","","","","","","","","","","","","","","","","",""
"","html-keyboard-response","69","424627","0.0-115.0","0d9lxg08","","","","","","","","","","","","","1688","lff","Cue practice","","j","","Practice","1","13","false","false","false","both pre & post","RIGHT","RIGHT","j","1","true","","","",""
"","html-keyboard-response","70","425380","0.0-118.0","0d9lxg08","1920","1080","","","","","","","","","","","null","+","Fixation - short","","null","","","","","","","","","","","","","","","","",""
"","html-keyboard-response","71","426069","0.0-119.0","0d9lxg08","","","","","","","","","","","","","689","lff","Cue practice","","j","","Practice","2","13","false","false","false","both pre & post","RIGHT","RIGHT","j","1","true","","","",""
"","html-keyboard-response","72","426822","0.0-122.0","0d9lxg08","1920","1080","","","","","","","","","","","null","+","Fixation - short","","null","","","","","","","","","","","","","","","","",""
"","html-keyboard-response","73","427415","0.0-123.0","0d9lxg08","","","","","","","","","","","","","592","lff","Cue practice","","j","","Practice","3","13","false","false","false","both pre & post","RIGHT","RIGHT","j","1","true","","","",""
"","html-keyboard-response","74","428168","0.0-126.0","0d9lxg08","1920","1080","","","","","","","","","","","null","+","Fixation - short","","null","","","","","","","","","","","","","","","","",""
"","html-keyboard-response","75","429036","0.0-127.0","0d9lxg08","","","","","","","","","","","","","867","jil","Cue practice","","j","","Practice","4","13","false","false","false","both pre & post","LEFT","RIGHT","j","1","false","","","",""
"","html-keyboard-response","76","429795","0.0-130.0","0d9lxg08","1920","1080","","","","","","","","","","","null","+","Fixation - short","","null","","","","","","","","","","","","","","","","",""
"","html-keyboard-response","77","430354","0.0-131.0","0d9lxg08","","","","","","","","","","","","","559","jil","Cue practice","","j","","Practice","5","13","false","false","false","both pre & post","LEFT","RIGHT","j","1","false","","","",""
"","html-keyboard-response","78","431118","0.0-134.0","0d9lxg08","1920","1080","","","","","","","","","","","null","+","Fixation - short","","null","","","","","","","","","","","","","","","","",""
"","html-keyboard-response","79","431906","0.0-135.0","0d9lxg08","","","","","","","","","","","","","787","jil","Cue practice","","f","","Practice","6","13","false","false","true","both pre & post","LEFT","LEFT","f","1","true","","","",""
"","html-keyboard-response","80","432663","0.0-138.0","0d9lxg08","1920","1080","","","","","","","","","","","null","+","Fixation - short","","null","","","","","","","","","","","","","","","","",""
"","html-keyboard-response","81","433699","0.0-139.0","0d9lxg08","","","","","","","","","","","","","1035","lff","Cue practice","","f","","Practice","7","13","false","false","true","both pre & post","RIGHT","LEFT","f","1","false","","","",""
"","html-keyboard-response","82","434451","0.0-142.0","0d9lxg08","1920","1080","","","","","","","","","","","null","+","Fixation - short","","null","","","","","","","","","","","","","","","","",""
"","html-keyboard-response","83","435429","0.0-143.0","0d9lxg08","","","","","","","","","","","","","978","jil","Cue practice","","f","","Practice","8","13","false","false","true","both pre & post","LEFT","LEFT","f","1","true","","","",""
"","html-keyboard-response","84","436184","0.0-146.0","0d9lxg08","1920","1080","","","","","","","","","","","null","+","Fixation - short","","null","","","","","","","","","","","","","","","","",""
"","html-keyboard-response","85","437374","0.0-147.0","0d9lxg08","","","","","","","","","","","","","1189","lff","Cue practice","","f","","Practice","9","13","false","false","true","both pre & post","RIGHT","LEFT","f","1","false","","","",""
"","html-keyboard-response","86","438131","0.0-150.0","0d9lxg08","1920","1080","","","","","","","","","","","null","+","Fixation - short","","null","","","","","","","","","","","","","","","","",""
"","html-keyboard-response","87","438837","0.0-151.0","0d9lxg08","","","","","","","","","","","","","705","jil","Cue practice","","j","","Practice","10","13","false","false","false","both pre & post","LEFT","RIGHT","j","1","false","","","",""
"","html-keyboard-response","88","439601","0.0-154.0","0d9lxg08","1920","1080","","","","","","","","","","","null","+","Fixation - short","","null","","","","","","","","","","","","","","","","",""
"","html-keyboard-response","89","440904","0.0-155.0","0d9lxg08","","","","","","","","","","","","","1303","jil","Cue practice","","f","","Practice","11","13","false","false","true","both pre & post","LEFT","LEFT","f","1","true","","","",""
"","html-keyboard-response","90","441671","0.0-158.0","0d9lxg08","1920","1080","","","","","","","","","","","null","+","Fixation - short","","null","","","","","","","","","","","","","","","","",""
"","html-keyboard-response","91","442621","0.0-159.0","0d9lxg08","","","","","","","","","","","","","949","lff","Cue practice","","f","","Practice","12","13","false","false","true","both pre & post","RIGHT","LEFT","f","1","false","","","",""
"","html-keyboard-response","92","443374","0.0-162.0","0d9lxg08","1920","1080","","","","","","","","","","","null","+","Fixation - short","","null","","","","","","","","","","","","","","","","",""
"","canvas-keyboard-response","93","444631","0.0-163.0","0d9lxg08","","","","","","","","","","","","","null","Cue","Cue","","null","","Practice","12","","","false","","","","","","","","","","",""
"","html-keyboard-response","94","445387","0.0-164.0","0d9lxg08","1920","1080","","","","","","","","","","","null","+","Fixation - short","","null","","","","","","","","","","","","","","","","",""
"","html-keyboard-response","95","446741","0.0-165.0","0d9lxg08","","","","","","","","","","","","","1353","lff","Cue practice","","f","","Practice","13","13","true","false","true","both pre & post","RIGHT","LEFT","f","1","false","","","",""
"","html-keyboard-response","96","447495","0.0-168.0","0d9lxg08","1920","1080","","","","","","","","","","","null","+","Fixation - short","","null","","","","","","","","","","","","","","","","",""
"","html-keyboard-response","97","448444","0.0-169.0","0d9lxg08","","","","","","","","","","","","","949","jil","Cue practice","","j","","Practice","14","13","true","false","false","both pre & post","LEFT","RIGHT","j","1","false","","","",""
"","html-keyboard-response","98","449202","0.0-172.0","0d9lxg08","1920","1080","","","","","","","","","","","null","+","Fixation - short","","null","","","","","","","","","","","","","","","","",""
"","html-keyboard-response","99","450154","0.0-173.0","0d9lxg08","","","","","","","","","","","","","951","jil","Cue practice","","f","","Practice","15","13","true","false","true","both pre & post","LEFT","LEFT","f","1","true","","","",""
"","html-keyboard-response","100","450910","0.0-176.0","0d9lxg08","1920","1080","","","","","","","","","","","null","+","Fixation - short","","null","","","","","","","","","","","","","","","","",""
"","html-keyboard-response","101","452506","0.0-177.0","0d9lxg08","","","","","","","","","","","","","1595","jil","Inducer practice","","j","","Practice","","","","true","","","","","f","0","","false","LEFT","",""
"","call-function","102","452506","0.0-179.0-0.0","0d9lxg08","","","","","","","","","","","","","","","","","","","","","","","","","","","","","","","","","",""
"","html-keyboard-response","103","452818","0.0-179.0-1.0","0d9lxg08","1920","1080","","","","","","","","","","","null","Wrong","Feedback","","null","","","","","","","","","","","","","","","","",""
"","call-function","104","452818","0.0-179.0-2.0","0d9lxg08","","","","","","","","","","","","","","","","","","","","","","","","","","","","","","","","","",""
"","html-keyboard-response","105","453575","0.0-180.0","0d9lxg08","1920","1080","","","","","","","","","","","null","+","Fixation - short","","null","","","","","","","","","","","","","","","","",""
"","instructions","106","475230","0.0-181.0","0d9lxg08","","","","","","","","","","","","[{""page_index"":0,""viewing_time"":21655}]","21655","End practice","End of practice","","","","","","","","","","","","","","","","","","",""
"","html-keyboard-response","107","478243","0.0-182.0","0d9lxg08","1920","1080","","","","","","","","","","","null","+","Fixation - long","","null","","","","","","","","","","","","","","","","",""
"","html-keyboard-response","108","489338","0.0-183.0","0d9lxg08","","","","","","","","","","","","","11095","If pmf press LEFT | If jcr press RIGHT","Inducer instructions",""," ","","0","","","","","","","","","","","","","","",""
"","html-keyboard-response","109","490097","0.0-184.0","0d9lxg08","1920","1080","","","","","","","","","","","null","+","Fixation - short","","null","","","","","","","","","","","","","","","","",""
"","html-keyboard-response","110","491140","0.0-185.0","0d9lxg08","","","","","","","","","","","","","1042","pmf","Diagnostic trial","","f","","0","0","5","false","false","true","both pre & post","LEFT","LEFT","f","1","true","","","",""
"","html-keyboard-response","111","491898","0.0-188.0","0d9lxg08","1920","1080","","","","","","","","","","","null","+","Fixation - short","","null","","","","","","","","","","","","","","","","",""
"","html-keyboard-response","112","492646","0.0-189.0","0d9lxg08","","","","","","","","","","","","","747","jcr","Diagnostic trial","","f","","0","1","5","false","false","true","both pre & post","RIGHT","LEFT","f","1","false","","","",""
"","html-keyboard-response","113","493405","0.0-192.0","0d9lxg08","1920","1080","","","","","","","","","","","null","+","Fixation - short","","null","","","","","","","","","","","","","","","","",""
"","html-keyboard-response","114","494085","0.0-193.0","0d9lxg08","","","","","","","","","","","","","679","jcr","Diagnostic trial","","j","","0","2","5","false","false","false","both pre & post","RIGHT","RIGHT","j","1","true","","","",""
"","html-keyboard-response","115","494846","0.0-196.0","0d9lxg08","1920","1080","","","","","","","","","","","null","+","Fixation - short","","null","","","","","","","","","","","","","","","","",""
"","html-keyboard-response","116","495880","0.0-197.0","0d9lxg08","","","","","","","","","","","","","1033","pmf","Diagnostic trial","","f","","0","3","5","false","false","true","both pre & post","LEFT","LEFT","f","1","true","","","",""
"","html-keyboard-response","117","496633","0.0-200.0","0d9lxg08","1920","1080","","","","","","","","","","","null","+","Fixation - short","","null","","","","","","","","","","","","","","","","",""
"","html-keyboard-response","118","497324","0.0-201.0","0d9lxg08","","","","","","","","","","","","","690","jcr","Diagnostic trial","","f","","0","4","5","false","false","true","both pre & post","RIGHT","LEFT","f","1","false","","","",""
"","html-keyboard-response","119","498089","0.0-204.0","0d9lxg08","1920","1080","","","","","","","","","","","null","+","Fixation - short","","null","","","","","","","","","","","","","","","","",""
"","canvas-keyboard-response","120","499347","0.0-205.0","0d9lxg08","","","","","","","","","","","","","null","Cue","Cue","","null","","0","4","","","false","","","","","","","","","","",""
"","html-keyboard-response","121","500101","0.0-206.0","0d9lxg08","1920","1080","","","","","","","","","","","null","+","Fixation - short","","null","","","","","","","","","","","","","","","","",""
"","html-keyboard-response","122","500875","0.0-207.0","0d9lxg08","","","","","","","","","","","","","773","jcr","Diagnostic trial","","f","","0","5","5","true","false","true","both pre & post","RIGHT","LEFT","f","1","false","","","",""
"","html-keyboard-response","123","501633","0.0-210.0","0d9lxg08","1920","1080","","","","","","","","","","","null","+","Fixation - short","","null","","","","","","","","","","","","","","","","",""
"","html-keyboard-response","124","502475","0.0-211.0","0d9lxg08","","","","","","","","","","","","","841","pmf","Inducer trial","","j","","0","","","","true","","","","","f","0","","false","LEFT","",""
"","call-function","125","502475","0.0-213.0-0.0","0d9lxg08","","","","","","","","","","","","","","","","","","","","","","","","","","","","","","","","","",""
"","html-keyboard-response","126","502778","0.0-213.0-1.0","0d9lxg08","1920","1080","","","","","","","","","","","null","Wrong","Feedback","","null","","","","","","","","","","","","","","","","",""
"","call-function","127","502779","0.0-213.0-2.0","0d9lxg08","","","","","","","","","","","","","","","","","","","","","","","","","","","","","","","","","",""
"","html-keyboard-response","128","503543","0.0-214.0","0d9lxg08","1920","1080","","","","","","","","","","","null","+","Fixation - short","","null","","","","","","","","","","","","","","","","",""
"","html-keyboard-response","129","513965","0.0-215.0","0d9lxg08","","","","","","","","","","","","","10422","If ecl press LEFT | If eeu press RIGHT","Inducer instructions",""," ","","1","","","","","","","","","","","","","","",""
"","html-keyboard-response","130","514720","0.0-216.0","0d9lxg08","1920","1080","","","","","","","","","","","null","+","Fixation - short","","null","","","","","","","","","","","","","","","","",""
"","html-keyboard-response","131","515493","0.0-217.0","0d9lxg08","","","","","","","","","","","","","772","ecl","Diagnostic trial","","f","","1","0","4","false","false","true","both pre & post","LEFT","LEFT","f","1","true","","","",""
"","html-keyboard-response","132","516254","0.0-220.0","0d9lxg08","1920","1080","","","","","","","","","","","null","+","Fixation - short","","null","","","","","","","","","","","","","","","","",""
"","html-keyboard-response","133","516951","0.0-221.0","0d9lxg08","","","","","","","","","","","","","696","eeu","Diagnostic trial","","f","","1","1","4","false","false","true","both pre & post","RIGHT","LEFT","f","1","false","","","",""
"","html-keyboard-response","134","517708","0.0-224.0","0d9lxg08","1920","1080","","","","","","","","","","","null","+","Fixation - short","","null","","","","","","","","","","","","","","","","",""
"","html-keyboard-response","135","518347","0.0-225.0","0d9lxg08","","","","","","","","","","","","","638","ecl","Diagnostic trial","","f","","1","2","4","false","false","true","both pre & post","LEFT","LEFT","f","1","true","","","",""
"","html-keyboard-response","136","519108","0.0-228.0","0d9lxg08","1920","1080","","","","","","","","","","","null","+","Fixation - short","","null","","","","","","","","","","","","","","","","",""
"","html-keyboard-response","137","519603","0.0-229.0","0d9lxg08","","","","","","","","","","","","","494","eeu","Diagnostic trial","","f","","1","3","4","false","false","true","both pre & post","RIGHT","LEFT","f","1","false","","","",""
"","html-keyboard-response","138","520362","0.0-232.0","0d9lxg08","1920","1080","","","","","","","","","","","null","+","Fixation - short","","null","","","","","","","","","","","","","","","","",""
"","canvas-keyboard-response","139","521620","0.0-233.0","0d9lxg08","","","","","","","","","","","","","null","Cue","Cue","","null","","1","3","","","false","","","","","","","","","","",""
"","html-keyboard-response","140","522376","0.0-234.0","0d9lxg08","1920","1080","","","","","","","","","","","null","+","Fixation - short","","null","","","","","","","","","","","","","","","","",""
"","html-keyboard-response","141","522989","0.0-235.0","0d9lxg08","","","","","","","","","","","","","612","eeu","Diagnostic trial","","j","","1","4","4","true","false","false","both pre & post","RIGHT","RIGHT","j","1","true","","","",""
"","html-keyboard-response","142","523750","0.0-238.0","0d9lxg08","1920","1080","","","","","","","","","","","null","+","Fixation - short","","null","","","","","","","","","","","","","","","","",""
"","html-keyboard-response","143","524435","0.0-239.0","0d9lxg08","","","","","","","","","","","","","685","eeu","Diagnostic trial","","f","","1","5","4","true","false","true","both pre & post","RIGHT","LEFT","f","1","false","","","",""
"","html-keyboard-response","144","525191","0.0-242.0","0d9lxg08","1920","1080","","","","","","","","","","","null","+","Fixation - short","","null","","","","","","","","","","","","","","","","",""
"","html-keyboard-response","145","525716","0.0-243.0","0d9lxg08","","","","","","","","","","","","","524","eeu","Diagnostic trial","","f","","1","6","4","true","false","true","both pre & post","RIGHT","LEFT","f","1","false","","","",""
"","html-keyboard-response","146","526471","0.0-246.0","0d9lxg08","1920","1080","","","","","","","","","","","null","+","Fixation - short","","null","","","","","","","","","","","","","","","","",""
"","html-keyboard-response","147","527079","0.0-247.0","0d9lxg08","","","","","","","","","","","","","607","eeu","Diagnostic trial","","f","","1","7","4","true","false","true","both pre & post","RIGHT","LEFT","f","1","false","","","",""
"","html-keyboard-response","148","527832","0.0-250.0","0d9lxg08","1920","1080","","","","","","","","","","","null","+","Fixation - short","","null","","","","","","","","","","","","","","","","",""
"","html-keyboard-response","149","528501","0.0-251.0","0d9lxg08","","","","","","","","","","","","","669","ecl","Inducer trial","","j","","1","","","","true","","","","","f","0","","false","LEFT","",""
"","call-function","150","528501","0.0-253.0-0.0","0d9lxg08","","","","","","","","","","","","","","","","","","","","","","","","","","","","","","","","","",""
"","html-keyboard-response","151","528803","0.0-253.0-1.0","0d9lxg08","1920","1080","","","","","","","","","","","null","Wrong","Feedback","","null","","","","","","","","","","","","","","","","",""
"","call-function","152","528804","0.0-253.0-2.0","0d9lxg08","","","","","","","","","","","","","","","","","","","","","","","","","","","","","","","","","",""
"","html-keyboard-response","153","529566","0.0-254.0","0d9lxg08","1920","1080","","","","","","","","","","","null","+","Fixation - short","","null","","","","","","","","","","","","","","","","",""
"","html-keyboard-response","154","542916","0.0-255.0","0d9lxg08","","","","","","","","","","","","","13357","If vpu press LEFT | If efg press RIGHT","Inducer instructions",""," ","","2","","","","","","","","","","","","","","",""
"","html-keyboard-response","155","543668","0.0-256.0","0d9lxg08","1920","1080","","","","","","","","","","","null","+","Fixation - short","","null","","","","","","","","","","","","","","","","",""
"","html-keyboard-response","156","544722","0.0-257.0","0d9lxg08","","","","","","","","","","","","","1054","vpu","Diagnostic trial","","j","","2","0","10","false","false","false","both pre & post","LEFT","RIGHT","j","1","false","","","",""
"","html-keyboard-response","157","545480","0.0-260.0","0d9lxg08","1920","1080","","","","","","","","","","","null","+","Fixation - short","","null","","","","","","","","","","","","","","","","",""
"","html-keyboard-response","158","546105","0.0-261.0","0d9lxg08","","","","","","","","","","","","","625","efg","Diagnostic trial","","f","","2","1","10","false","false","true","both pre & post","RIGHT","LEFT","f","1","false","","","",""
"","html-keyboard-response","159","546872","0.0-264.0","0d9lxg08","1920","1080","","","","","","","","","","","null","+","Fixation - short","","null","","","","","","","","","","","","","","","","",""
"","html-keyboard-response","160","547673","0.0-265.0","0d9lxg08","","","","","","","","","","","","","801","vpu","Diagnostic trial","","j","","2","2","10","false","false","false","both pre & post","LEFT","RIGHT","j","1","false","","","",""
"","html-keyboard-response","161","548431","0.0-268.0","0d9lxg08","1920","1080","","","","","","","","","","","null","+","Fixation - short","","null","","","","","","","","","","","","","","","","",""
"","html-keyboard-response","162","549305","0.0-269.0","0d9lxg08","","","","","","","","","","","","","874","efg","Diagnostic trial","","j","","2","3","10","false","false","false","both pre & post","RIGHT","RIGHT","j","1","true","","","",""
"","html-keyboard-response","163","550058","0.0-272.0","0d9lxg08","1920","1080","","","","","","","","","","","null","+","Fixation - short","","null","","","","","","","","","","","","","","","","",""
"","html-keyboard-response","164","550827","0.0-273.0","0d9lxg08","","","","","","","","","","","","","769","efg","Diagnostic trial","","j","","2","4","10","false","false","false","both pre & post","RIGHT","RIGHT","j","1","true","","","",""
"","html-keyboard-response","165","551594","0.0-276.0","0d9lxg08","1920","1080","","","","","","","","","","","null","+","Fixation - short","","null","","","","","","","","","","","","","","","","",""
"","html-keyboard-response","166","552424","0.0-277.0","0d9lxg08","","","","","","","","","","","","","830","vpu","Diagnostic trial","","j","","2","5","10","false","false","false","both pre & post","LEFT","RIGHT","j","1","false","","","",""
"","html-keyboard-response","167","553178","0.0-280.0","0d9lxg08","1920","1080","","","","","","","","","","","null","+","Fixation - short","","null","","","","","","","","","","","","","","","","",""
"","html-keyboard-response","168","553744","0.0-281.0","0d9lxg08","","","","","","","","","","","","","565","efg","Diagnostic trial","","j","","2","6","10","false","false","false","both pre & post","RIGHT","RIGHT","j","1","true","","","",""
"","html-keyboard-response","169","554500","0.0-284.0","0d9lxg08","1920","1080","","","","","","","","","","","null","+","Fixation - short","","null","","","","","","","","","","","","","","","","",""
"","html-keyboard-response","170","554990","0.0-285.0","0d9lxg08","","","","","","","","","","","","","489","efg","Diagnostic trial","","f","","2","7","10","false","false","true","both pre & post","RIGHT","LEFT","f","1","false","","","",""
"","html-keyboard-response","171","555755","0.0-288.0","0d9lxg08","1920","1080","","","","","","","","","","","null","+","Fixation - short","","null","","","","","","","","","","","","","","","","",""
"","html-keyboard-response","172","556322","0.0-289.0","0d9lxg08","","","","","","","","","","","","","566","vpu","Diagnostic trial","","f","","2","8","10","false","false","true","both pre & post","LEFT","LEFT","f","1","true","","","",""
"","html-keyboard-response","173","557073","0.0-292.0","0d9lxg08","1920","1080","","","","","","","","","","","null","+","Fixation - short","","null","","","","","","","","","","","","","","","","",""
"","html-keyboard-response","174","557616","0.0-293.0","0d9lxg08","","","","","","","","","","","","","543","vpu","Diagnostic trial","","f","","2","9","10","false","false","true","both pre & post","LEFT","LEFT","f","1","true","","","",""
"","html-keyboard-response","175","558369","0.0-296.0","0d9lxg08","1920","1080","","","","","","","","","","","null","+","Fixation - short","","null","","","","","","","","","","","","","","","","",""
"","canvas-keyboard-response","176","559628","0.0-297.0","0d9lxg08","","","","","","","","","","","","","null","Cue","Cue","","null","","2","9","","","false","","","","","","","","","","",""
"","html-keyboard-response","177","560381","0.0-298.0","0d9lxg08","1920","1080","","","","","","","","","","","null","+","Fixation - short","","null","","","","","","","","","","","","","","","","",""
"","html-keyboard-response","178","561023","0.0-299.0","0d9lxg08","","","","","","","","","","","","","641","vpu","Diagnostic trial","","f","","2","10","10","true","false","false","both pre & post","LEFT","RIGHT","j","0","false","","","",""
"","call-function","179","561024","0.0-301.0-0.0","0d9lxg08","","","","","","","","","","","","","","","","","","","","","","","","","","","","","","","","","",""
"","html-keyboard-response","180","561327","0.0-301.0-1.0","0d9lxg08","1920","1080","","","","","","","","","","","null","Wrong","Feedback","","null","","","","","","","","","","","","","","","","",""
"","call-function","181","561327","0.0-301.0-2.0","0d9lxg08","","","","","","","","","","","","","","","","","","","","","","","","","","","","","","","","","",""
"","html-keyboard-response","182","562089","0.0-302.0","0d9lxg08","1920","1080","","","","","","","","","","","null","+","Fixation - short","","null","","","","","","","","","","","","","","","","",""
"","html-keyboard-response","183","562821","0.0-303.0","0d9lxg08","","","","","","","","","","","","","732","efg","Diagnostic trial","","j","","2","11","10","true","false","false","both pre & post","RIGHT","RIGHT","j","1","true","","","",""
"","html-keyboard-response","184","563583","0.0-306.0","0d9lxg08","1920","1080","","","","","","","","","","","null","+","Fixation - short","","null","","","","","","","","","","","","","","","","",""
"","html-keyboard-response","185","564063","0.0-307.0","0d9lxg08","","","","","","","","","","","","","479","efg","Diagnostic trial","","j","","2","12","10","true","false","false","both pre & post","RIGHT","RIGHT","j","1","true","","","",""
"","html-keyboard-response","186","564821","0.0-310.0","0d9lxg08","1920","1080","","","","","","","","","","","null","+","Fixation - short","","null","","","","","","","","","","","","","","","","",""
"","html-keyboard-response","187","565480","0.0-311.0","0d9lxg08","","","","","","","","","","","","","658","efg","Inducer trial","","j","","2","","","","true","","","","","j","1","","false","RIGHT","",""
"","html-keyboard-response","188","566237","0.0-314.0","0d9lxg08","1920","1080","","","","","","","","","","","null","+","Fixation - short","","null","","","","","","","","","","","","","","","","",""
"","html-keyboard-response","189","572598","0.0-315.0","0d9lxg08","","","","","","","","","","","","","6361","If pph press LEFT | If vnn press RIGHT","Inducer instructions",""," ","","3","","","","","","","","","","","","","","",""
"","html-keyboard-response","190","573360","0.0-316.0","0d9lxg08","1920","1080","","","","","","","","","","","null","+","Fixation - short","","null","","","","","","","","","","","","","","","","",""
"","html-keyboard-response","191","574057","0.0-317.0","0d9lxg08","","","","","","","","","","","","","697","vnn","Diagnostic trial","","j","","3","0","4","false","false","false","both pre & post","RIGHT","RIGHT","j","1","true","","","",""
"","html-keyboard-response","192","574814","0.0-320.0","0d9lxg08","1920","1080","","","","","","","","","","","null","+","Fixation - short","","null","","","","","","","","","","","","","","","","",""
"","html-keyboard-response","193","575398","0.0-321.0","0d9lxg08","","","","","","","","","","","","","584","vnn","Diagnostic trial","","j","","3","1","4","false","false","false","both pre & post","RIGHT","RIGHT","j","1","true","","","",""
"","html-keyboard-response","194","576163","0.0-324.0","0d9lxg08","1920","1080","","","","","","","","","","","null","+","Fixation - short","","null","","","","","","","","","","","","","","","","",""
"","html-keyboard-response","195","576999","0.0-325.0","0d9lxg08","","","","","","","","","","","","","836","pph","Diagnostic trial","","j","","3","2","4","false","false","false","both pre & post","LEFT","RIGHT","j","1","false","","","",""
"","html-keyboard-response","196","577766","0.0-328.0","0d9lxg08","1920","1080","","","","","","","","","","","null","+","Fixation - short","","null","","","","","","","","","","","","","","","","",""
"","html-keyboard-response","197","578293","0.0-329.0","0d9lxg08","","","","","","","","","","","","","527","pph","Diagnostic trial","","f","","3","3","4","false","false","true","both pre & post","LEFT","LEFT","f","1","true","","","",""
"","html-keyboard-response","198","579057","0.0-332.0","0d9lxg08","1920","1080","","","","","","","","","","","null","+","Fixation - short","","null","","","","","","","","","","","","","","","","",""
"","canvas-keyboard-response","199","580315","0.0-333.0","0d9lxg08","","","","","","","","","","","","","null","Cue","Cue","","null","","3","3","","","false","","","","","","","","","","",""
"","html-keyboard-response","200","581069","0.0-334.0","0d9lxg08","1920","1080","","","","","","","","","","","null","+","Fixation - short","","null","","","","","","","","","","","","","","","","",""
"","html-keyboard-response","201","581564","0.0-335.0","0d9lxg08","","","","","","","","","","","","","494","vnn","Diagnostic trial","","j","","3","4","4","true","false","false","both pre & post","RIGHT","RIGHT","j","1","true","","","",""
"","html-keyboard-response","202","582323","0.0-338.0","0d9lxg08","1920","1080","","","","","","","","","","","null","+","Fixation - short","","null","","","","","","","","","","","","","","","","",""
"","html-keyboard-response","203","582760","0.0-339.0","0d9lxg08","","","","","","","","","","","","","436","vnn","Diagnostic trial","","j","","3","5","4","true","false","false","both pre & post","RIGHT","RIGHT","j","1","true","","","",""
"","html-keyboard-response","204","583526","0.0-342.0","0d9lxg08","1920","1080","","","","","","","","","","","null","+","Fixation - short","","null","","","","","","","","","","","","","","","","",""
"","html-keyboard-response","205","584170","0.0-343.0","0d9lxg08","","","","","","","","","","","","","643","vnn","Diagnostic trial","","f","","3","6","4","true","false","true","both pre & post","RIGHT","LEFT","f","1","false","","","",""
"","html-keyboard-response","206","584924","0.0-346.0","0d9lxg08","1920","1080","","","","","","","","","","","null","+","Fixation - short","","null","","","","","","","","","","","","","","","","",""
"","html-keyboard-response","207","585571","0.0-347.0","0d9lxg08","","","","","","","","","","","","","647","pph","Diagnostic trial","","j","","3","7","4","true","false","false","both pre & post","LEFT","RIGHT","j","1","false","","","",""
"","html-keyboard-response","208","586324","0.0-350.0","0d9lxg08","1920","1080","","","","","","","","","","","null","+","Fixation - short","","null","","","","","","","","","","","","","","","","",""
"","html-keyboard-response","209","586990","0.0-351.0","0d9lxg08","","","","","","","","","","","","","665","pph","Inducer trial","","j","","3","","","","true","","","","","f","0","","false","LEFT","",""
"","call-function","210","586990","0.0-353.0-0.0","0d9lxg08","","","","","","","","","","","","","","","","","","","","","","","","","","","","","","","","","",""
"","html-keyboard-response","211","587296","0.0-353.0-1.0","0d9lxg08","1920","1080","","","","","","","","","","","null","Wrong","Feedback","","null","","","","","","","","","","","","","","","","",""
"","call-function","212","587297","0.0-353.0-2.0","0d9lxg08","","","","","","","","","","","","","","","","","","","","","","","","","","","","","","","","","",""
"","html-keyboard-response","213","588056","0.0-354.0","0d9lxg08","1920","1080","","","","","","","","","","","null","+","Fixation - short","","null","","","","","","","","","","","","","","","","",""
"","html-keyboard-response","214","597163","0.0-355.0","0d9lxg08","","","","","","","","","","","","","9106","If vrm press LEFT | If cta press RIGHT","Inducer instructions",""," ","","4","","","","","","","","","","","","","","",""
"","html-keyboard-response","215","597918","0.0-356.0","0d9lxg08","1920","1080","","","","","","","","","","","null","+","Fixation - short","","null","","","","","","","","","","","","","","","","",""
"","html-keyboard-response","216","598624","0.0-357.0","0d9lxg08","","","","","","","","","","","","","706","vrm","Diagnostic trial","","f","","4","0","4","false","false","true","both pre & post","LEFT","LEFT","f","1","true","","","",""
"","html-keyboard-response","217","599382","0.0-360.0","0d9lxg08","1920","1080","","","","","","","","","","","null","+","Fixation - short","","null","","","","","","","","","","","","","","","","",""
"","html-keyboard-response","218","599955","0.0-361.0","0d9lxg08","","","","","","","","","","","","","573","vrm","Diagnostic trial","","f","","4","1","4","false","false","true","both pre & post","LEFT","LEFT","f","1","true","","","",""
"","html-keyboard-response","219","600716","0.0-364.0","0d9lxg08","1920","1080","","","","","","","","","","","null","+","Fixation - short","","null","","","","","","","","","","","","","","","","",""
"","html-keyboard-response","220","601168","0.0-365.0","0d9lxg08","","","","","","","","","","","","","451","vrm","Diagnostic trial","","f","","4","2","4","false","false","true","both pre & post","LEFT","LEFT","f","1","true","","","",""
"","html-keyboard-response","221","601934","0.0-368.0","0d9lxg08","1920","1080","","","","","","","","","","","null","+","Fixation - short","","null","","","","","","","","","","","","","","","","",""
"","html-keyboard-response","222","602498","0.0-369.0","0d9lxg08","","","","","","","","","","","","","564","cta","Diagnostic trial","","f","","4","3","4","false","false","true","both pre & post","RIGHT","LEFT","f","1","false","","","",""
"","html-keyboard-response","223","603259","0.0-372.0","0d9lxg08","1920","1080","","","","","","","","","","","null","+","Fixation - short","","null","","","","","","","","","","","","","","","","",""
"","canvas-keyboard-response","224","604519","0.0-373.0","0d9lxg08","","","","","","","","","","","","","null","Cue","Cue","","null","","4","3","","","false","","","","","","","","","","",""
"","html-keyboard-response","225","605272","0.0-374.0","0d9lxg08","1920","1080","","","","","","","","","","","null","+","Fixation - short","","null","","","","","","","","","","","","","","","","",""
"","html-keyboard-response","226","605726","0.0-375.0","0d9lxg08","","","","","","","","","","","","","453","cta","Diagnostic trial","","f","","4","4","4","true","false","true","both pre & post","RIGHT","LEFT","f","1","false","","","",""
"","html-keyboard-response","227","606484","0.0-378.0","0d9lxg08","1920","1080","","","","","","","","","","","null","+","Fixation - short","","null","","","","","","","","","","","","","","","","",""
"","html-keyboard-response","228","607222","0.0-379.0","0d9lxg08","","","","","","","","","","","","","737","vrm","Diagnostic trial","","f","","4","5","4","true","false","true","both pre & post","LEFT","LEFT","f","1","true","","","",""
"","html-keyboard-response","229","607981","0.0-382.0","0d9lxg08","1920","1080","","","","","","","","","","","null","+","Fixation - short","","null","","","","","","","","","","","","","","","","",""
"","html-keyboard-response","230","608550","0.0-383.0","0d9lxg08","","","","","","","","","","","","","568","vrm","Diagnostic trial","","f","","4","6","4","true","false","true","both pre & post","LEFT","LEFT","f","1","true","","","",""
"","html-keyboard-response","231","609316","0.0-386.0","0d9lxg08","1920","1080","","","","","","","","","","","null","+","Fixation - short","","null","","","","","","","","","","","","","","","","",""
"","html-keyboard-response","232","609806","0.0-387.0","0d9lxg08","","","","","","","","","","","","","489","cta","Inducer trial","","j","","4","","","","true","","","","","j","1","","false","RIGHT","",""
"","html-keyboard-response","233","610572","0.0-390.0","0d9lxg08","1920","1080","","","","","","","","","","","null","+","Fixation - short","","null","","","","","","","","","","","","","","","","",""
"","html-keyboard-response","234","615991","0.0-391.0","0d9lxg08","","","","","","","","","","","","","5419","If adj press LEFT | If mda press RIGHT","Inducer instructions",""," ","","5","","","","","","","","","","","","","","",""
"","html-keyboard-response","235","616744","0.0-392.0","0d9lxg08","1920","1080","","","","","","","","","","","null","+","Fixation - short","","null","","","","","","","","","","","","","","","","",""
"","html-keyboard-response","236","617419","0.0-393.0","0d9lxg08","","","","","","","","","","","","","674","adj","Diagnostic trial","","j","","5","0","4","false","false","false","both pre & post","LEFT","RIGHT","j","1","false","","","",""
"","html-keyboard-response","237","618171","0.0-396.0","0d9lxg08","1920","1080","","","","","","","","","","","null","+","Fixation - short","","null","","","","","","","","","","","","","","","","",""
"","html-keyboard-response","238","618678","0.0-397.0","0d9lxg08","","","","","","","","","","","","","507","adj","Diagnostic trial","","j","","5","1","4","false","false","false","both pre & post","LEFT","RIGHT","j","1","false","","","",""
"","html-keyboard-response","239","619438","0.0-400.0","0d9lxg08","1920","1080","","","","","","","","","","","null","+","Fixation - short","","null","","","","","","","","","","","","","","","","",""
"","html-keyboard-response","240","619915","0.0-401.0","0d9lxg08","","","","","","","","","","","","","477","mda","Diagnostic trial","","j","","5","2","4","false","false","false","both pre & post","RIGHT","RIGHT","j","1","true","","","",""
"","html-keyboard-response","241","620681","0.0-404.0","0d9lxg08","1920","1080","","","","","","","","","","","null","+","Fixation - short","","null","","","","","","","","","","","","","","","","",""
"","html-keyboard-response","242","621039","0.0-405.0","0d9lxg08","","","","","","","","","","","","","358","mda","Diagnostic trial","","j","","5","3","4","false","false","false","both pre & post","RIGHT","RIGHT","j","1","true","","","",""
"","html-keyboard-response","243","621799","0.0-408.0","0d9lxg08","1920","1080","","","","","","","","","","","null","+","Fixation - short","","null","","","","","","","","","","","","","","","","",""
"","canvas-keyboard-response","244","623057","0.0-409.0","0d9lxg08","","","","","","","","","","","","","null","Cue","Cue","","null","","5","3","","","false","","","","","","","","","","",""
"","html-keyboard-response","245","623813","0.0-410.0","0d9lxg08","1920","1080","","","","","","","","","","","null","+","Fixation - short","","null","","","","","","","","","","","","","","","","",""
"","html-keyboard-response","246","624302","0.0-411.0","0d9lxg08","","","","","","","","","","","","","489","mda","Diagnostic trial","","j","","5","4","4","true","false","false","both pre & post","RIGHT","RIGHT","j","1","true","","","",""
"","html-keyboard-response","247","625054","0.0-414.0","0d9lxg08","1920","1080","","","","","","","","","","","null","+","Fixation - short","","null","","","","","","","","","","","","","","","","",""
"","html-keyboard-response","248","625625","0.0-415.0","0d9lxg08","","","","","","","","","","","","","570","adj","Diagnostic trial","","j","","5","5","4","true","false","false","both pre & post","LEFT","RIGHT","j","1","false","","","",""
"","html-keyboard-response","249","626388","0.0-418.0","0d9lxg08","1920","1080","","","","","","","","","","","null","+","Fixation - short","","null","","","","","","","","","","","","","","","","",""
"","html-keyboard-response","250","627081","0.0-419.0","0d9lxg08","","","","","","","","","","","","","692","mda","Diagnostic trial","","f","","5","6","4","true","false","true","both pre & post","RIGHT","LEFT","f","1","false","","","",""
"","html-keyboard-response","251","627841","0.0-422.0","0d9lxg08","1920","1080","","","","","","","","","","","null","+","Fixation - short","","null","","","","","","","","","","","","","","","","",""
"","html-keyboard-response","252","628503","0.0-423.0","0d9lxg08","","","","","","","","","","","","","661","mda","Diagnostic trial","","j","","5","7","4","true","false","false","both pre & post","RIGHT","RIGHT","j","1","true","","","",""
"","html-keyboard-response","253","629255","0.0-426.0","0d9lxg08","1920","1080","","","","","","","","","","","null","+","Fixation - short","","null","","","","","","","","","","","","","","","","",""
"","html-keyboard-response","254","629830","0.0-427.0","0d9lxg08","","","","","","","","","","","","","574","adj","Inducer trial","","f","","5","","","","true","","","","","f","1","","false","LEFT","",""
"","html-keyboard-response","255","630588","0.0-430.0","0d9lxg08","1920","1080","","","","","","","","","","","null","+","Fixation - short","","null","","","","","","","","","","","","","","","","",""
"","html-keyboard-response","256","638670","0.0-431.0","0d9lxg08","","","","","","","","","","","","","8082","If lpn press LEFT | If mik press RIGHT","Inducer instructions",""," ","","6","","","","","","","","","","","","","","",""
"","html-keyboard-response","257","639432","0.0-432.0","0d9lxg08","1920","1080","","","","","","","","","","","null","+","Fixation - short","","null","","","","","","","","","","","","","","","","",""
"","html-keyboard-response","258","640078","0.0-433.0","0d9lxg08","","","","","","","","","","","","","646","lpn","Diagnostic trial","","f","","6","0","6","false","false","true","both pre & post","LEFT","LEFT","f","1","true","","","",""
"","html-keyboard-response","259","640832","0.0-436.0","0d9lxg08","1920","1080","","","","","","","","","","","null","+","Fixation - short","","null","","","","","","","","","","","","","","","","",""
"","html-keyboard-response","260","641294","0.0-437.0","0d9lxg08","","","","","","","","","","","","","462","lpn","Diagnostic trial","","f","","6","1","6","false","false","true","both pre & post","LEFT","LEFT","f","1","true","","","",""
"","html-keyboard-response","261","642046","0.0-440.0","0d9lxg08","1920","1080","","","","","","","","","","","null","+","Fixation - short","","null","","","","","","","","","","","","","","","","",""
"","html-keyboard-response","262","642457","0.0-441.0","0d9lxg08","","","","","","","","","","","","","410","lpn","Diagnostic trial","","f","","6","2","6","false","false","true","both pre & post","LEFT","LEFT","f","1","true","","","",""
"","html-keyboard-response","263","643222","0.0-444.0","0d9lxg08","1920","1080","","","","","","","","","","","null","+","Fixation - short","","null","","","","","","","","","","","","","","","","",""
"","html-keyboard-response","264","643826","0.0-445.0","0d9lxg08","","","","","","","","","","","","","604","lpn","Diagnostic trial","","j","","6","3","6","false","false","false","both pre & post","LEFT","RIGHT","j","1","false","","","",""
"","html-keyboard-response","265","644581","0.0-448.0","0d9lxg08","1920","1080","","","","","","","","","","","null","+","Fixation - short","","null","","","","","","","","","","","","","","","","",""
"","html-keyboard-response","266","645290","0.0-449.0","0d9lxg08","","","","","","","","","","","","","709","mik","Diagnostic trial","","f","","6","4","6","false","false","true","both pre & post","RIGHT","LEFT","f","1","false","","","",""
"","html-keyboard-response","267","646048","0.0-452.0","0d9lxg08","1920","1080","","","","","","","","","","","null","+","Fixation - short","","null","","","","","","","","","","","","","","","","",""
"","html-keyboard-response","268","646537","0.0-453.0","0d9lxg08","","","","","","","","","","","","","489","mik","Diagnostic trial","","f","","6","5","6","false","false","true","both pre & post","RIGHT","LEFT","f","1","false","","","",""
"","html-keyboard-response","269","647303","0.0-456.0","0d9lxg08","1920","1080","","","","","","","","","","","null","+","Fixation - short","","null","","","","","","","","","","","","","","","","",""
"","canvas-keyboard-response","270","648562","0.0-457.0","0d9lxg08","","","","","","","","","","","","","null","Cue","Cue","","null","","6","5","","","false","","","","","","","","","","",""
"","html-keyboard-response","271","649316","0.0-458.0","0d9lxg08","1920","1080","","","","","","","","","","","null","+","Fixation - short","","null","","","","","","","","","","","","","","","","",""
"","html-keyboard-response","272","649866","0.0-459.0","0d9lxg08","","","","","","","","","","","","","550","mik","Diagnostic trial","","f","","6","6","6","true","false","true","both pre & post","RIGHT","LEFT","f","1","false","","","",""
"","html-keyboard-response","273","650623","0.0-462.0","0d9lxg08","1920","1080","","","","","","","","","","","null","+","Fixation - short","","null","","","","","","","","","","","","","","","","",""
"","html-keyboard-response","274","651312","0.0-463.0","0d9lxg08","","","","","","","","","","","","","689","mik","Diagnostic trial","","f","","6","7","6","true","false","true","both pre & post","RIGHT","LEFT","f","1","false","","","",""
"","html-keyboard-response","275","652079","0.0-466.0","0d9lxg08","1920","1080","","","","","","","","","","","null","+","Fixation - short","","null","","","","","","","","","","","","","","","","",""
"","html-keyboard-response","276","652642","0.0-467.0","0d9lxg08","","","","","","","","","","","","","563","mik","Diagnostic trial","","j","","6","8","6","true","false","false","both pre & post","RIGHT","RIGHT","j","1","true","","","",""
"","html-keyboard-response","277","653397","0.0-470.0","0d9lxg08","1920","1080","","","","","","","","","","","null","+","Fixation - short","","null","","","","","","","","","","","","","","","","",""
"","html-keyboard-response","278","653824","0.0-471.0","0d9lxg08","","","","","","","","","","","","","427","mik","Diagnostic trial","","j","","6","9","6","true","false","false","both pre & post","RIGHT","RIGHT","j","1","true","","","",""
"","html-keyboard-response","279","654581","0.0-474.0","0d9lxg08","1920","1080","","","","","","","","","","","null","+","Fixation - short","","null","","","","","","","","","","","","","","","","",""
"","html-keyboard-response","280","655082","0.0-475.0","0d9lxg08","","","","","","","","","","","","","500","lpn","Inducer trial","","f","","6","","","","true","","","","","f","1","","false","LEFT","",""
"","html-keyboard-response","281","655837","0.0-478.0","0d9lxg08","1920","1080","","","","","","","","","","","null","+","Fixation - short","","null","","","","","","","","","","","","","","","","",""
"","html-keyboard-response","282","660234","0.0-479.0","0d9lxg08","","","","","","","","","","","","","4396","If byy press LEFT | If asn press RIGHT","Inducer instructions",""," ","","7","","","","","","","","","","","","","","",""
"","html-keyboard-response","283","660986","0.0-480.0","0d9lxg08","1920","1080","","","","","","","","","","","null","+","Fixation - short","","null","","","","","","","","","","","","","","","","",""
"","html-keyboard-response","284","661649","0.0-481.0","0d9lxg08","","","","","","","","","","","","","662","asn","Diagnostic trial","","j","","7","0","4","false","false","false","both pre & post","RIGHT","RIGHT","j","1","true","","","",""
"","html-keyboard-response","285","662416","0.0-484.0","0d9lxg08","1920","1080","","","","","","","","","","","null","+","Fixation - short","","null","","","","","","","","","","","","","","","","",""
"","html-keyboard-response","286","663062","0.0-485.0","0d9lxg08","","","","","","","","","","","","","646","asn","Diagnostic trial","","f","","7","1","4","false","false","true","both pre & post","RIGHT","LEFT","f","1","false","","","",""
"","html-keyboard-response","287","663815","0.0-488.0","0d9lxg08","1920","1080","","","","","","","","","","","null","+","Fixation - short","","null","","","","","","","","","","","","","","","","",""
"","html-keyboard-response","288","664623","0.0-489.0","0d9lxg08","","","","","","","","","","","","","808","byy","Diagnostic trial","","j","","7","2","4","false","false","false","both pre & post","LEFT","RIGHT","j","1","false","","","",""
"","html-keyboard-response","289","665375","0.0-492.0","0d9lxg08","1920","1080","","","","","","","","","","","null","+","Fixation - short","","null","","","","","","","","","","","","","","","","",""
"","html-keyboard-response","290","665754","0.0-493.0","0d9lxg08","","","","","","","","","","","","","379","byy","Diagnostic trial","","j","","7","3","4","false","false","false","both pre & post","LEFT","RIGHT","j","1","false","","","",""
"","html-keyboard-response","291","666508","0.0-496.0","0d9lxg08","1920","1080","","","","","","","","","","","null","+","Fixation - short","","null","","","","","","","","","","","","","","","","",""
"","canvas-keyboard-response","292","667766","0.0-497.0","0d9lxg08","","","","","","","","","","","","","null","Cue","Cue","","null","","7","3","","","false","","","","","","","","","","",""
"","html-keyboard-response","293","668523","0.0-498.0","0d9lxg08","1920","1080","","","","","","","","","","","null","+","Fixation - short","","null","","","","","","","","","","","","","","","","",""
"","html-keyboard-response","294","669074","0.0-499.0","0d9lxg08","","","","","","","","","","","","","551","byy","Diagnostic trial","","f","","7","4","4","true","false","true","both pre & post","LEFT","LEFT","f","1","true","","","",""
"","html-keyboard-response","295","669830","0.0-502.0","0d9lxg08","1920","1080","","","","","","","","","","","null","+","Fixation - short","","null","","","","","","","","","","","","","","","","",""
"","html-keyboard-response","296","670462","0.0-503.0","0d9lxg08","","","","","","","","","","","","","631","asn","Diagnostic trial","","j","","7","5","4","true","false","false","both pre & post","RIGHT","RIGHT","j","1","true","","","",""
"","html-keyboard-response","297","671217","0.0-506.0","0d9lxg08","1920","1080","","","","","","","","","","","null","+","Fixation - short","","null","","","","","","","","","","","","","","","","",""
"","html-keyboard-response","298","671846","0.0-507.0","0d9lxg08","","","","","","","","","","","","","629","byy","Diagnostic trial","","f","","7","6","4","true","false","true","both pre & post","LEFT","LEFT","f","1","true","","","",""
"","html-keyboard-response","299","672605","0.0-510.0","0d9lxg08","1920","1080","","","","","","","","","","","null","+","Fixation - short","","null","","","","","","","","","","","","","","","","",""
"","html-keyboard-response","300","673062","0.0-511.0","0d9lxg08","","","","","","","","","","","","","457","byy","Diagnostic trial","","f","","7","7","4","true","false","true","both pre & post","LEFT","LEFT","f","1","true","","","",""
"","html-keyboard-response","301","673818","0.0-514.0","0d9lxg08","1920","1080","","","","","","","","","","","null","+","Fixation - short","","null","","","","","","","","","","","","","","","","",""
"","html-keyboard-response","302","674385","0.0-515.0","0d9lxg08","","","","","","","","","","","","","567","asn","Inducer trial","","j","","7","","","","true","","","","","j","1","","false","RIGHT","",""
"","html-keyboard-response","303","675139","0.0-518.0","0d9lxg08","1920","1080","","","","","","","","","","","null","+","Fixation - short","","null","","","","","","","","","","","","","","","","",""
"","html-keyboard-response","304","679371","0.0-519.0","0d9lxg08","","","","","","","","","","","","","4232","If drk press LEFT | If psl press RIGHT","Inducer instructions",""," ","","8","","","","","","","","","","","","","","",""
"","html-keyboard-response","305","680127","0.0-520.0","0d9lxg08","1920","1080","","","","","","","","","","","null","+","Fixation - short","","null","","","","","","","","","","","","","","","","",""
"","html-keyboard-response","306","680628","0.0-521.0","0d9lxg08","","","","","","","","","","","","","500","drk","Diagnostic trial","","f","","8","0","10","false","false","true","both pre & post","LEFT","LEFT","f","1","true","","","",""
"","html-keyboard-response","307","681381","0.0-524.0","0d9lxg08","1920","1080","","","","","","","","","","","null","+","Fixation - short","","null","","","","","","","","","","","","","","","","",""
"","html-keyboard-response","308","681791","0.0-525.0","0d9lxg08","","","","","","","","","","","","","410","drk","Diagnostic trial","","f","","8","1","10","false","false","true","both pre & post","LEFT","LEFT","f","1","true","","","",""
"","html-keyboard-response","309","682557","0.0-528.0","0d9lxg08","1920","1080","","","","","","","","","","","null","+","Fixation - short","","null","","","","","","","","","","","","","","","","",""
"","html-keyboard-response","310","683217","0.0-529.0","0d9lxg08","","","","","","","","","","","","","660","psl","Diagnostic trial","","f","","8","2","10","false","false","true","both pre & post","RIGHT","LEFT","f","1","false","","","",""
"","html-keyboard-response","311","683983","0.0-532.0","0d9lxg08","1920","1080","","","","","","","","","","","null","+","Fixation - short","","null","","","","","","","","","","","","","","","","",""
"","html-keyboard-response","312","684542","0.0-533.0","0d9lxg08","","","","","","","","","","","","","558","drk","Diagnostic trial","","j","","8","3","10","false","false","false","both pre & post","LEFT","RIGHT","j","1","false","","","",""
"","html-keyboard-response","313","685302","0.0-536.0","0d9lxg08","1920","1080","","","","","","","","","","","null","+","Fixation - short","","null","","","","","","","","","","","","","","","","",""
"","html-keyboard-response","314","685885","0.0-537.0","0d9lxg08","","","","","","","","","","","","","582","psl","Diagnostic trial","","j","","8","4","10","false","false","false","both pre & post","RIGHT","RIGHT","j","1","true","","","",""
"","html-keyboard-response","315","686652","0.0-540.0","0d9lxg08","1920","1080","","","","","","","","","","","null","+","Fixation - short","","null","","","","","","","","","","","","","","","","",""
"","html-keyboard-response","316","687113","0.0-541.0","0d9lxg08","","","","","","","","","","","","","461","psl","Diagnostic trial","","j","","8","5","10","false","false","false","both pre & post","RIGHT","RIGHT","j","1","true","","","",""
"","html-keyboard-response","317","687879","0.0-544.0","0d9lxg08","1920","1080","","","","","","","","","","","null","+","Fixation - short","","null","","","","","","","","","","","","","","","","",""
"","html-keyboard-response","318","688272","0.0-545.0","0d9lxg08","","","","","","","","","","","","","393","psl","Diagnostic trial","","j","","8","6","10","false","false","false","both pre & post","RIGHT","RIGHT","j","1","true","","","",""
"","html-keyboard-response","319","689039","0.0-548.0","0d9lxg08","1920","1080","","","","","","","","","","","null","+","Fixation - short","","null","","","","","","","","","","","","","","","","",""
"","html-keyboard-response","320","689409","0.0-549.0","0d9lxg08","","","","","","","","","","","","","369","psl","Diagnostic trial","","j","","8","7","10","false","false","false","both pre & post","RIGHT","RIGHT","j","1","true","","","",""
"","html-keyboard-response","321","690171","0.0-552.0","0d9lxg08","1920","1080","","","","","","","","","","","null","+","Fixation - short","","null","","","","","","","","","","","","","","","","",""
"","html-keyboard-response","322","690558","0.0-553.0","0d9lxg08","","","","","","","","","","","","","387","psl","Diagnostic trial","","j","","8","8","10","false","false","false","both pre & post","RIGHT","RIGHT","j","1","true","","","",""
"","html-keyboard-response","323","691318","0.0-556.0","0d9lxg08","1920","1080","","","","","","","","","","","null","+","Fixation - short","","null","","","","","","","","","","","","","","","","",""
"","html-keyboard-response","324","691975","0.0-557.0","0d9lxg08","","","","","","","","","","","","","657","drk","Diagnostic trial","","j","","8","9","10","false","false","false","both pre & post","LEFT","RIGHT","j","1","false","","","",""
"","html-keyboard-response","325","692732","0.0-560.0","0d9lxg08","1920","1080","","","","","","","","","","","null","+","Fixation - short","","null","","","","","","","","","","","","","","","","",""
"","canvas-keyboard-response","326","693990","0.0-561.0","0d9lxg08","","","","","","","","","","","","","null","Cue","Cue","","null","","8","9","","","false","","","","","","","","","","",""
"","html-keyboard-response","327","694746","0.0-562.0","0d9lxg08","1920","1080","","","","","","","","","","","null","+","Fixation - short","","null","","","","","","","","","","","","","","","","",""
"","html-keyboard-response","328","695232","0.0-563.0","0d9lxg08","","","","","","","","","","","","","485","psl","Diagnostic trial","","f","","8","10","10","true","false","true","both pre & post","RIGHT","LEFT","f","1","false","","","",""
"","html-keyboard-response","329","695986","0.0-566.0","0d9lxg08","1920","1080","","","","","","","","","","","null","+","Fixation - short","","null","","","","","","","","","","","","","","","","",""
"","html-keyboard-response","330","696514","0.0-567.0","0d9lxg08","","","","","","","","","","","","","527","drk","Diagnostic trial","","f","","8","11","10","true","false","true","both pre & post","LEFT","LEFT","f","1","true","","","",""
"","html-keyboard-response","331","697267","0.0-570.0","0d9lxg08","1920","1080","","","","","","","","","","","null","+","Fixation - short","","null","","","","","","","","","","","","","","","","",""
"","html-keyboard-response","332","697914","0.0-571.0","0d9lxg08","","","","","","","","","","","","","647","psl","Diagnostic trial","","j","","8","12","10","true","false","true","both pre & post","RIGHT","LEFT","f","0","false","","","",""
"","call-function","333","697915","0.0-573.0-0.0","0d9lxg08","","","","","","","","","","","","","","","","","","","","","","","","","","","","","","","","","",""
"","html-keyboard-response","334","698228","0.0-573.0-1.0","0d9lxg08","1920","1080","","","","","","","","","","","null","Wrong","Feedback","","null","","","","","","","","","","","","","","","","",""
"","call-function","335","698228","0.0-573.0-2.0","0d9lxg08","","","","","","","","","","","","","","","","","","","","","","","","","","","","","","","","","",""
"","html-keyboard-response","336","698984","0.0-574.0","0d9lxg08","1920","1080","","","","","","","","","","","null","+","Fixation - short","","null","","","","","","","","","","","","","","","","",""
"","html-keyboard-response","337","699538","0.0-575.0","0d9lxg08","","","","","","","","","","","","","553","psl","Diagnostic trial","","j","","8","13","10","true","false","true","both pre & post","RIGHT","LEFT","f","0","false","","","",""
"","call-function","338","699539","0.0-577.0-0.0","0d9lxg08","","","","","","","","","","","","","","","","","","","","","","","","","","","","","","","","","",""
"","html-keyboard-response","339","699854","0.0-577.0-1.0","0d9lxg08","1920","1080","","","","","","","","","","","null","Wrong","Feedback","","null","","","","","","","","","","","","","","","","",""
"","call-function","340","699855","0.0-577.0-2.0","0d9lxg08","","","","","","","","","","","","","","","","","","","","","","","","","","","","","","","","","",""
"","html-keyboard-response","341","700611","0.0-578.0","0d9lxg08","1920","1080","","","","","","","","","","","null","+","Fixation - short","","null","","","","","","","","","","","","","","","","",""
"","html-keyboard-response","342","701269","0.0-579.0","0d9lxg08","","","","","","","","","","","","","658","psl","Inducer trial","","j","","8","","","","true","","","","","j","1","","false","RIGHT","",""
"","html-keyboard-response","343","702028","0.0-582.0","0d9lxg08","1920","1080","","","","","","","","","","","null","+","Fixation - short","","null","","","","","","","","","","","","","","","","",""
"","html-keyboard-response","344","714837","0.0-583.0","0d9lxg08","","","","","","","","","","","","","12808","If geb press LEFT | If ila press RIGHT","Inducer instructions",""," ","","9","","","","","","","","","","","","","","",""
"","html-keyboard-response","345","715593","0.0-584.0","0d9lxg08","1920","1080","","","","","","","","","","","null","+","Fixation - short","","null","","","","","","","","","","","","","","","","",""
"","html-keyboard-response","346","716178","0.0-585.0","0d9lxg08","","","","","","","","","","","","","585","ila","Diagnostic trial","","f","","9","0","9","false","false","true","both pre & post","RIGHT","LEFT","f","1","false","","","",""
"","html-keyboard-response","347","716942","0.0-588.0","0d9lxg08","1920","1080","","","","","","","","","","","null","+","Fixation - short","","null","","","","","","","","","","","","","","","","",""
"","html-keyboard-response","348","717505","0.0-589.0","0d9lxg08","","","","","","","","","","","","","562","geb","Diagnostic trial","","j","","9","1","9","false","false","false","both pre & post","LEFT","RIGHT","j","1","false","","","",""
"","html-keyboard-response","349","718261","0.0-592.0","0d9lxg08","1920","1080","","","","","","","","","","","null","+","Fixation - short","","null","","","","","","","","","","","","","","","","",""
"","html-keyboard-response","350","718706","0.0-593.0","0d9lxg08","","","","","","","","","","","","","445","geb","Diagnostic trial","","j","","9","2","9","false","false","false","both pre & post","LEFT","RIGHT","j","1","false","","","",""
"","html-keyboard-response","351","719461","0.0-596.0","0d9lxg08","1920","1080","","","","","","","","","","","null","+","Fixation - short","","null","","","","","","","","","","","","","","","","",""
"","html-keyboard-response","352","720026","0.0-597.0","0d9lxg08","","","","","","","","","","","","","564","geb","Diagnostic trial","","f","","9","3","9","false","false","true","both pre & post","LEFT","LEFT","f","1","true","","","",""
"","html-keyboard-response","353","720782","0.0-600.0","0d9lxg08","1920","1080","","","","","","","","","","","null","+","Fixation - short","","null","","","","","","","","","","","","","","","","",""
"","html-keyboard-response","354","721284","0.0-601.0","0d9lxg08","","","","","","","","","","","","","502","ila","Diagnostic trial","","f","","9","4","9","false","false","true","both pre & post","RIGHT","LEFT","f","1","false","","","",""
"","html-keyboard-response","355","722051","0.0-604.0","0d9lxg08","1920","1080","","","","","","","","","","","null","+","Fixation - short","","null","","","","","","","","","","","","","","","","",""
"","html-keyboard-response","356","722618","0.0-605.0","0d9lxg08","","","","","","","","","","","","","566","geb","Diagnostic trial","","f","","9","5","9","false","false","true","both pre & post","LEFT","LEFT","f","1","true","","","",""
"","html-keyboard-response","357","723385","0.0-608.0","0d9lxg08","1920","1080","","","","","","","","","","","null","+","Fixation - short","","null","","","","","","","","","","","","","","","","",""
"","html-keyboard-response","358","723924","0.0-609.0","0d9lxg08","","","","","","","","","","","","","545","ila","Diagnostic trial","","j","","9","6","9","false","false","false","both pre & post","RIGHT","RIGHT","j","1","true","","","",""
"","html-keyboard-response","359","724683","0.0-612.0","0d9lxg08","1920","1080","","","","","","","","","","","null","+","Fixation - short","","null","","","","","","","","","","","","","","","","",""
"","html-keyboard-response","360","725243","0.0-613.0","0d9lxg08","","","","","","","","","","","","","560","geb","Diagnostic trial","","f","","9","7","9","false","false","false","both pre & post","LEFT","RIGHT","j","0","false","","","",""
"","call-function","361","725244","0.0-615.0-0.0","0d9lxg08","","","","","","","","","","","","","","","","","","","","","","","","","","","","","","","","","",""
"","html-keyboard-response","362","725546","0.0-615.0-1.0","0d9lxg08","1920","1080","","","","","","","","","","","null","Wrong","Feedback","","null","","","","","","","","","","","","","","","","",""
"","call-function","363","725546","0.0-615.0-2.0","0d9lxg08","","","","","","","","","","","","","","","","","","","","","","","","","","","","","","","","","",""
"","html-keyboard-response","364","726311","0.0-616.0","0d9lxg08","1920","1080","","","","","","","","","","","null","+","Fixation - short","","null","","","","","","","","","","","","","","","","",""
"","html-keyboard-response","365","726998","0.0-617.0","0d9lxg08","","","","","","","","","","","","","687","ila","Diagnostic trial","","f","","9","8","9","false","false","true","both pre & post","RIGHT","LEFT","f","1","false","","","",""
"","html-keyboard-response","366","727752","0.0-620.0","0d9lxg08","1920","1080","","","","","","","","","","","null","+","Fixation - short","","null","","","","","","","","","","","","","","","","",""
"","canvas-keyboard-response","367","729012","0.0-621.0","0d9lxg08","","","","","","","","","","","","","null","Cue","Cue","","null","","9","8","","","false","","","","","","","","","","",""
"","html-keyboard-response","368","729765","0.0-622.0","0d9lxg08","1920","1080","","","","","","","","","","","null","+","Fixation - short","","null","","","","","","","","","","","","","","","","",""
"","html-keyboard-response","369","730283","0.0-623.0","0d9lxg08","","","","","","","","","","","","","517","ila","Diagnostic trial","","j","","9","9","9","true","false","false","both pre & post","RIGHT","RIGHT","j","1","true","","","",""
"","html-keyboard-response","370","731048","0.0-626.0","0d9lxg08","1920","1080","","","","","","","","","","","null","+","Fixation - short","","null","","","","","","","","","","","","","","","","",""
"","html-keyboard-response","371","731686","0.0-627.0","0d9lxg08","","","","","","","","","","","","","637","geb","Diagnostic trial","","j","","9","10","9","true","false","false","both pre & post","LEFT","RIGHT","j","1","false","","","",""
"","html-keyboard-response","372","732444","0.0-630.0","0d9lxg08","1920","1080","","","","","","","","","","","null","+","Fixation - short","","null","","","","","","","","","","","","","","","","",""
"","html-keyboard-response","373","733061","0.0-631.0","0d9lxg08","","","","","","","","","","","","","616","ila","Diagnostic trial","","f","","9","11","9","true","false","true","both pre & post","RIGHT","LEFT","f","1","false","","","",""
"","html-keyboard-response","374","733821","0.0-634.0","0d9lxg08","1920","1080","","","","","","","","","","","null","+","Fixation - short","","null","","","","","","","","","","","","","","","","",""
"","html-keyboard-response","375","734388","0.0-635.0","0d9lxg08","","","","","","","","","","","","","567","geb","Diagnostic trial","","j","","9","12","9","true","false","false","both pre & post","LEFT","RIGHT","j","1","false","","","",""
"","html-keyboard-response","376","735141","0.0-638.0","0d9lxg08","1920","1080","","","","","","","","","","","null","+","Fixation - short","","null","","","","","","","","","","","","","","","","",""
"","html-keyboard-response","377","735816","0.0-639.0","0d9lxg08","","","","","","","","","","","","","674","ila","Inducer trial","","j","","9","","","","true","","","","","j","1","","false","RIGHT","",""
"","html-keyboard-response","378","736569","0.0-642.0","0d9lxg08","1920","1080","","","","","","","","","","","null","+","Fixation - short","","null","","","","","","","","","","","","","","","","",""
"","html-keyboard-response","379","745313","0.0-643.0","0d9lxg08","","","","","","","","","","","","","8744","If otr press LEFT | If cpt press RIGHT","Inducer instructions",""," ","","10","","","","","","","","","","","","","","",""
"","html-keyboard-response","380","746065","0.0-644.0","0d9lxg08","1920","1080","","","","","","","","","","","null","+","Fixation - short","","null","","","","","","","","","","","","","","","","",""
"","html-keyboard-response","381","746624","0.0-645.0","0d9lxg08","","","","","","","","","","","","","558","cpt","Diagnostic trial","","j","","10","0","7","false","false","false","both pre & post","RIGHT","RIGHT","j","1","true","","","",""
"","html-keyboard-response","382","747390","0.0-648.0","0d9lxg08","1920","1080","","","","","","","","","","","null","+","Fixation - short","","null","","","","","","","","","","","","","","","","",""
"","html-keyboard-response","383","747829","0.0-649.0","0d9lxg08","","","","","","","","","","","","","439","cpt","Diagnostic trial","","j","","10","1","7","false","false","false","both pre & post","RIGHT","RIGHT","j","1","true","","","",""
"","html-keyboard-response","384","748585","0.0-652.0","0d9lxg08","1920","1080","","","","","","","","","","","null","+","Fixation - short","","null","","","","","","","","","","","","","","","","",""
"","html-keyboard-response","385","749010","0.0-653.0","0d9lxg08","","","","","","","","","","","","","424","otr","Diagnostic trial","","j","","10","2","7","false","false","false","both pre & post","LEFT","RIGHT","j","1","false","","","",""
"","html-keyboard-response","386","749775","0.0-656.0","0d9lxg08","1920","1080","","","","","","","","","","","null","+","Fixation - short","","null","","","","","","","","","","","","","","","","",""
"","html-keyboard-response","387","750355","0.0-657.0","0d9lxg08","","","","","","","","","","","","","579","otr","Diagnostic trial","","f","","10","3","7","false","false","true","both pre & post","LEFT","LEFT","f","1","true","","","",""
"","html-keyboard-response","388","751107","0.0-660.0","0d9lxg08","1920","1080","","","","","","","","","","","null","+","Fixation - short","","null","","","","","","","","","","","","","","","","",""
"","html-keyboard-response","389","751667","0.0-661.0","0d9lxg08","","","","","","","","","","","","","559","otr","Diagnostic trial","","j","","10","4","7","false","false","false","both pre & post","LEFT","RIGHT","j","1","false","","","",""
"","html-keyboard-response","390","752425","0.0-664.0","0d9lxg08","1920","1080","","","","","","","","","","","null","+","Fixation - short","","null","","","","","","","","","","","","","","","","",""
"","html-keyboard-response","391","752831","0.0-665.0","0d9lxg08","","","","","","","","","","","","","405","otr","Diagnostic trial","","j","","10","5","7","false","false","false","both pre & post","LEFT","RIGHT","j","1","false","","","",""
"","html-keyboard-response","392","753587","0.0-668.0","0d9lxg08","1920","1080","","","","","","","","","","","null","+","Fixation - short","","null","","","","","","","","","","","","","","","","",""
"","html-keyboard-response","393","753967","0.0-669.0","0d9lxg08","","","","","","","","","","","","","380","otr","Diagnostic trial","","j","","10","6","7","false","false","false","both pre & post","LEFT","RIGHT","j","1","false","","","",""
"","html-keyboard-response","394","754721","0.0-672.0","0d9lxg08","1920","1080","","","","","","","","","","","null","+","Fixation - short","","null","","","","","","","","","","","","","","","","",""
"","canvas-keyboard-response","395","755979","0.0-673.0","0d9lxg08","","","","","","","","","","","","","null","Cue","Cue","","null","","10","6","","","false","","","","","","","","","","",""
"","html-keyboard-response","396","756735","0.0-674.0","0d9lxg08","1920","1080","","","","","","","","","","","null","+","Fixation - short","","null","","","","","","","","","","","","","","","","",""
"","html-keyboard-response","397","757231","0.0-675.0","0d9lxg08","","","","","","","","","","","","","495","otr","Diagnostic trial","","f","","10","7","7","true","false","true","both pre & post","LEFT","LEFT","f","1","true","","","",""
"","html-keyboard-response","398","757989","0.0-678.0","0d9lxg08","1920","1080","","","","","","","","","","","null","+","Fixation - short","","null","","","","","","","","","","","","","","","","",""
"","html-keyboard-response","399","758579","0.0-679.0","0d9lxg08","","","","","","","","","","","","","589","cpt","Inducer trial","","j","","10","","","","true","","","","","j","1","","false","RIGHT","",""
"","html-keyboard-response","400","759337","0.0-682.0","0d9lxg08","1920","1080","","","","","","","","","","","null","+","Fixation - short","","null","","","","","","","","","","","","","","","","",""
"","html-keyboard-response","401","761571","0.0-683.0","0d9lxg08","","","","","","","","","","","","","2234","If gdn press LEFT | If wrz press RIGHT","Inducer instructions",""," ","","11","","","","","","","","","","","","","","",""
"","html-keyboard-response","402","762324","0.0-684.0","0d9lxg08","1920","1080","","","","","","","","","","","null","+","Fixation - short","","null","","","","","","","","","","","","","","","","",""
"","html-keyboard-response","403","762934","0.0-685.0","0d9lxg08","","","","","","","","","","","","","609","wrz","Diagnostic trial","","j","","11","0","4","false","false","false","both pre & post","RIGHT","RIGHT","j","1","true","","","",""
"","html-keyboard-response","404","763700","0.0-688.0","0d9lxg08","1920","1080","","","","","","","","","","","null","+","Fixation - short","","null","","","","","","","","","","","","","","","","",""
"","html-keyboard-response","405","764145","0.0-689.0","0d9lxg08","","","","","","","","","","","","","445","gdn","Diagnostic trial","","f","","11","1","4","false","false","true","both pre & post","LEFT","LEFT","f","1","true","","","",""
"","html-keyboard-response","406","764898","0.0-692.0","0d9lxg08","1920","1080","","","","","","","","","","","null","+","Fixation - short","","null","","","","","","","","","","","","","","","","",""
"","html-keyboard-response","407","765527","0.0-693.0","0d9lxg08","","","","","","","","","","","","","628","wrz","Diagnostic trial","","f","","11","2","4","false","false","true","both pre & post","RIGHT","LEFT","f","1","false","","","",""
"","html-keyboard-response","408","766285","0.0-696.0","0d9lxg08","1920","1080","","","","","","","","","","","null","+","Fixation - short","","null","","","","","","","","","","","","","","","","",""
"","html-keyboard-response","409","766746","0.0-697.0","0d9lxg08","","","","","","","","","","","","","460","gdn","Diagnostic trial","","j","","11","3","4","false","false","false","both pre & post","LEFT","RIGHT","j","1","false","","","",""
"","html-keyboard-response","410","767500","0.0-700.0","0d9lxg08","1920","1080","","","","","","","","","","","null","+","Fixation - short","","null","","","","","","","","","","","","","","","","",""
"","canvas-keyboard-response","411","768757","0.0-701.0","0d9lxg08","","","","","","","","","","","","","null","Cue","Cue","","null","","11","3","","","false","","","","","","","","","","",""
"","html-keyboard-response","412","769513","0.0-702.0","0d9lxg08","1920","1080","","","","","","","","","","","null","+","Fixation - short","","null","","","","","","","","","","","","","","","","",""
"","html-keyboard-response","413","770059","0.0-703.0","0d9lxg08","","","","","","","","","","","","","545","gdn","Diagnostic trial","","j","","11","4","4","true","false","false","both pre & post","LEFT","RIGHT","j","1","false","","","",""
"","html-keyboard-response","414","770822","0.0-706.0","0d9lxg08","1920","1080","","","","","","","","","","","null","+","Fixation - short","","null","","","","","","","","","","","","","","","","",""
"","html-keyboard-response","415","771430","0.0-707.0","0d9lxg08","","","","","","","","","","","","","607","wrz","Diagnostic trial","","f","","11","5","4","true","false","true","both pre & post","RIGHT","LEFT","f","1","false","","","",""
"","html-keyboard-response","416","772196","0.0-710.0","0d9lxg08","1920","1080","","","","","","","","","","","null","+","Fixation - short","","null","","","","","","","","","","","","","","","","",""
"","html-keyboard-response","417","772881","0.0-711.0","0d9lxg08","","","","","","","","","","","","","684","gdn","Diagnostic trial","","f","","11","6","4","true","false","true","both pre & post","LEFT","LEFT","f","1","true","","","",""
"","html-keyboard-response","418","773635","0.0-714.0","0d9lxg08","1920","1080","","","","","","","","","","","null","+","Fixation - short","","null","","","","","","","","","","","","","","","","",""
"","html-keyboard-response","419","774118","0.0-715.0","0d9lxg08","","","","","","","","","","","","","483","gdn","Inducer trial","","f","","11","","","","true","","","","","f","1","","false","LEFT","",""
"","html-keyboard-response","420","774875","0.0-718.0","0d9lxg08","1920","1080","","","","","","","","","","","null","+","Fixation - short","","null","","","","","","","","","","","","","","","","",""
"","html-keyboard-response","421","777714","0.0-719.0","0d9lxg08","","","","","","","","","","","","","2839","If cui press LEFT | If dnc press RIGHT","Inducer instructions",""," ","","12","","","","","","","","","","","","","","",""
"","html-keyboard-response","422","778479","0.0-720.0","0d9lxg08","1920","1080","","","","","","","","","","","null","+","Fixation - short","","null","","","","","","","","","","","","","","","","",""
"","html-keyboard-response","423","779097","0.0-721.0","0d9lxg08","","","","","","","","","","","","","618","dnc","Diagnostic trial","","f","","12","0","11","false","false","true","both pre & post","RIGHT","LEFT","f","1","false","","","",""
"","html-keyboard-response","424","779851","0.0-724.0","0d9lxg08","1920","1080","","","","","","","","","","","null","+","Fixation - short","","null","","","","","","","","","","","","","","","","",""
"","html-keyboard-response","425","780260","0.0-725.0","0d9lxg08","","","","","","","","","","","","","409","dnc","Diagnostic trial","","f","","12","1","11","false","false","true","both pre & post","RIGHT","LEFT","f","1","false","","","",""
"","html-keyboard-response","426","781027","0.0-728.0","0d9lxg08","1920","1080","","","","","","","","","","","null","+","Fixation - short","","null","","","","","","","","","","","","","","","","",""
"","html-keyboard-response","427","781418","0.0-729.0","0d9lxg08","","","","","","","","","","","","","390","dnc","Diagnostic trial","","f","","12","2","11","false","false","true","both pre & post","RIGHT","LEFT","f","1","false","","","",""
"","html-keyboard-response","428","782172","0.0-732.0","0d9lxg08","1920","1080","","","","","","","","","","","null","+","Fixation - short","","null","","","","","","","","","","","","","","","","",""
"","html-keyboard-response","429","782629","0.0-733.0","0d9lxg08","","","","","","","","","","","","","457","cui","Diagnostic trial","","j","","12","3","11","false","false","false","both pre & post","LEFT","RIGHT","j","1","false","","","",""
"","html-keyboard-response","430","783385","0.0-736.0","0d9lxg08","1920","1080","","","","","","","","","","","null","+","Fixation - short","","null","","","","","","","","","","","","","","","","",""
"","html-keyboard-response","431","783993","0.0-737.0","0d9lxg08","","","","","","","","","","","","","611","dnc","Diagnostic trial","","j","","12","4","11","false","false","true","both pre & post","RIGHT","LEFT","f","0","false","","","",""
"","call-function","432","783994","0.0-739.0-0.0","0d9lxg08","","","","","","","","","","","","","","","","","","","","","","","","","","","","","","","","","",""
"","html-keyboard-response","433","784303","0.0-739.0-1.0","0d9lxg08","1920","1080","","","","","","","","","","","null","Wrong","Feedback","","null","","","","","","","","","","","","","","","","",""
"","call-function","434","784304","0.0-739.0-2.0","0d9lxg08","","","","","","","","","","","","","","","","","","","","","","","","","","","","","","","","","",""
"","html-keyboard-response","435","785061","0.0-740.0","0d9lxg08","1920","1080","","","","","","","","","","","null","+","Fixation - short","","null","","","","","","","","","","","","","","","","",""
"","html-keyboard-response","436","785735","0.0-741.0","0d9lxg08","","","","","","","","","","","","","674","cui","Diagnostic trial","","f","","12","5","11","false","false","true","both pre & post","LEFT","LEFT","f","1","true","","","",""
"","html-keyboard-response","437","786490","0.0-744.0","0d9lxg08","1920","1080","","","","","","","","","","","null","+","Fixation - short","","null","","","","","","","","","","","","","","","","",""
"","html-keyboard-response","438","787084","0.0-745.0","0d9lxg08","","","","","","","","","","","","","594","dnc","Diagnostic trial","","j","","12","6","11","false","false","false","both pre & post","RIGHT","RIGHT","j","1","true","","","",""
"","html-keyboard-response","439","787837","0.0-748.0","0d9lxg08","1920","1080","","","","","","","","","","","null","+","Fixation - short","","null","","","","","","","","","","","","","","","","",""
"","html-keyboard-response","440","788411","0.0-749.0","0d9lxg08","","","","","","","","","","","","","574","dnc","Diagnostic trial","","f","","12","7","11","false","false","true","both pre & post","RIGHT","LEFT","f","1","false","","","",""
"","html-keyboard-response","441","789169","0.0-752.0","0d9lxg08","1920","1080","","","","","","","","","","","null","+","Fixation - short","","null","","","","","","","","","","","","","","","","",""
"","html-keyboard-response","442","789771","0.0-753.0","0d9lxg08","","","","","","","","","","","","","602","dnc","Diagnostic trial","","j","","12","8","11","false","false","false","both pre & post","RIGHT","RIGHT","j","1","true","","","",""
"","html-keyboard-response","443","790530","0.0-756.0","0d9lxg08","1920","1080","","","","","","","","","","","null","+","Fixation - short","","null","","","","","","","","","","","","","","","","",""
"","html-keyboard-response","444","791025","0.0-757.0","0d9lxg08","","","","","","","","","","","","","495","cui","Diagnostic trial","","f","","12","9","11","false","false","true","both pre & post","LEFT","LEFT","f","1","true","","","",""
"","html-keyboard-response","445","791786","0.0-760.0","0d9lxg08","1920","1080","","","","","","","","","","","null","+","Fixation - short","","null","","","","","","","","","","","","","","","","",""
"","html-keyboard-response","446","792363","0.0-761.0","0d9lxg08","","","","","","","","","","","","","577","dnc","Diagnostic trial","","f","","12","10","11","false","false","true","both pre & post","RIGHT","LEFT","f","1","false","","","",""
"","html-keyboard-response","447","793120","0.0-764.0","0d9lxg08","1920","1080","","","","","","","","","","","null","+","Fixation - short","","null","","","","","","","","","","","","","","","","",""
"","canvas-keyboard-response","448","794377","0.0-765.0","0d9lxg08","","","","","","","","","","","","","null","Cue","Cue","","null","","12","10","","","false","","","","","","","","","","",""
"","html-keyboard-response","449","795134","0.0-766.0","0d9lxg08","1920","1080","","","","","","","","","","","null","+","Fixation - short","","null","","","","","","","","","","","","","","","","",""
"","html-keyboard-response","450","795703","0.0-767.0","0d9lxg08","","","","","","","","","","","","","569","dnc","Diagnostic trial","","f","","12","11","11","true","false","true","both pre & post","RIGHT","LEFT","f","1","false","","","",""
"","html-keyboard-response","451","796469","0.0-770.0","0d9lxg08","1920","1080","","","","","","","","","","","null","+","Fixation - short","","null","","","","","","","","","","","","","","","","",""
"","html-keyboard-response","452","796954","0.0-771.0","0d9lxg08","","","","","","","","","","","","","485","dnc","Inducer trial","","j","","12","","","","true","","","","","j","1","","false","RIGHT","",""
"","html-keyboard-response","453","797708","0.0-774.0","0d9lxg08","1920","1080","","","","","","","","","","","null","+","Fixation - short","","null","","","","","","","","","","","","","","","","",""
"","html-keyboard-response","454","800446","0.0-775.0","0d9lxg08","","","","","","","","","","","","","2738","If jup press LEFT | If dof press RIGHT","Inducer instructions",""," ","","13","","","","","","","","","","","","","","",""
"","html-keyboard-response","455","801202","0.0-776.0","0d9lxg08","1920","1080","","","","","","","","","","","null","+","Fixation - short","","null","","","","","","","","","","","","","","","","",""
"","html-keyboard-response","456","801678","0.0-777.0","0d9lxg08","","","","","","","","","","","","","475","dof","Diagnostic trial","","f","","13","0","4","false","false","true","both pre & post","RIGHT","LEFT","f","1","false","","","",""
"","html-keyboard-response","457","802445","0.0-780.0","0d9lxg08","1920","1080","","","","","","","","","","","null","+","Fixation - short","","null","","","","","","","","","","","","","","","","",""
