"value","trial_type","trial_index","time_elapsed","internal_node_id","id","width","height","webaudio","browser","browser_version","mobile","os","fullscreen","vsync_rate","webcam","microphone","view_history","rt","stimulus","trial_info","success","response","exp_parameters","inducer_run","diagnostic_run","cue_num","post_cue","inducer_trial","italic","forced_equal_run","correct_inducer_response_side","correct_diag_response_side","correct_response_key","correct_response","congruent","force_equal","correct_indu_response_side","accuracy","interactive"
"","call-function","0","4","0.0-0.0","n0j6pwxe","","","","","","","","","","","","","","","","","","","","","","","","","","","","","","","","","",""
"","browser-check","1","1012","0.0-1.0","n0j6pwxe","1536","730","true","chrome","123.0.0","false","Windows 10","true","60.05","true","true","","","","","","","","","","","","","","","","","","","","","","",""
"","instructions","2","24357","0.0-2.0","n0j6pwxe","","","","","","","","","","","","[{""page_index"":0,""viewing_time"":8992},{""page_index"":1,""viewing_time"":10423},{""page_index"":2,""viewing_time"":3929}]","23343","The experiment and consent","The experiment and consent","","","","","","","","","","","","","","","","","","",""
"","fullscreen","3","29358","0.0-3.0","n0j6pwxe","","","","","","","","","","","","","3998","","Full screen","true","","","","","","","","","","","","","","","","","",""
"","instructions","4","53909","0.0-4.0","n0j6pwxe","","","","","","","","","","","","[{""page_index"":0,""viewing_time"":16469},{""page_index"":1,""viewing_time"":8080}]","24550","Instructions","Basic overview explanation","","","","","","","","","","","","","","","","","","",""
"","html-keyboard-response","5","66027","0.0-5.0","n0j6pwxe","","","","","","","","","","","","","10605","If italic press RIGHT | If upright press LEFT","Diagnostic instructions",""," ","{""debug"":false,""skip_instructions"":false,""skip_practice"":false,""save_local_data"":false,""studu_name"":""exp2"",""default_background_colour"":""#cccccc"",""wrong_response_colour"":""#d22d2d"",""instruction_delay"":20000,""trial_duration"":2000,""short_fixation"":750,""long_fixation"":1500,""wrong_response_delay"":300,""too_slow_delay"":300,""instruction_font_size"":""24px"",""general_font_size"":""42px"",""fixation_size"":""48px"",""allowed_responses"":[""f"",""j""],""cue_min_length"":0,""cue_max_length"":4,""tot_post_cue_len"":72,""cue_colour"":""blue"",""cue_shape"":""Triangle"",""cue_size"":70,""cue_duration"":1250,""avg_number_of_cues"":3,""inducer_colour"":""red"",""number_of_inducers"":24,""pre_cue_italic_forced_equal"":true,""post_cue_italic_forced_equal"":true,""prac_diagnostic_rounds"":16,""prac_inducer_rounds"":6,""prac_cue_rounds"":16,""prac_post_cue_num"":3}","","","","","","","","","","","","","","","",""
"","html-keyboard-response","6","66783","0.0-6.0","n0j6pwxe","1536","864","","","","","","","","","","","null","+","Fixation - short","","null","","","","","","","","","","","","","","","","",""
"","html-keyboard-response","7","68288","0.0-7.0","n0j6pwxe","","","","","","","","","","","","","1501","uen","Diagnostic practice","","j","","Diagnostic practice","0","-84","true","false","false","prac equal","LEFT","LEFT","f","0","true","","","",""
"","call-function","8","68289","0.0-9.0-0.0","n0j6pwxe","","","","","","","","","","","","","","","","","","","","","","","","","","","","","","","","","",""
"","html-keyboard-response","9","68603","0.0-9.0-1.0","n0j6pwxe","1536","864","","","","","","","","","","","null","Wrong","Feedback","","null","","","","","","","","","","","","","","","","",""
"","call-function","10","68604","0.0-9.0-2.0","n0j6pwxe","","","","","","","","","","","","","","","","","","","","","","","","","","","","","","","","","",""
"","html-keyboard-response","11","69361","0.0-10.0","n0j6pwxe","1536","864","","","","","","","","","","","null","+","Fixation - short","","null","","","","","","","","","","","","","","","","",""
"","html-keyboard-response","12","70018","0.0-11.0","n0j6pwxe","","","","","","","","","","","","","656","otr","Diagnostic practice","","j","","Diagnostic practice","1","-84","true","false","true","prac equal","RIGHT","RIGHT","j","1","true","","","",""
"","html-keyboard-response","13","70781","0.0-14.0","n0j6pwxe","1536","864","","","","","","","","","","","null","+","Fixation - short","","null","","","","","","","","","","","","","","","","",""
"","html-keyboard-response","14","71214","0.0-15.0","n0j6pwxe","","","","","","","","","","","","","432","uen","Diagnostic practice","","f","","Diagnostic practice","2","-84","true","false","false","prac equal","LEFT","LEFT","f","1","true","","","",""
"","html-keyboard-response","15","71971","0.0-18.0","n0j6pwxe","1536","864","","","","","","","","","","","null","+","Fixation - short","","null","","","","","","","","","","","","","","","","",""
"","html-keyboard-response","16","72459","0.0-19.0","n0j6pwxe","","","","","","","","","","","","","488","uen","Diagnostic practice","","f","","Diagnostic practice","3","-84","true","false","false","prac equal","LEFT","LEFT","f","1","true","","","",""
"","html-keyboard-response","17","73225","0.0-22.0","n0j6pwxe","1536","864","","","","","","","","","","","null","+","Fixation - short","","null","","","","","","","","","","","","","","","","",""
"","html-keyboard-response","18","73897","0.0-23.0","n0j6pwxe","","","","","","","","","","","","","672","otr","Diagnostic practice","","j","","Diagnostic practice","4","-84","true","false","true","prac equal","RIGHT","RIGHT","j","1","true","","","",""
"","html-keyboard-response","19","74657","0.0-26.0","n0j6pwxe","1536","864","","","","","","","","","","","null","+","Fixation - short","","null","","","","","","","","","","","","","","","","",""
"","html-keyboard-response","20","75087","0.0-27.0","n0j6pwxe","","","","","","","","","","","","","428","otr","Diagnostic practice","","j","","Diagnostic practice","5","-84","true","false","true","prac equal","RIGHT","RIGHT","j","1","true","","","",""
"","html-keyboard-response","21","75839","0.0-30.0","n0j6pwxe","1536","864","","","","","","","","","","","null","+","Fixation - short","","null","","","","","","","","","","","","","","","","",""
"","html-keyboard-response","22","76448","0.0-31.0","n0j6pwxe","","","","","","","","","","","","","607","uen","Diagnostic practice","","j","","Diagnostic practice","6","-84","true","false","true","prac equal","LEFT","RIGHT","j","1","false","","","",""
"","html-keyboard-response","23","77205","0.0-34.0","n0j6pwxe","1536","864","","","","","","","","","","","null","+","Fixation - short","","null","","","","","","","","","","","","","","","","",""
"","html-keyboard-response","24","77707","0.0-35.0","n0j6pwxe","","","","","","","","","","","","","501","otr","Diagnostic practice","","f","","Diagnostic practice","7","-84","true","false","false","prac equal","RIGHT","LEFT","f","1","false","","","",""
"","html-keyboard-response","25","78472","0.0-38.0","n0j6pwxe","1536","864","","","","","","","","","","","null","+","Fixation - short","","null","","","","","","","","","","","","","","","","",""
"","html-keyboard-response","26","78926","0.0-39.0","n0j6pwxe","","","","","","","","","","","","","453","uen","Diagnostic practice","","j","","Diagnostic practice","8","-84","true","false","true","prac equal","LEFT","RIGHT","j","1","false","","","",""
"","html-keyboard-response","27","79688","0.0-42.0","n0j6pwxe","1536","864","","","","","","","","","","","null","+","Fixation - short","","null","","","","","","","","","","","","","","","","",""
"","html-keyboard-response","28","80139","0.0-43.0","n0j6pwxe","","","","","","","","","","","","","449","otr","Diagnostic practice","","f","","Diagnostic practice","9","-84","true","false","false","prac equal","RIGHT","LEFT","f","1","false","","","",""
"","html-keyboard-response","29","80896","0.0-46.0","n0j6pwxe","1536","864","","","","","","","","","","","null","+","Fixation - short","","null","","","","","","","","","","","","","","","","",""
"","html-keyboard-response","30","81506","0.0-47.0","n0j6pwxe","","","","","","","","","","","","","608","uen","Diagnostic practice","","f","","Diagnostic practice","10","-84","true","false","true","prac equal","LEFT","RIGHT","j","0","false","","","",""
"","call-function","31","81506","0.0-49.0-0.0","n0j6pwxe","","","","","","","","","","","","","","","","","","","","","","","","","","","","","","","","","",""
"","html-keyboard-response","32","81818","0.0-49.0-1.0","n0j6pwxe","1536","864","","","","","","","","","","","null","Wrong","Feedback","","null","","","","","","","","","","","","","","","","",""
"","call-function","33","81818","0.0-49.0-2.0","n0j6pwxe","","","","","","","","","","","","","","","","","","","","","","","","","","","","","","","","","",""
"","html-keyboard-response","34","82572","0.0-50.0","n0j6pwxe","1536","864","","","","","","","","","","","null","+","Fixation - short","","null","","","","","","","","","","","","","","","","",""
"","html-keyboard-response","35","83718","0.0-51.0","n0j6pwxe","","","","","","","","","","","","","1144","otr","Diagnostic practice","","j","","Diagnostic practice","11","-84","true","false","true","prac equal","RIGHT","RIGHT","j","1","true","","","",""
"","html-keyboard-response","36","84472","0.0-54.0","n0j6pwxe","1536","864","","","","","","","","","","","null","+","Fixation - short","","null","","","","","","","","","","","","","","","","",""
"","html-keyboard-response","37","84937","0.0-55.0","n0j6pwxe","","","","","","","","","","","","","463","uen","Diagnostic practice","","f","","Diagnostic practice","12","-84","true","false","false","prac equal","LEFT","LEFT","f","1","true","","","",""
"","html-keyboard-response","38","85702","0.0-58.0","n0j6pwxe","1536","864","","","","","","","","","","","null","+","Fixation - short","","null","","","","","","","","","","","","","","","","",""
"","html-keyboard-response","39","86366","0.0-59.0","n0j6pwxe","","","","","","","","","","","","","663","otr","Diagnostic practice","","f","","Diagnostic practice","13","-84","true","false","false","prac equal","RIGHT","LEFT","f","1","false","","","",""
"","html-keyboard-response","40","87121","0.0-62.0","n0j6pwxe","1536","864","","","","","","","","","","","null","+","Fixation - short","","null","","","","","","","","","","","","","","","","",""
"","html-keyboard-response","41","87559","0.0-63.0","n0j6pwxe","","","","","","","","","","","","","437","uen","Diagnostic practice","","j","","Diagnostic practice","14","-84","true","false","true","prac equal","LEFT","RIGHT","j","1","false","","","",""
"","html-keyboard-response","42","88325","0.0-66.0","n0j6pwxe","1536","864","","","","","","","","","","","null","+","Fixation - short","","null","","","","","","","","","","","","","","","","",""
"","html-keyboard-response","43","88951","0.0-67.0","n0j6pwxe","","","","","","","","","","","","","624","otr","Diagnostic practice","","f","","Diagnostic practice","15","-84","true","false","false","prac equal","RIGHT","LEFT","f","1","false","","","",""
"","html-keyboard-response","44","89705","0.0-70.0","n0j6pwxe","1536","864","","","","","","","","","","","null","+","Fixation - short","","null","","","","","","","","","","","","","","","","",""
"","instructions","45","98093","0.0-71.0","n0j6pwxe","","","","","","","","","","","","[{""page_index"":0,""viewing_time"":8387}]","8387","Instructions","Final experiment explanation","","","","","","","","","","","","","","","","","","",""
"","html-keyboard-response","46","110285","0.0-72.0","n0j6pwxe","","","","","","","","","","","","","10683","If amb press RIGHT | If ccx press LEFT","Inducer practice",""," ","","Practice","","","","","","","","","","","","","","",""
"","html-keyboard-response","47","111037","0.0-73.0","n0j6pwxe","1536","864","","","","","","","","","","","null","+","Fixation - short","","null","","","","","","","","","","","","","","","","",""
"","html-keyboard-response","48","111524","0.0-74.0","n0j6pwxe","","","","","","","","","","","","","486","amb","Inducer practice","","f","","Practice","","","","true","","","","","j","0","","true","RIGHT","",""
"","call-function","49","111525","0.0-76.0-0.0","n0j6pwxe","","","","","","","","","","","","","","","","","","","","","","","","","","","","","","","","","",""
"","html-keyboard-response","50","111834","0.0-76.0-1.0","n0j6pwxe","1536","864","","","","","","","","","","","null","Wrong","Feedback","","null","","","","","","","","","","","","","","","","",""
"","call-function","51","111835","0.0-76.0-2.0","n0j6pwxe","","","","","","","","","","","","","","","","","","","","","","","","","","","","","","","","","",""
"","html-keyboard-response","52","112601","0.0-77.0","n0j6pwxe","1536","864","","","","","","","","","","","null","+","Fixation - short","","null","","","","","","","","","","","","","","","","",""
"","html-keyboard-response","53","117169","0.0-78.0","n0j6pwxe","","","","","","","","","","","","","4568","If yna press RIGHT | If hlb press LEFT","Inducer practice",""," ","","Practice","","","","","","","","","","","","","","",""
"","html-keyboard-response","54","117924","0.0-79.0","n0j6pwxe","1536","864","","","","","","","","","","","null","+","Fixation - short","","null","","","","","","","","","","","","","","","","",""
"","html-keyboard-response","55","118464","0.0-80.0","n0j6pwxe","","","","","","","","","","","","","537","yna","Inducer practice","","j","","Practice","","","","true","","","","","j","1","","true","RIGHT","",""
"","html-keyboard-response","56","119224","0.0-83.0","n0j6pwxe","1536","864","","","","","","","","","","","null","+","Fixation - short","","null","","","","","","","","","","","","","","","","",""
"","html-keyboard-response","57","122730","0.0-84.0","n0j6pwxe","","","","","","","","","","","","","3505","If yrp press RIGHT | If sdw press LEFT","Inducer practice",""," ","","Practice","","","","","","","","","","","","","","",""
"","html-keyboard-response","58","123490","0.0-85.0","n0j6pwxe","1536","864","","","","","","","","","","","null","+","Fixation - short","","null","","","","","","","","","","","","","","","","",""
"","html-keyboard-response","59","124065","0.0-86.0","n0j6pwxe","","","","","","","","","","","","","573","yrp","Inducer practice","","f","","Practice","","","","true","","","","","j","0","","true","RIGHT","",""
"","call-function","60","124065","0.0-88.0-0.0","n0j6pwxe","","","","","","","","","","","","","","","","","","","","","","","","","","","","","","","","","",""
"","html-keyboard-response","61","124382","0.0-88.0-1.0","n0j6pwxe","1536","864","","","","","","","","","","","null","Wrong","Feedback","","null","","","","","","","","","","","","","","","","",""
"","call-function","62","124383","0.0-88.0-2.0","n0j6pwxe","","","","","","","","","","","","","","","","","","","","","","","","","","","","","","","","","",""
"","html-keyboard-response","63","125344","0.0-89.0","n0j6pwxe","1536","864","","","","","","","","","","","null","+","Fixation - short","","null","","","","","","","","","","","","","","","","",""
"","html-keyboard-response","64","128363","0.0-90.0","n0j6pwxe","","","","","","","","","","","","","3018","If rrd press RIGHT | If lct press LEFT","Inducer practice",""," ","","Practice","","","","","","","","","","","","","","",""
"","html-keyboard-response","65","129121","0.0-91.0","n0j6pwxe","1536","864","","","","","","","","","","","null","+","Fixation - short","","null","","","","","","","","","","","","","","","","",""
"","html-keyboard-response","66","129902","0.0-92.0","n0j6pwxe","","","","","","","","","","","","","780","lct","Inducer practice","","f","","Practice","","","","true","","","","","f","1","","true","LEFT","",""
"","html-keyboard-response","67","130657","0.0-95.0","n0j6pwxe","1536","864","","","","","","","","","","","null","+","Fixation - short","","null","","","","","","","","","","","","","","","","",""
"","html-keyboard-response","68","136020","0.0-96.0","n0j6pwxe","","","","","","","","","","","","","5362","If lpn press RIGHT | If cta press LEFT","Inducer practice",""," ","","Practice","","","","","","","","","","","","","","",""
"","html-keyboard-response","69","136777","0.0-97.0","n0j6pwxe","1536","864","","","","","","","","","","","null","+","Fixation - short","","null","","","","","","","","","","","","","","","","",""
"","html-keyboard-response","70","137294","0.0-98.0","n0j6pwxe","","","","","","","","","","","","","517","cta","Inducer practice","","f","","Practice","","","","true","","","","","f","1","","true","LEFT","",""
"","html-keyboard-response","71","138057","0.0-101.0","n0j6pwxe","1536","864","","","","","","","","","","","null","+","Fixation - short","","null","","","","","","","","","","","","","","","","",""
"","html-keyboard-response","72","140255","0.0-102.0","n0j6pwxe","","","","","","","","","","","","","2197","If swr press RIGHT | If pcm press LEFT","Inducer practice",""," ","","Practice","","","","","","","","","","","","","","",""
"","html-keyboard-response","73","141021","0.0-103.0","n0j6pwxe","1536","864","","","","","","","","","","","null","+","Fixation - short","","null","","","","","","","","","","","","","","","","",""
"","html-keyboard-response","74","141470","0.0-104.0","n0j6pwxe","","","","","","","","","","","","","448","pcm","Inducer practice","","f","","Practice","","","","true","","","","","f","1","","true","LEFT","",""
"","html-keyboard-response","75","142226","0.0-107.0","n0j6pwxe","1536","864","","","","","","","","","","","null","+","Fixation - short","","null","","","","","","","","","","","","","","","","",""
"","instructions","76","151997","0.0-108.0","n0j6pwxe","","","","","","","","","","","","[{""page_index"":0,""viewing_time"":9770}]","9770","Instructions","Final experiment explanation","","","","","","","","","","","","","","","","","","",""
"","html-keyboard-response","77","164071","0.0-109.0","n0j6pwxe","","","","","","","","","","","","","10560","If vpu press RIGHT | If csp press LEFT","Cue practice",""," ","","Practice","","","","","","","","","","","","","","",""
"","html-keyboard-response","78","164838","0.0-110.0","n0j6pwxe","1536","864","","","","","","","","","","","null","+","Fixation - short","","null","","","","","","","","","","","","","","","","",""
"","html-keyboard-response","79","165331","0.0-111.0","n0j6pwxe","","","","","","","","","","","","","492","csp","Cue practice","","f","","Practice","0","13","false","false","true","both pre & post","LEFT","RIGHT","j","0","false","","","",""
"","call-function","80","165332","0.0-113.0-0.0","n0j6pwxe","","","","","","","","","","","","","","","","","","","","","","","","","","","","","","","","","",""
"","html-keyboard-response","81","165634","0.0-113.0-1.0","n0j6pwxe","1536","864","","","","","","","","","","","null","Wrong","Feedback","","null","","","","","","","","","","","","","","","","",""
"","call-function","82","165634","0.0-113.0-2.0","n0j6pwxe","","","","","","","","","","","","","","","","","","","","","","","","","","","","","","","","","",""
"","html-keyboard-response","83","166390","0.0-114.0","n0j6pwxe","1536","864","","","","","","","","","","","null","+","Fixation - short","","null","","","","","","","","","","","","","","","","",""
"","html-keyboard-response","84","167579","0.0-115.0","n0j6pwxe","","","","","","","","","","","","","1188","vpu","Cue practice","","f","","Practice","1","13","false","false","false","both pre & post","RIGHT","LEFT","f","1","false","","","",""
"","html-keyboard-response","85","168342","0.0-118.0","n0j6pwxe","1536","864","","","","","","","","","","","null","+","Fixation - short","","null","","","","","","","","","","","","","","","","",""
"","html-keyboard-response","86","169112","0.0-119.0","n0j6pwxe","","","","","","","","","","","","","769","vpu","Cue practice","","j","","Practice","2","13","false","false","true","both pre & post","RIGHT","RIGHT","j","1","true","","","",""
"","html-keyboard-response","87","169870","0.0-122.0","n0j6pwxe","1536","864","","","","","","","","","","","null","+","Fixation - short","","null","","","","","","","","","","","","","","","","",""
"","html-keyboard-response","88","171035","0.0-123.0","n0j6pwxe","","","","","","","","","","","","","1163","csp","Cue practice","","f","","Practice","3","13","false","false","false","both pre & post","LEFT","LEFT","f","1","true","","","",""
"","html-keyboard-response","89","171787","0.0-126.0","n0j6pwxe","1536","864","","","","","","","","","","","null","+","Fixation - short","","null","","","","","","","","","","","","","","","","",""
"","html-keyboard-response","90","172613","0.0-127.0","n0j6pwxe","","","","","","","","","","","","","825","csp","Cue practice","","j","","Practice","4","13","false","false","true","both pre & post","LEFT","RIGHT","j","1","false","","","",""
"","html-keyboard-response","91","173374","0.0-130.0","n0j6pwxe","1536","864","","","","","","","","","","","null","+","Fixation - short","","null","","","","","","","","","","","","","","","","",""
"","html-keyboard-response","92","174014","0.0-131.0","n0j6pwxe","","","","","","","","","","","","","639","csp","Cue practice","","f","","Practice","5","13","false","false","false","both pre & post","LEFT","LEFT","f","1","true","","","",""
"","html-keyboard-response","93","174772","0.0-134.0","n0j6pwxe","1536","864","","","","","","","","","","","null","+","Fixation - short","","null","","","","","","","","","","","","","","","","",""
"","html-keyboard-response","94","175552","0.0-135.0","n0j6pwxe","","","","","","","","","","","","","778","vpu","Cue practice","","j","","Practice","6","13","false","false","false","both pre & post","RIGHT","LEFT","f","0","false","","","",""
"","call-function","95","175553","0.0-137.0-0.0","n0j6pwxe","","","","","","","","","","","","","","","","","","","","","","","","","","","","","","","","","",""
"","html-keyboard-response","96","175867","0.0-137.0-1.0","n0j6pwxe","1536","864","","","","","","","","","","","null","Wrong","Feedback","","null","","","","","","","","","","","","","","","","",""
"","call-function","97","175868","0.0-137.0-2.0","n0j6pwxe","","","","","","","","","","","","","","","","","","","","","","","","","","","","","","","","","",""
"","html-keyboard-response","98","176619","0.0-138.0","n0j6pwxe","1536","864","","","","","","","","","","","null","+","Fixation - short","","null","","","","","","","","","","","","","","","","",""
"","html-keyboard-response","99","177439","0.0-139.0","n0j6pwxe","","","","","","","","","","","","","819","vpu","Cue practice","","j","","Practice","7","13","false","false","true","both pre & post","RIGHT","RIGHT","j","1","true","","","",""
"","html-keyboard-response","100","178204","0.0-142.0","n0j6pwxe","1536","864","","","","","","","","","","","null","+","Fixation - short","","null","","","","","","","","","","","","","","","","",""
"","html-keyboard-response","101","178796","0.0-143.0","n0j6pwxe","","","","","","","","","","","","","591","vpu","Cue practice","","j","","Practice","8","13","false","false","true","both pre & post","RIGHT","RIGHT","j","1","true","","","",""
"","html-keyboard-response","102","179551","0.0-146.0","n0j6pwxe","1536","864","","","","","","","","","","","null","+","Fixation - short","","null","","","","","","","","","","","","","","","","",""
"","html-keyboard-response","103","180253","0.0-147.0","n0j6pwxe","","","","","","","","","","","","","701","csp","Cue practice","","f","","Practice","9","13","false","false","false","both pre & post","LEFT","LEFT","f","1","true","","","",""
"","html-keyboard-response","104","181006","0.0-150.0","n0j6pwxe","1536","864","","","","","","","","","","","null","+","Fixation - short","","null","","","","","","","","","","","","","","","","",""
"","html-keyboard-response","105","181629","0.0-151.0","n0j6pwxe","","","","","","","","","","","","","622","csp","Cue practice","","j","","Practice","10","13","false","false","true","both pre & post","LEFT","RIGHT","j","1","false","","","",""
"","html-keyboard-response","106","182391","0.0-154.0","n0j6pwxe","1536","864","","","","","","","","","","","null","+","Fixation - short","","null","","","","","","","","","","","","","","","","",""
"","html-keyboard-response","107","182998","0.0-155.0","n0j6pwxe","","","","","","","","","","","","","606","vpu","Cue practice","","j","","Practice","11","13","false","false","true","both pre & post","RIGHT","RIGHT","j","1","true","","","",""
"","html-keyboard-response","108","183756","0.0-158.0","n0j6pwxe","1536","864","","","","","","","","","","","null","+","Fixation - short","","null","","","","","","","","","","","","","","","","",""
"","html-keyboard-response","109","184306","0.0-159.0","n0j6pwxe","","","","","","","","","","","","","549","csp","Cue practice","","f","","Practice","12","13","false","false","false","both pre & post","LEFT","LEFT","f","1","true","","","",""
"","html-keyboard-response","110","185071","0.0-162.0","n0j6pwxe","1536","864","","","","","","","","","","","null","+","Fixation - short","","null","","","","","","","","","","","","","","","","",""
"","canvas-keyboard-response","111","186344","0.0-163.0","n0j6pwxe","","","","","","","","","","","","","null","Cue","Cue","","null","","Practice","12","","","false","","","","","","","","","","",""
"","html-keyboard-response","112","187105","0.0-164.0","n0j6pwxe","1536","864","","","","","","","","","","","null","+","Fixation - short","","null","","","","","","","","","","","","","","","","",""
"","html-keyboard-response","113","188101","0.0-165.0","n0j6pwxe","","","","","","","","","","","","","995","csp","Cue practice","","j","","Practice","13","13","true","false","true","both pre & post","LEFT","RIGHT","j","1","false","","","",""
"","html-keyboard-response","114","188857","0.0-168.0","n0j6pwxe","1536","864","","","","","","","","","","","null","+","Fixation - short","","null","","","","","","","","","","","","","","","","",""
"","html-keyboard-response","115","189485","0.0-169.0","n0j6pwxe","","","","","","","","","","","","","626","vpu","Cue practice","","f","","Practice","14","13","true","false","false","both pre & post","RIGHT","LEFT","f","1","false","","","",""
"","html-keyboard-response","116","190239","0.0-172.0","n0j6pwxe","1536","864","","","","","","","","","","","null","+","Fixation - short","","null","","","","","","","","","","","","","","","","",""
"","html-keyboard-response","117","190833","0.0-173.0","n0j6pwxe","","","","","","","","","","","","","593","vpu","Cue practice","","j","","Practice","15","13","true","false","true","both pre & post","RIGHT","RIGHT","j","1","true","","","",""
"","html-keyboard-response","118","191588","0.0-176.0","n0j6pwxe","1536","864","","","","","","","","","","","null","+","Fixation - short","","null","","","","","","","","","","","","","","","","",""
"","html-keyboard-response","119","192099","0.0-177.0","n0j6pwxe","","","","","","","","","","","","","510","csp","Inducer practice","","f","","Practice","","","","true","","","","","f","1","","false","LEFT","",""
"","html-keyboard-response","120","192854","0.0-180.0","n0j6pwxe","1536","864","","","","","","","","","","","null","+","Fixation - short","","null","","","","","","","","","","","","","","","","",""
"","instructions","121","199668","0.0-181.0","n0j6pwxe","","","","","","","","","","","","[{""page_index"":0,""viewing_time"":6812}]","6813","End practice","End of practice","","","","","","","","","","","","","","","","","","",""
"","html-keyboard-response","122","202688","0.0-182.0","n0j6pwxe","1536","864","","","","","","","","","","","null","+","Fixation - long","","null","","","","","","","","","","","","","","","","",""
"","html-keyboard-response","123","205925","0.0-183.0","n0j6pwxe","","","","","","","","","","","","","3235","If ufc press RIGHT | If jil press LEFT","Inducer instructions",""," ","","0","","","","","","","","","","","","","","",""
"","html-keyboard-response","124","206688","0.0-184.0","n0j6pwxe","1536","864","","","","","","","","","","","null","+","Fixation - short","","null","","","","","","","","","","","","","","","","",""
"","html-keyboard-response","125","207156","0.0-185.0","n0j6pwxe","","","","","","","","","","","","","468","jil","Diagnostic trial","","f","","0","0","4","false","false","true","both pre & post","LEFT","RIGHT","j","0","false","","","",""
"","call-function","126","207157","0.0-187.0-0.0","n0j6pwxe","","","","","","","","","","","","","","","","","","","","","","","","","","","","","","","","","",""
"","html-keyboard-response","127","207466","0.0-187.0-1.0","n0j6pwxe","1536","864","","","","","","","","","","","null","Wrong","Feedback","","null","","","","","","","","","","","","","","","","",""
"","call-function","128","207467","0.0-187.0-2.0","n0j6pwxe","","","","","","","","","","","","","","","","","","","","","","","","","","","","","","","","","",""
"","html-keyboard-response","129","208227","0.0-188.0","n0j6pwxe","1536","864","","","","","","","","","","","null","+","Fixation - short","","null","","","","","","","","","","","","","","","","",""
"","html-keyboard-response","130","209129","0.0-189.0","n0j6pwxe","","","","","","","","","","","","","901","ufc","Diagnostic trial","","f","","0","1","4","false","false","false","both pre & post","RIGHT","LEFT","f","1","false","","","",""
"","html-keyboard-response","131","209886","0.0-192.0","n0j6pwxe","1536","864","","","","","","","","","","","null","+","Fixation - short","","null","","","","","","","","","","","","","","","","",""
"","html-keyboard-response","132","210837","0.0-193.0","n0j6pwxe","","","","","","","","","","","","","950","jil","Diagnostic trial","","j","","0","2","4","false","false","true","both pre & post","LEFT","RIGHT","j","1","false","","","",""
"","html-keyboard-response","133","211589","0.0-196.0","n0j6pwxe","1536","864","","","","","","","","","","","null","+","Fixation - short","","null","","","","","","","","","","","","","","","","",""
"","html-keyboard-response","134","212769","0.0-197.0","n0j6pwxe","","","","","","","","","","","","","1178","jil","Diagnostic trial","","j","","0","3","4","false","false","false","both pre & post","LEFT","LEFT","f","0","true","","","",""
"","call-function","135","212769","0.0-199.0-0.0","n0j6pwxe","","","","","","","","","","","","","","","","","","","","","","","","","","","","","","","","","",""
"","html-keyboard-response","136","213083","0.0-199.0-1.0","n0j6pwxe","1536","864","","","","","","","","","","","null","Wrong","Feedback","","null","","","","","","","","","","","","","","","","",""
"","call-function","137","213084","0.0-199.0-2.0","n0j6pwxe","","","","","","","","","","","","","","","","","","","","","","","","","","","","","","","","","",""
"","html-keyboard-response","138","213840","0.0-200.0","n0j6pwxe","1536","864","","","","","","","","","","","null","+","Fixation - short","","null","","","","","","","","","","","","","","","","",""
"","canvas-keyboard-response","139","215105","0.0-201.0","n0j6pwxe","","","","","","","","","","","","","null","Cue","Cue","","null","","0","3","","","false","","","","","","","","","","",""
"","html-keyboard-response","140","215867","0.0-202.0","n0j6pwxe","1536","864","","","","","","","","","","","null","+","Fixation - short","","null","","","","","","","","","","","","","","","","",""
"","html-keyboard-response","141","216594","0.0-203.0","n0j6pwxe","","","","","","","","","","","","","725","ufc","Inducer trial","","f","","0","","","","true","","","","","j","0","","false","RIGHT","",""
"","call-function","142","216595","0.0-205.0-0.0","n0j6pwxe","","","","","","","","","","","","","","","","","","","","","","","","","","","","","","","","","",""
"","html-keyboard-response","143","216901","0.0-205.0-1.0","n0j6pwxe","1536","864","","","","","","","","","","","null","Wrong","Feedback","","null","","","","","","","","","","","","","","","","",""
"","call-function","144","216902","0.0-205.0-2.0","n0j6pwxe","","","","","","","","","","","","","","","","","","","","","","","","","","","","","","","","","",""
"","html-keyboard-response","145","217653","0.0-206.0","n0j6pwxe","1536","864","","","","","","","","","","","null","+","Fixation - short","","null","","","","","","","","","","","","","","","","",""
"","html-keyboard-response","146","223906","0.0-207.0","n0j6pwxe","","","","","","","","","","","","","6252","If wwt press RIGHT | If dnc press LEFT","Inducer instructions",""," ","","1","","","","","","","","","","","","","","",""
"","html-keyboard-response","147","224665","0.0-208.0","n0j6pwxe","1536","864","","","","","","","","","","","null","+","Fixation - short","","null","","","","","","","","","","","","","","","","",""
"","html-keyboard-response","148","225248","0.0-209.0","n0j6pwxe","","","","","","","","","","","","","581","wwt","Diagnostic trial","","j","","1","0","4","false","false","false","both pre & post","RIGHT","LEFT","f","0","false","","","",""
"","call-function","149","225248","0.0-211.0-0.0","n0j6pwxe","","","","","","","","","","","","","","","","","","","","","","","","","","","","","","","","","",""
"","html-keyboard-response","150","225566","0.0-211.0-1.0","n0j6pwxe","1536","864","","","","","","","","","","","null","Wrong","Feedback","","null","","","","","","","","","","","","","","","","",""
"","call-function","151","225566","0.0-211.0-2.0","n0j6pwxe","","","","","","","","","","","","","","","","","","","","","","","","","","","","","","","","","",""
"","html-keyboard-response","152","226329","0.0-212.0","n0j6pwxe","1536","864","","","","","","","","","","","null","+","Fixation - short","","null","","","","","","","","","","","","","","","","",""
"","html-keyboard-response","153","227200","0.0-213.0","n0j6pwxe","","","","","","","","","","","","","869","dnc","Diagnostic trial","","j","","1","1","4","false","false","true","both pre & post","LEFT","RIGHT","j","1","false","","","",""
"","html-keyboard-response","154","227956","0.0-216.0","n0j6pwxe","1536","864","","","","","","","","","","","null","+","Fixation - short","","null","","","","","","","","","","","","","","","","",""
"","html-keyboard-response","155","228561","0.0-217.0","n0j6pwxe","","","","","","","","","","","","","603","wwt","Diagnostic trial","","f","","1","2","4","false","false","false","both pre & post","RIGHT","LEFT","f","1","false","","","",""
"","html-keyboard-response","156","229321","0.0-220.0","n0j6pwxe","1536","864","","","","","","","","","","","null","+","Fixation - short","","null","","","","","","","","","","","","","","","","",""
"","html-keyboard-response","157","230112","0.0-221.0","n0j6pwxe","","","","","","","","","","","","","791","dnc","Diagnostic trial","","j","","1","3","4","false","false","true","both pre & post","LEFT","RIGHT","j","1","false","","","",""
"","html-keyboard-response","158","230870","0.0-224.0","n0j6pwxe","1536","864","","","","","","","","","","","null","+","Fixation - short","","null","","","","","","","","","","","","","","","","",""
"","canvas-keyboard-response","159","232123","0.0-225.0","n0j6pwxe","","","","","","","","","","","","","null","Cue","Cue","","null","","1","3","","","false","","","","","","","","","","",""
"","html-keyboard-response","160","232887","0.0-226.0","n0j6pwxe","1536","864","","","","","","","","","","","null","+","Fixation - short","","null","","","","","","","","","","","","","","","","",""
"","html-keyboard-response","161","233520","0.0-227.0","n0j6pwxe","","","","","","","","","","","","","632","wwt","Diagnostic trial","","j","","1","4","4","true","false","true","both pre & post","RIGHT","RIGHT","j","1","true","","","",""
"","html-keyboard-response","162","234273","0.0-230.0","n0j6pwxe","1536","864","","","","","","","","","","","null","+","Fixation - short","","null","","","","","","","","","","","","","","","","",""
"","html-keyboard-response","163","234869","0.0-231.0","n0j6pwxe","","","","","","","","","","","","","595","dnc","Diagnostic trial","","f","","1","5","4","true","false","false","both pre & post","LEFT","LEFT","f","1","true","","","",""
"","html-keyboard-response","164","235636","0.0-234.0","n0j6pwxe","1536","864","","","","","","","","","","","null","+","Fixation - short","","null","","","","","","","","","","","","","","","","",""
"","html-keyboard-response","165","236499","0.0-235.0","n0j6pwxe","","","","","","","","","","","","","861","dnc","Diagnostic trial","","f","","1","6","4","true","false","false","both pre & post","LEFT","LEFT","f","1","true","","","",""
"","html-keyboard-response","166","237258","0.0-238.0","n0j6pwxe","1536","864","","","","","","","","","","","null","+","Fixation - short","","null","","","","","","","","","","","","","","","","",""
"","html-keyboard-response","167","237930","0.0-239.0","n0j6pwxe","","","","","","","","","","","","","671","wwt","Inducer trial","","f","","1","","","","true","","","","","j","0","","false","RIGHT","",""
"","call-function","168","237931","0.0-241.0-0.0","n0j6pwxe","","","","","","","","","","","","","","","","","","","","","","","","","","","","","","","","","",""
"","html-keyboard-response","169","238234","0.0-241.0-1.0","n0j6pwxe","1536","864","","","","","","","","","","","null","Wrong","Feedback","","null","","","","","","","","","","","","","","","","",""
"","call-function","170","238234","0.0-241.0-2.0","n0j6pwxe","","","","","","","","","","","","","","","","","","","","","","","","","","","","","","","","","",""
"","html-keyboard-response","171","238990","0.0-242.0","n0j6pwxe","1536","864","","","","","","","","","","","null","+","Fixation - short","","null","","","","","","","","","","","","","","","","",""
"","html-keyboard-response","172","241534","0.0-243.0","n0j6pwxe","","","","","","","","","","","","","2542","If ibg press RIGHT | If hhd press LEFT","Inducer instructions",""," ","","2","","","","","","","","","","","","","","",""
"","html-keyboard-response","173","242288","0.0-244.0","n0j6pwxe","1536","864","","","","","","","","","","","null","+","Fixation - short","","null","","","","","","","","","","","","","","","","",""
"","html-keyboard-response","174","243278","0.0-245.0","n0j6pwxe","","","","","","","","","","","","","989","ibg","Diagnostic trial","","j","","2","0","6","false","false","false","both pre & post","RIGHT","LEFT","f","0","false","","","",""
"","call-function","175","243279","0.0-247.0-0.0","n0j6pwxe","","","","","","","","","","","","","","","","","","","","","","","","","","","","","","","","","",""
"","html-keyboard-response","176","243583","0.0-247.0-1.0","n0j6pwxe","1536","864","","","","","","","","","","","null","Wrong","Feedback","","null","","","","","","","","","","","","","","","","",""
"","call-function","177","243584","0.0-247.0-2.0","n0j6pwxe","","","","","","","","","","","","","","","","","","","","","","","","","","","","","","","","","",""
"","html-keyboard-response","178","244339","0.0-248.0","n0j6pwxe","1536","864","","","","","","","","","","","null","+","Fixation - short","","null","","","","","","","","","","","","","","","","",""
"","html-keyboard-response","179","245074","0.0-249.0","n0j6pwxe","","","","","","","","","","","","","733","hhd","Diagnostic trial","","f","","2","1","6","false","false","false","both pre & post","LEFT","LEFT","f","1","true","","","",""
"","html-keyboard-response","180","245837","0.0-252.0","n0j6pwxe","1536","864","","","","","","","","","","","null","+","Fixation - short","","null","","","","","","","","","","","","","","","","",""
"","html-keyboard-response","181","246394","0.0-253.0","n0j6pwxe","","","","","","","","","","","","","556","ibg","Diagnostic trial","","j","","2","2","6","false","false","true","both pre & post","RIGHT","RIGHT","j","1","true","","","",""
"","html-keyboard-response","182","247156","0.0-256.0","n0j6pwxe","1536","864","","","","","","","","","","","null","+","Fixation - short","","null","","","","","","","","","","","","","","","","",""
"","html-keyboard-response","183","248040","0.0-257.0","n0j6pwxe","","","","","","","","","","","","","882","ibg","Diagnostic trial","","j","","2","3","6","false","false","true","both pre & post","RIGHT","RIGHT","j","1","true","","","",""
"","html-keyboard-response","184","248806","0.0-260.0","n0j6pwxe","1536","864","","","","","","","","","","","null","+","Fixation - short","","null","","","","","","","","","","","","","","","","",""
"","html-keyboard-response","185","249534","0.0-261.0","n0j6pwxe","","","","","","","","","","","","","727","ibg","Diagnostic trial","","j","","2","4","6","false","false","true","both pre & post","RIGHT","RIGHT","j","1","true","","","",""
"","html-keyboard-response","186","250289","0.0-264.0","n0j6pwxe","1536","864","","","","","","","","","","","null","+","Fixation - short","","null","","","","","","","","","","","","","","","","",""
"","html-keyboard-response","187","251082","0.0-265.0","n0j6pwxe","","","","","","","","","","","","","793","hhd","Diagnostic trial","","f","","2","5","6","false","false","false","both pre & post","LEFT","LEFT","f","1","true","","","",""
"","html-keyboard-response","188","251837","0.0-268.0","n0j6pwxe","1536","864","","","","","","","","","","","null","+","Fixation - short","","null","","","","","","","","","","","","","","","","",""
"","canvas-keyboard-response","189","253097","0.0-269.0","n0j6pwxe","","","","","","","","","","","","","null","Cue","Cue","","null","","2","5","","","false","","","","","","","","","","",""
"","html-keyboard-response","190","253854","0.0-270.0","n0j6pwxe","1536","864","","","","","","","","","","","null","+","Fixation - short","","null","","","","","","","","","","","","","","","","",""
"","html-keyboard-response","191","254618","0.0-271.0","n0j6pwxe","","","","","","","","","","","","","763","ibg","Diagnostic trial","","j","","2","6","6","true","false","true","both pre & post","RIGHT","RIGHT","j","1","true","","","",""
"","html-keyboard-response","192","255371","0.0-274.0","n0j6pwxe","1536","864","","","","","","","","","","","null","+","Fixation - short","","null","","","","","","","","","","","","","","","","",""
"","html-keyboard-response","193","255904","0.0-275.0","n0j6pwxe","","","","","","","","","","","","","531","ibg","Diagnostic trial","","j","","2","7","6","true","false","true","both pre & post","RIGHT","RIGHT","j","1","true","","","",""
"","html-keyboard-response","194","256671","0.0-278.0","n0j6pwxe","1536","864","","","","","","","","","","","null","+","Fixation - short","","null","","","","","","","","","","","","","","","","",""
"","html-keyboard-response","195","257118","0.0-279.0","n0j6pwxe","","","","","","","","","","","","","446","ibg","Diagnostic trial","","j","","2","8","6","true","false","true","both pre & post","RIGHT","RIGHT","j","1","true","","","",""
"","html-keyboard-response","196","257875","0.0-282.0","n0j6pwxe","1536","864","","","","","","","","","","","null","+","Fixation - short","","null","","","","","","","","","","","","","","","","",""
"","html-keyboard-response","197","258252","0.0-283.0","n0j6pwxe","","","","","","","","","","","","","377","ibg","Diagnostic trial","","j","","2","9","6","true","false","true","both pre & post","RIGHT","RIGHT","j","1","true","","","",""
"","html-keyboard-response","198","259007","0.0-286.0","n0j6pwxe","1536","864","","","","","","","","","","","null","+","Fixation - short","","null","","","","","","","","","","","","","","","","",""
"","html-keyboard-response","199","259663","0.0-287.0","n0j6pwxe","","","","","","","","","","","","","655","hhd","Inducer trial","","f","","2","","","","true","","","","","f","1","","false","LEFT","",""
"","html-keyboard-response","200","260419","0.0-290.0","n0j6pwxe","1536","864","","","","","","","","","","","null","+","Fixation - short","","null","","","","","","","","","","","","","","","","",""
"","html-keyboard-response","201","262934","0.0-291.0","n0j6pwxe","","","","","","","","","","","","","2513","If ydi press RIGHT | If quy press LEFT","Inducer instructions",""," ","","3","","","","","","","","","","","","","","",""
"","html-keyboard-response","202","263689","0.0-292.0","n0j6pwxe","1536","864","","","","","","","","","","","null","+","Fixation - short","","null","","","","","","","","","","","","","","","","",""
"","html-keyboard-response","203","264242","0.0-293.0","n0j6pwxe","","","","","","","","","","","","","551","ydi","Diagnostic trial","","j","","3","0","7","false","false","false","both pre & post","RIGHT","LEFT","f","0","false","","","",""
"","call-function","204","264243","0.0-295.0-0.0","n0j6pwxe","","","","","","","","","","","","","","","","","","","","","","","","","","","","","","","","","",""
"","html-keyboard-response","205","264549","0.0-295.0-1.0","n0j6pwxe","1536","864","","","","","","","","","","","null","Wrong","Feedback","","null","","","","","","","","","","","","","","","","",""
"","call-function","206","264550","0.0-295.0-2.0","n0j6pwxe","","","","","","","","","","","","","","","","","","","","","","","","","","","","","","","","","",""
"","html-keyboard-response","207","265305","0.0-296.0","n0j6pwxe","1536","864","","","","","","","","","","","null","+","Fixation - short","","null","","","","","","","","","","","","","","","","",""
"","html-keyboard-response","208","266196","0.0-297.0","n0j6pwxe","","","","","","","","","","","","","890","ydi","Diagnostic trial","","j","","3","1","7","false","false","true","both pre & post","RIGHT","RIGHT","j","1","true","","","",""
"","html-keyboard-response","209","266955","0.0-300.0","n0j6pwxe","1536","864","","","","","","","","","","","null","+","Fixation - short","","null","","","","","","","","","","","","","","","","",""
"","html-keyboard-response","210","267890","0.0-301.0","n0j6pwxe","","","","","","","","","","","","","934","quy","Diagnostic trial","","j","","3","2","7","false","false","true","both pre & post","LEFT","RIGHT","j","1","false","","","",""
"","html-keyboard-response","211","268657","0.0-304.0","n0j6pwxe","1536","864","","","","","","","","","","","null","+","Fixation - short","","null","","","","","","","","","","","","","","","","",""
"","html-keyboard-response","212","269128","0.0-305.0","n0j6pwxe","","","","","","","","","","","","","470","quy","Diagnostic trial","","j","","3","3","7","false","false","true","both pre & post","LEFT","RIGHT","j","1","false","","","",""
"","html-keyboard-response","213","269893","0.0-308.0","n0j6pwxe","1536","864","","","","","","","","","","","null","+","Fixation - short","","null","","","","","","","","","","","","","","","","",""
"","html-keyboard-response","214","270277","0.0-309.0","n0j6pwxe","","","","","","","","","","","","","383","ydi","Diagnostic trial","","j","","3","4","7","false","false","true","both pre & post","RIGHT","RIGHT","j","1","true","","","",""
"","html-keyboard-response","215","271040","0.0-312.0","n0j6pwxe","1536","864","","","","","","","","","","","null","+","Fixation - short","","null","","","","","","","","","","","","","","","","",""
"","html-keyboard-response","216","271536","0.0-313.0","n0j6pwxe","","","","","","","","","","","","","495","quy","Diagnostic trial","","j","","3","5","7","false","false","true","both pre & post","LEFT","RIGHT","j","1","false","","","",""
"","html-keyboard-response","217","272292","0.0-316.0","n0j6pwxe","1536","864","","","","","","","","","","","null","+","Fixation - short","","null","","","","","","","","","","","","","","","","",""
"","html-keyboard-response","218","272695","0.0-317.0","n0j6pwxe","","","","","","","","","","","","","402","ydi","Diagnostic trial","","j","","3","6","7","false","false","true","both pre & post","RIGHT","RIGHT","j","1","true","","","",""
"","html-keyboard-response","219","273456","0.0-320.0","n0j6pwxe","1536","864","","","","","","","","","","","null","+","Fixation - short","","null","","","","","","","","","","","","","","","","",""
"","canvas-keyboard-response","220","274711","0.0-321.0","n0j6pwxe","","","","","","","","","","","","","null","Cue","Cue","","null","","3","6","","","false","","","","","","","","","","",""
"","html-keyboard-response","221","275472","0.0-322.0","n0j6pwxe","1536","864","","","","","","","","","","","null","+","Fixation - short","","null","","","","","","","","","","","","","","","","",""
"","html-keyboard-response","222","276174","0.0-323.0","n0j6pwxe","","","","","","","","","","","","","701","ydi","Diagnostic trial","","f","","3","7","7","true","false","false","both pre & post","RIGHT","LEFT","f","1","false","","","",""
"","html-keyboard-response","223","276938","0.0-326.0","n0j6pwxe","1536","864","","","","","","","","","","","null","+","Fixation - short","","null","","","","","","","","","","","","","","","","",""
"","html-keyboard-response","224","277354","0.0-327.0","n0j6pwxe","","","","","","","","","","","","","414","ydi","Diagnostic trial","","f","","3","8","7","true","false","false","both pre & post","RIGHT","LEFT","f","1","false","","","",""
"","html-keyboard-response","225","278120","0.0-330.0","n0j6pwxe","1536","864","","","","","","","","","","","null","+","Fixation - short","","null","","","","","","","","","","","","","","","","",""
"","html-keyboard-response","226","278682","0.0-331.0","n0j6pwxe","","","","","","","","","","","","","561","ydi","Diagnostic trial","","j","","3","9","7","true","false","true","both pre & post","RIGHT","RIGHT","j","1","true","","","",""
"","html-keyboard-response","227","279438","0.0-334.0","n0j6pwxe","1536","864","","","","","","","","","","","null","+","Fixation - short","","null","","","","","","","","","","","","","","","","",""
"","html-keyboard-response","228","279879","0.0-335.0","n0j6pwxe","","","","","","","","","","","","","440","ydi","Diagnostic trial","","j","","3","10","7","true","false","true","both pre & post","RIGHT","RIGHT","j","1","true","","","",""
"","html-keyboard-response","229","280639","0.0-338.0","n0j6pwxe","1536","864","","","","","","","","","","","null","+","Fixation - short","","null","","","","","","","","","","","","","","","","",""
"","html-keyboard-response","230","281795","0.0-339.0","n0j6pwxe","","","","","","","","","","","","","1155","ydi","Inducer trial","","j","","3","","","","true","","","","","j","1","","false","RIGHT","",""
"","html-keyboard-response","231","282558","0.0-342.0","n0j6pwxe","1536","864","","","","","","","","","","","null","+","Fixation - short","","null","","","","","","","","","","","","","","","","",""
"","html-keyboard-response","232","284931","0.0-343.0","n0j6pwxe","","","","","","","","","","","","","2372","If bms press RIGHT | If kmh press LEFT","Inducer instructions",""," ","","4","","","","","","","","","","","","","","",""
"","html-keyboard-response","233","285686","0.0-344.0","n0j6pwxe","1536","864","","","","","","","","","","","null","+","Fixation - short","","null","","","","","","","","","","","","","","","","",""
"","html-keyboard-response","234","286942","0.0-345.0","n0j6pwxe","","","","","","","","","","","","","1255","bms","Diagnostic trial","","j","","4","0","8","false","false","false","both pre & post","RIGHT","LEFT","f","0","false","","","",""
"","call-function","235","286942","0.0-347.0-0.0","n0j6pwxe","","","","","","","","","","","","","","","","","","","","","","","","","","","","","","","","","",""
"","html-keyboard-response","236","287249","0.0-347.0-1.0","n0j6pwxe","1536","864","","","","","","","","","","","null","Wrong","Feedback","","null","","","","","","","","","","","","","","","","",""
"","call-function","237","287249","0.0-347.0-2.0","n0j6pwxe","","","","","","","","","","","","","","","","","","","","","","","","","","","","","","","","","",""
"","html-keyboard-response","238","288006","0.0-348.0","n0j6pwxe","1536","864","","","","","","","","","","","null","+","Fixation - short","","null","","","","","","","","","","","","","","","","",""
"","html-keyboard-response","239","289194","0.0-349.0","n0j6pwxe","","","","","","","","","","","","","1187","bms","Diagnostic trial","","f","","4","1","8","false","false","false","both pre & post","RIGHT","LEFT","f","1","false","","","",""
"","html-keyboard-response","240","289956","0.0-352.0","n0j6pwxe","1536","864","","","","","","","","","","","null","+","Fixation - short","","null","","","","","","","","","","","","","","","","",""
"","html-keyboard-response","241","290851","0.0-353.0","n0j6pwxe","","","","","","","","","","","","","894","bms","Diagnostic trial","","j","","4","2","8","false","false","true","both pre & post","RIGHT","RIGHT","j","1","true","","","",""
"","html-keyboard-response","242","291619","0.0-356.0","n0j6pwxe","1536","864","","","","","","","","","","","null","+","Fixation - short","","null","","","","","","","","","","","","","","","","",""
"","html-keyboard-response","243","292507","0.0-357.0","n0j6pwxe","","","","","","","","","","","","","887","bms","Diagnostic trial","","j","","4","3","8","false","false","true","both pre & post","RIGHT","RIGHT","j","1","true","","","",""
"","html-keyboard-response","244","293261","0.0-360.0","n0j6pwxe","1536","864","","","","","","","","","","","null","+","Fixation - short","","null","","","","","","","","","","","","","","","","",""
"","html-keyboard-response","245","293755","0.0-361.0","n0j6pwxe","","","","","","","","","","","","","493","bms","Diagnostic trial","","j","","4","4","8","false","false","true","both pre & post","RIGHT","RIGHT","j","1","true","","","",""
"","html-keyboard-response","246","294520","0.0-364.0","n0j6pwxe","1536","864","","","","","","","","","","","null","+","Fixation - short","","null","","","","","","","","","","","","","","","","",""
"","html-keyboard-response","247","294920","0.0-365.0","n0j6pwxe","","","","","","","","","","","","","400","bms","Diagnostic trial","","j","","4","5","8","false","false","true","both pre & post","RIGHT","RIGHT","j","1","true","","","",""
"","html-keyboard-response","248","295676","0.0-368.0","n0j6pwxe","1536","864","","","","","","","","","","","null","+","Fixation - short","","null","","","","","","","","","","","","","","","","",""
"","html-keyboard-response","249","296062","0.0-369.0","n0j6pwxe","","","","","","","","","","","","","385","kmh","Diagnostic trial","","j","","4","6","8","false","false","true","both pre & post","LEFT","RIGHT","j","1","false","","","",""
"","html-keyboard-response","250","296819","0.0-372.0","n0j6pwxe","1536","864","","","","","","","","","","","null","+","Fixation - short","","null","","","","","","","","","","","","","","","","",""
"","html-keyboard-response","251","297220","0.0-373.0","n0j6pwxe","","","","","","","","","","","","","399","kmh","Diagnostic trial","","j","","4","7","8","false","false","false","both pre & post","LEFT","LEFT","f","0","true","","","",""
"","call-function","252","297221","0.0-375.0-0.0","n0j6pwxe","","","","","","","","","","","","","","","","","","","","","","","","","","","","","","","","","",""
"","html-keyboard-response","253","297532","0.0-375.0-1.0","n0j6pwxe","1536","864","","","","","","","","","","","null","Wrong","Feedback","","null","","","","","","","","","","","","","","","","",""
"","call-function","254","297532","0.0-375.0-2.0","n0j6pwxe","","","","","","","","","","","","","","","","","","","","","","","","","","","","","","","","","",""
"","html-keyboard-response","255","298291","0.0-376.0","n0j6pwxe","1536","864","","","","","","","","","","","null","+","Fixation - short","","null","","","","","","","","","","","","","","","","",""
"","canvas-keyboard-response","256","299557","0.0-377.0","n0j6pwxe","","","","","","","","","","","","","null","Cue","Cue","","null","","4","7","","","false","","","","","","","","","","",""
"","html-keyboard-response","257","300324","0.0-378.0","n0j6pwxe","1536","864","","","","","","","","","","","null","+","Fixation - short","","null","","","","","","","","","","","","","","","","",""
"","html-keyboard-response","258","301031","0.0-379.0","n0j6pwxe","","","","","","","","","","","","","706","kmh","Diagnostic trial","","j","","4","8","8","true","false","true","both pre & post","LEFT","RIGHT","j","1","false","","","",""
"","html-keyboard-response","259","301790","0.0-382.0","n0j6pwxe","1536","864","","","","","","","","","","","null","+","Fixation - short","","null","","","","","","","","","","","","","","","","",""
"","html-keyboard-response","260","302286","0.0-383.0","n0j6pwxe","","","","","","","","","","","","","496","kmh","Diagnostic trial","","j","","4","9","8","true","false","false","both pre & post","LEFT","LEFT","f","0","true","","","",""
"","call-function","261","302287","0.0-385.0-0.0","n0j6pwxe","","","","","","","","","","","","","","","","","","","","","","","","","","","","","","","","","",""
"","html-keyboard-response","262","302601","0.0-385.0-1.0","n0j6pwxe","1536","864","","","","","","","","","","","null","Wrong","Feedback","","null","","","","","","","","","","","","","","","","",""
"","call-function","263","302601","0.0-385.0-2.0","n0j6pwxe","","","","","","","","","","","","","","","","","","","","","","","","","","","","","","","","","",""
"","html-keyboard-response","264","303358","0.0-386.0","n0j6pwxe","1536","864","","","","","","","","","","","null","+","Fixation - short","","null","","","","","","","","","","","","","","","","",""
"","html-keyboard-response","265","304124","0.0-387.0","n0j6pwxe","","","","","","","","","","","","","765","kmh","Diagnostic trial","","j","","4","10","8","true","false","true","both pre & post","LEFT","RIGHT","j","1","false","","","",""
"","html-keyboard-response","266","304888","0.0-390.0","n0j6pwxe","1536","864","","","","","","","","","","","null","+","Fixation - short","","null","","","","","","","","","","","","","","","","",""
"","html-keyboard-response","267","305787","0.0-391.0","n0j6pwxe","","","","","","","","","","","","","897","kmh","Inducer trial","","j","","4","","","","true","","","","","f","0","","false","LEFT","",""
"","call-function","268","305787","0.0-393.0-0.0","n0j6pwxe","","","","","","","","","","","","","","","","","","","","","","","","","","","","","","","","","",""
"","html-keyboard-response","269","306098","0.0-393.0-1.0","n0j6pwxe","1536","864","","","","","","","","","","","null","Wrong","Feedback","","null","","","","","","","","","","","","","","","","",""
"","call-function","270","306099","0.0-393.0-2.0","n0j6pwxe","","","","","","","","","","","","","","","","","","","","","","","","","","","","","","","","","",""
"","html-keyboard-response","271","306853","0.0-394.0","n0j6pwxe","1536","864","","","","","","","","","","","null","+","Fixation - short","","null","","","","","","","","","","","","","","","","",""
"","html-keyboard-response","272","308378","0.0-395.0","n0j6pwxe","","","","","","","","","","","","","1523","If eeu press RIGHT | If wrz press LEFT","Inducer instructions",""," ","","5","","","","","","","","","","","","","","",""
"","html-keyboard-response","273","309139","0.0-396.0","n0j6pwxe","1536","864","","","","","","","","","","","null","+","Fixation - short","","null","","","","","","","","","","","","","","","","",""
"","html-keyboard-response","274","310316","0.0-397.0","n0j6pwxe","","","","","","","","","","","","","1175","wrz","Diagnostic trial","","f","","5","0","10","false","false","false","both pre & post","LEFT","LEFT","f","1","true","","","",""
"","html-keyboard-response","275","311072","0.0-400.0","n0j6pwxe","1536","864","","","","","","","","","","","null","+","Fixation - short","","null","","","","","","","","","","","","","","","","",""
"","html-keyboard-response","276","312369","0.0-401.0","n0j6pwxe","","","","","","","","","","","","","1296","eeu","Diagnostic trial","","j","","5","1","10","false","false","true","both pre & post","RIGHT","RIGHT","j","1","true","","","",""
"","html-keyboard-response","277","313121","0.0-404.0","n0j6pwxe","1536","864","","","","","","","","","","","null","+","Fixation - short","","null","","","","","","","","","","","","","","","","",""
"","html-keyboard-response","278","313661","0.0-405.0","n0j6pwxe","","","","","","","","","","","","","539","wrz","Diagnostic trial","","j","","5","2","10","false","false","true","both pre & post","LEFT","RIGHT","j","1","false","","","",""
"","html-keyboard-response","279","314417","0.0-408.0","n0j6pwxe","1536","864","","","","","","","","","","","null","+","Fixation - short","","null","","","","","","","","","","","","","","","","",""
"","html-keyboard-response","280","314975","0.0-409.0","n0j6pwxe","","","","","","","","","","","","","558","eeu","Diagnostic trial","","f","","5","3","10","false","false","false","both pre & post","RIGHT","LEFT","f","1","false","","","",""
"","html-keyboard-response","281","315739","0.0-412.0","n0j6pwxe","1536","864","","","","","","","","","","","null","+","Fixation - short","","null","","","","","","","","","","","","","","","","",""
"","html-keyboard-response","282","316300","0.0-413.0","n0j6pwxe","","","","","","","","","","","","","560","eeu","Diagnostic trial","","j","","5","4","10","false","false","true","both pre & post","RIGHT","RIGHT","j","1","true","","","",""
"","html-keyboard-response","283","317054","0.0-416.0","n0j6pwxe","1536","864","","","","","","","","","","","null","+","Fixation - short","","null","","","","","","","","","","","","","","","","",""
"","html-keyboard-response","284","317625","0.0-417.0","n0j6pwxe","","","","","","","","","","","","","569","eeu","Diagnostic trial","","j","","5","5","10","false","false","true","both pre & post","RIGHT","RIGHT","j","1","true","","","",""
"","html-keyboard-response","285","318388","0.0-420.0","n0j6pwxe","1536","864","","","","","","","","","","","null","+","Fixation - short","","null","","","","","","","","","","","","","","","","",""
"","html-keyboard-response","286","319086","0.0-421.0","n0j6pwxe","","","","","","","","","","","","","697","wrz","Diagnostic trial","","j","","5","6","10","false","false","true","both pre & post","LEFT","RIGHT","j","1","false","","","",""
"","html-keyboard-response","287","319840","0.0-424.0","n0j6pwxe","1536","864","","","","","","","","","","","null","+","Fixation - short","","null","","","","","","","","","","","","","","","","",""
"","html-keyboard-response","288","320735","0.0-425.0","n0j6pwxe","","","","","","","","","","","","","894","wrz","Diagnostic trial","","j","","5","7","10","false","false","false","both pre & post","LEFT","LEFT","f","0","true","","","",""
"","call-function","289","320736","0.0-427.0-0.0","n0j6pwxe","","","","","","","","","","","","","","","","","","","","","","","","","","","","","","","","","",""
"","html-keyboard-response","290","321049","0.0-427.0-1.0","n0j6pwxe","1536","864","","","","","","","","","","","null","Wrong","Feedback","","null","","","","","","","","","","","","","","","","",""
"","call-function","291","321050","0.0-427.0-2.0","n0j6pwxe","","","","","","","","","","","","","","","","","","","","","","","","","","","","","","","","","",""
"","html-keyboard-response","292","321803","0.0-428.0","n0j6pwxe","1536","864","","","","","","","","","","","null","+","Fixation - short","","null","","","","","","","","","","","","","","","","",""
"","html-keyboard-response","293","322203","0.0-429.0","n0j6pwxe","","","","","","","","","","","","","399","eeu","Diagnostic trial","","f","","5","8","10","false","false","false","both pre & post","RIGHT","LEFT","f","1","false","","","",""
"","html-keyboard-response","294","322972","0.0-432.0","n0j6pwxe","1536","864","","","","","","","","","","","null","+","Fixation - short","","null","","","","","","","","","","","","","","","","",""
"","html-keyboard-response","295","323486","0.0-433.0","n0j6pwxe","","","","","","","","","","","","","513","eeu","Diagnostic trial","","j","","5","9","10","false","false","true","both pre & post","RIGHT","RIGHT","j","1","true","","","",""
"","html-keyboard-response","296","324238","0.0-436.0","n0j6pwxe","1536","864","","","","","","","","","","","null","+","Fixation - short","","null","","","","","","","","","","","","","","","","",""
"","canvas-keyboard-response","297","325495","0.0-437.0","n0j6pwxe","","","","","","","","","","","","","null","Cue","Cue","","null","","5","9","","","false","","","","","","","","","","",""
"","html-keyboard-response","298","326257","0.0-438.0","n0j6pwxe","1536","864","","","","","","","","","","","null","+","Fixation - short","","null","","","","","","","","","","","","","","","","",""
"","html-keyboard-response","299","327126","0.0-439.0","n0j6pwxe","","","","","","","","","","","","","868","wrz","Diagnostic trial","","f","","5","10","10","true","false","false","both pre & post","LEFT","LEFT","f","1","true","","","",""
"","html-keyboard-response","300","327888","0.0-442.0","n0j6pwxe","1536","864","","","","","","","","","","","null","+","Fixation - short","","null","","","","","","","","","","","","","","","","",""
"","html-keyboard-response","301","328570","0.0-443.0","n0j6pwxe","","","","","","","","","","","","","681","eeu","Diagnostic trial","","j","","5","11","10","true","false","true","both pre & post","RIGHT","RIGHT","j","1","true","","","",""
"","html-keyboard-response","302","329326","0.0-446.0","n0j6pwxe","1536","864","","","","","","","","","","","null","+","Fixation - short","","null","","","","","","","","","","","","","","","","",""
"","html-keyboard-response","303","329803","0.0-447.0","n0j6pwxe","","","","","","","","","","","","","476","wrz","Diagnostic trial","","j","","5","12","10","true","false","true","both pre & post","LEFT","RIGHT","j","1","false","","","",""
"","html-keyboard-response","304","330557","0.0-450.0","n0j6pwxe","1536","864","","","","","","","","","","","null","+","Fixation - short","","null","","","","","","","","","","","","","","","","",""
"","html-keyboard-response","305","331036","0.0-451.0","n0j6pwxe","","","","","","","","","","","","","477","eeu","Inducer trial","","f","","5","","","","true","","","","","j","0","","false","RIGHT","",""
"","call-function","306","331036","0.0-453.0-0.0","n0j6pwxe","","","","","","","","","","","","","","","","","","","","","","","","","","","","","","","","","",""
"","html-keyboard-response","307","331349","0.0-453.0-1.0","n0j6pwxe","1536","864","","","","","","","","","","","null","Wrong","Feedback","","null","","","","","","","","","","","","","","","","",""
"","call-function","308","331350","0.0-453.0-2.0","n0j6pwxe","","","","","","","","","","","","","","","","","","","","","","","","","","","","","","","","","",""
"","html-keyboard-response","309","332110","0.0-454.0","n0j6pwxe","1536","864","","","","","","","","","","","null","+","Fixation - short","","null","","","","","","","","","","","","","","","","",""
"","html-keyboard-response","310","334103","0.0-455.0","n0j6pwxe","","","","","","","","","","","","","1991","If ivr press RIGHT | If gso press LEFT","Inducer instructions",""," ","","6","","","","","","","","","","","","","","",""
"","html-keyboard-response","311","334862","0.0-456.0","n0j6pwxe","1536","864","","","","","","","","","","","null","+","Fixation - short","","null","","","","","","","","","","","","","","","","",""
"","html-keyboard-response","312","335961","0.0-457.0","n0j6pwxe","","","","","","","","","","","","","1099","gso","Diagnostic trial","","j","","6","0","11","false","false","true","both pre & post","LEFT","RIGHT","j","1","false","","","",""
"","html-keyboard-response","313","336727","0.0-460.0","n0j6pwxe","1536","864","","","","","","","","","","","null","+","Fixation - short","","null","","","","","","","","","","","","","","","","",""
"","html-keyboard-response","314","337187","0.0-461.0","n0j6pwxe","","","","","","","","","","","","","459","ivr","Diagnostic trial","","f","","6","1","11","false","false","false","both pre & post","RIGHT","LEFT","f","1","false","","","",""
"","html-keyboard-response","315","337946","0.0-464.0","n0j6pwxe","1536","864","","","","","","","","","","","null","+","Fixation - short","","null","","","","","","","","","","","","","","","","",""
"","html-keyboard-response","316","338516","0.0-465.0","n0j6pwxe","","","","","","","","","","","","","569","gso","Diagnostic trial","","j","","6","2","11","false","false","true","both pre & post","LEFT","RIGHT","j","1","false","","","",""
"","html-keyboard-response","317","339274","0.0-468.0","n0j6pwxe","1536","864","","","","","","","","","","","null","+","Fixation - short","","null","","","","","","","","","","","","","","","","",""
"","html-keyboard-response","318","340077","0.0-469.0","n0j6pwxe","","","","","","","","","","","","","802","ivr","Diagnostic trial","","j","","6","3","11","false","false","true","both pre & post","RIGHT","RIGHT","j","1","true","","","",""
"","html-keyboard-response","319","340841","0.0-472.0","n0j6pwxe","1536","864","","","","","","","","","","","null","+","Fixation - short","","null","","","","","","","","","","","","","","","","",""
"","html-keyboard-response","320","341400","0.0-473.0","n0j6pwxe","","","","","","","","","","","","","559","ivr","Diagnostic trial","","f","","6","4","11","false","false","false","both pre & post","RIGHT","LEFT","f","1","false","","","",""
"","html-keyboard-response","321","342156","0.0-476.0","n0j6pwxe","1536","864","","","","","","","","","","","null","+","Fixation - short","","null","","","","","","","","","","","","","","","","",""
"","html-keyboard-response","322","342714","0.0-477.0","n0j6pwxe","","","","","","","","","","","","","557","gso","Diagnostic trial","","j","","6","5","11","false","false","true","both pre & post","LEFT","RIGHT","j","1","false","","","",""
"","html-keyboard-response","323","343473","0.0-480.0","n0j6pwxe","1536","864","","","","","","","","","","","null","+","Fixation - short","","null","","","","","","","","","","","","","","","","",""
"","html-keyboard-response","324","344341","0.0-481.0","n0j6pwxe","","","","","","","","","","","","","867","ivr","Diagnostic trial","","f","","6","6","11","false","false","false","both pre & post","RIGHT","LEFT","f","1","false","","","",""
"","html-keyboard-response","325","345105","0.0-484.0","n0j6pwxe","1536","864","","","","","","","","","","","null","+","Fixation - short","","null","","","","","","","","","","","","","","","","",""
"","html-keyboard-response","326","346075","0.0-485.0","n0j6pwxe","","","","","","","","","","","","","969","gso","Diagnostic trial","","j","","6","7","11","false","false","false","both pre & post","LEFT","LEFT","f","0","true","","","",""
"","call-function","327","346075","0.0-487.0-0.0","n0j6pwxe","","","","","","","","","","","","","","","","","","","","","","","","","","","","","","","","","",""
"","html-keyboard-response","328","346383","0.0-487.0-1.0","n0j6pwxe","1536","864","","","","","","","","","","","null","Wrong","Feedback","","null","","","","","","","","","","","","","","","","",""
"","call-function","329","346384","0.0-487.0-2.0","n0j6pwxe","","","","","","","","","","","","","","","","","","","","","","","","","","","","","","","","","",""
"","html-keyboard-response","330","347141","0.0-488.0","n0j6pwxe","1536","864","","","","","","","","","","","null","+","Fixation - short","","null","","","","","","","","","","","","","","","","",""
"","html-keyboard-response","331","347696","0.0-489.0","n0j6pwxe","","","","","","","","","","","","","555","gso","Diagnostic trial","","j","","6","8","11","false","false","true","both pre & post","LEFT","RIGHT","j","1","false","","","",""
"","html-keyboard-response","332","348461","0.0-492.0","n0j6pwxe","1536","864","","","","","","","","","","","null","+","Fixation - short","","null","","","","","","","","","","","","","","","","",""
"","html-keyboard-response","333","349142","0.0-493.0","n0j6pwxe","","","","","","","","","","","","","680","gso","Diagnostic trial","","f","","6","9","11","false","false","false","both pre & post","LEFT","LEFT","f","1","true","","","",""
"","html-keyboard-response","334","349906","0.0-496.0","n0j6pwxe","1536","864","","","","","","","","","","","null","+","Fixation - short","","null","","","","","","","","","","","","","","","","",""
"","html-keyboard-response","335","350686","0.0-497.0","n0j6pwxe","","","","","","","","","","","","","779","ivr","Diagnostic trial","","f","","6","10","11","false","false","false","both pre & post","RIGHT","LEFT","f","1","false","","","",""
"","html-keyboard-response","336","351440","0.0-500.0","n0j6pwxe","1536","864","","","","","","","","","","","null","+","Fixation - short","","null","","","","","","","","","","","","","","","","",""
"","canvas-keyboard-response","337","352698","0.0-501.0","n0j6pwxe","","","","","","","","","","","","","null","Cue","Cue","","null","","6","10","","","false","","","","","","","","","","",""
"","html-keyboard-response","338","353459","0.0-502.0","n0j6pwxe","1536","864","","","","","","","","","","","null","+","Fixation - short","","null","","","","","","","","","","","","","","","","",""
"","html-keyboard-response","339","354026","0.0-503.0","n0j6pwxe","","","","","","","","","","","","","565","gso","Diagnostic trial","","f","","6","11","11","true","false","false","both pre & post","LEFT","LEFT","f","1","true","","","",""
"","html-keyboard-response","340","354788","0.0-506.0","n0j6pwxe","1536","864","","","","","","","","","","","null","+","Fixation - short","","null","","","","","","","","","","","","","","","","",""
"","html-keyboard-response","341","355553","0.0-507.0","n0j6pwxe","","","","","","","","","","","","","764","gso","Diagnostic trial","","j","","6","12","11","true","false","true","both pre & post","LEFT","RIGHT","j","1","false","","","",""
"","html-keyboard-response","342","356309","0.0-510.0","n0j6pwxe","1536","864","","","","","","","","","","","null","+","Fixation - short","","null","","","","","","","","","","","","","","","","",""
"","html-keyboard-response","343","356852","0.0-511.0","n0j6pwxe","","","","","","","","","","","","","542","ivr","Diagnostic trial","","j","","6","13","11","true","false","true","both pre & post","RIGHT","RIGHT","j","1","true","","","",""
"","html-keyboard-response","344","357608","0.0-514.0","n0j6pwxe","1536","864","","","","","","","","","","","null","+","Fixation - short","","null","","","","","","","","","","","","","","","","",""
"","html-keyboard-response","345","358105","0.0-515.0","n0j6pwxe","","","","","","","","","","","","","496","gso","Diagnostic trial","","f","","6","14","11","true","false","false","both pre & post","LEFT","LEFT","f","1","true","","","",""
"","html-keyboard-response","346","358859","0.0-518.0","n0j6pwxe","1536","864","","","","","","","","","","","null","+","Fixation - short","","null","","","","","","","","","","","","","","","","",""
"","html-keyboard-response","347","360476","0.0-519.0","n0j6pwxe","","","","","","","","","","","","","1615","ivr","Inducer trial","","j","","6","","","","true","","","","","j","1","","false","RIGHT","",""
"","html-keyboard-response","348","361241","0.0-522.0","n0j6pwxe","1536","864","","","","","","","","","","","null","+","Fixation - short","","null","","","","","","","","","","","","","","","","",""
"","html-keyboard-response","349","362687","0.0-523.0","n0j6pwxe","","","","","","","","","","","","","1446","If adj press RIGHT | If gdn press LEFT","Inducer instructions",""," ","","7","","","","","","","","","","","","","","",""
"","html-keyboard-response","350","363441","0.0-524.0","n0j6pwxe","1536","864","","","","","","","","","","","null","+","Fixation - short","","null","","","","","","","","","","","","","","","","",""
"","html-keyboard-response","351","364077","0.0-525.0","n0j6pwxe","","","","","","","","","","","","","635","adj","Diagnostic trial","","j","","7","0","4","false","false","true","both pre & post","RIGHT","RIGHT","j","1","true","","","",""
"","html-keyboard-response","352","364844","0.0-528.0","n0j6pwxe","1536","864","","","","","","","","","","","null","+","Fixation - short","","null","","","","","","","","","","","","","","","","",""
"","html-keyboard-response","353","365384","0.0-529.0","n0j6pwxe","","","","","","","","","","","","","538","gdn","Diagnostic trial","","f","","7","1","4","false","false","false","both pre & post","LEFT","LEFT","f","1","true","","","",""
"","html-keyboard-response","354","366141","0.0-532.0","n0j6pwxe","1536","864","","","","","","","","","","","null","+","Fixation - short","","null","","","","","","","","","","","","","","","","",""
"","html-keyboard-response","355","366797","0.0-533.0","n0j6pwxe","","","","","","","","","","","","","654","adj","Diagnostic trial","","f","","7","2","4","false","false","false","both pre & post","RIGHT","LEFT","f","1","false","","","",""
"","html-keyboard-response","356","367561","0.0-536.0","n0j6pwxe","1536","864","","","","","","","","","","","null","+","Fixation - short","","null","","","","","","","","","","","","","","","","",""
"","html-keyboard-response","357","367967","0.0-537.0","n0j6pwxe","","","","","","","","","","","","","405","gdn","Diagnostic trial","","f","","7","3","4","false","false","false","both pre & post","LEFT","LEFT","f","1","true","","","",""
"","html-keyboard-response","358","368725","0.0-540.0","n0j6pwxe","1536","864","","","","","","","","","","","null","+","Fixation - short","","null","","","","","","","","","","","","","","","","",""
"","canvas-keyboard-response","359","369982","0.0-541.0","n0j6pwxe","","","","","","","","","","","","","null","Cue","Cue","","null","","7","3","","","false","","","","","","","","","","",""
"","html-keyboard-response","360","370737","0.0-542.0","n0j6pwxe","1536","864","","","","","","","","","","","null","+","Fixation - short","","null","","","","","","","","","","","","","","","","",""
"","html-keyboard-response","361","371236","0.0-543.0","n0j6pwxe","","","","","","","","","","","","","498","adj","Diagnostic trial","","j","","7","4","4","true","false","true","both pre & post","RIGHT","RIGHT","j","1","true","","","",""
"","html-keyboard-response","362","371988","0.0-546.0","n0j6pwxe","1536","864","","","","","","","","","","","null","+","Fixation - short","","null","","","","","","","","","","","","","","","","",""
"","html-keyboard-response","363","372745","0.0-547.0","n0j6pwxe","","","","","","","","","","","","","756","adj","Diagnostic trial","","f","","7","5","4","true","false","false","both pre & post","RIGHT","LEFT","f","1","false","","","",""
"","html-keyboard-response","364","373508","0.0-550.0","n0j6pwxe","1536","864","","","","","","","","","","","null","+","Fixation - short","","null","","","","","","","","","","","","","","","","",""
"","html-keyboard-response","365","374170","0.0-551.0","n0j6pwxe","","","","","","","","","","","","","661","gdn","Inducer trial","","f","","7","","","","true","","","","","f","1","","false","LEFT","",""
"","html-keyboard-response","366","374924","0.0-554.0","n0j6pwxe","1536","864","","","","","","","","","","","null","+","Fixation - short","","null","","","","","","","","","","","","","","","","",""
"","html-keyboard-response","367","376307","0.0-555.0","n0j6pwxe","","","","","","","","","","","","","1382","If oez press RIGHT | If byy press LEFT","Inducer instructions",""," ","","8","","","","","","","","","","","","","","",""
"","html-keyboard-response","368","377073","0.0-556.0","n0j6pwxe","1536","864","","","","","","","","","","","null","+","Fixation - short","","null","","","","","","","","","","","","","","","","",""
"","html-keyboard-response","369","377805","0.0-557.0","n0j6pwxe","","","","","","","","","","","","","731","byy","Diagnostic trial","","f","","8","0","4","false","false","true","both pre & post","LEFT","RIGHT","j","0","false","","","",""
"","call-function","370","377805","0.0-559.0-0.0","n0j6pwxe","","","","","","","","","","","","","","","","","","","","","","","","","","","","","","","","","",""
"","html-keyboard-response","371","378116","0.0-559.0-1.0","n0j6pwxe","1536","864","","","","","","","","","","","null","Wrong","Feedback","","null","","","","","","","","","","","","","","","","",""
"","call-function","372","378116","0.0-559.0-2.0","n0j6pwxe","","","","","","","","","","","","","","","","","","","","","","","","","","","","","","","","","",""
"","html-keyboard-response","373","378869","0.0-560.0","n0j6pwxe","1536","864","","","","","","","","","","","null","+","Fixation - short","","null","","","","","","","","","","","","","","","","",""
"","html-keyboard-response","374","379449","0.0-561.0","n0j6pwxe","","","","","","","","","","","","","579","oez","Diagnostic trial","","j","","8","1","4","false","false","true","both pre & post","RIGHT","RIGHT","j","1","true","","","",""
"","html-keyboard-response","375","380207","0.0-564.0","n0j6pwxe","1536","864","","","","","","","","","","","null","+","Fixation - short","","null","","","","","","","","","","","","","","","","",""
"","html-keyboard-response","376","380830","0.0-565.0","n0j6pwxe","","","","","","","","","","","","","622","oez","Diagnostic trial","","j","","8","2","4","false","false","true","both pre & post","RIGHT","RIGHT","j","1","true","","","",""
"","html-keyboard-response","377","381585","0.0-568.0","n0j6pwxe","1536","864","","","","","","","","","","","null","+","Fixation - short","","null","","","","","","","","","","","","","","","","",""
"","html-keyboard-response","378","382226","0.0-569.0","n0j6pwxe","","","","","","","","","","","","","640","byy","Diagnostic trial","","f","","8","3","4","false","false","false","both pre & post","LEFT","LEFT","f","1","true","","","",""
"","html-keyboard-response","379","382991","0.0-572.0","n0j6pwxe","1536","864","","","","","","","","","","","null","+","Fixation - short","","null","","","","","","","","","","","","","","","","",""
"","canvas-keyboard-response","380","384245","0.0-573.0","n0j6pwxe","","","","","","","","","","","","","null","Cue","Cue","","null","","8","3","","","false","","","","","","","","","","",""
"","html-keyboard-response","381","385008","0.0-574.0","n0j6pwxe","1536","864","","","","","","","","","","","null","+","Fixation - short","","null","","","","","","","","","","","","","","","","",""
"","html-keyboard-response","382","385714","0.0-575.0","n0j6pwxe","","","","","","","","","","","","","705","byy","Diagnostic trial","","f","","8","4","4","true","false","false","both pre & post","LEFT","LEFT","f","1","true","","","",""
"","html-keyboard-response","383","386480","0.0-578.0","n0j6pwxe","1536","864","","","","","","","","","","","null","+","Fixation - short","","null","","","","","","","","","","","","","","","","",""
"","html-keyboard-response","384","387012","0.0-579.0","n0j6pwxe","","","","","","","","","","","","","531","oez","Diagnostic trial","","j","","8","5","4","true","false","true","both pre & post","RIGHT","RIGHT","j","1","true","","","",""
"","html-keyboard-response","385","387772","0.0-582.0","n0j6pwxe","1536","864","","","","","","","","","","","null","+","Fixation - short","","null","","","","","","","","","","","","","","","","",""
"","html-keyboard-response","386","388368","0.0-583.0","n0j6pwxe","","","","","","","","","","","","","594","byy","Diagnostic trial","","f","","8","6","4","true","false","false","both pre & post","LEFT","LEFT","f","1","true","","","",""
"","html-keyboard-response","387","389124","0.0-586.0","n0j6pwxe","1536","864","","","","","","","","","","","null","+","Fixation - short","","null","","","","","","","","","","","","","","","","",""
"","html-keyboard-response","388","389659","0.0-587.0","n0j6pwxe","","","","","","","","","","","","","534","oez","Diagnostic trial","","j","","8","7","4","true","false","true","both pre & post","RIGHT","RIGHT","j","1","true","","","",""
"","html-keyboard-response","389","390411","0.0-590.0","n0j6pwxe","1536","864","","","","","","","","","","","null","+","Fixation - short","","null","","","","","","","","","","","","","","","","",""
"","html-keyboard-response","390","391210","0.0-591.0","n0j6pwxe","","","","","","","","","","","","","798","oez","Inducer trial","","f","","8","","","","true","","","","","j","0","","false","RIGHT","",""
"","call-function","391","391210","0.0-593.0-0.0","n0j6pwxe","","","","","","","","","","","","","","","","","","","","","","","","","","","","","","","","","",""
"","html-keyboard-response","392","391517","0.0-593.0-1.0","n0j6pwxe","1536","864","","","","","","","","","","","null","Wrong","Feedback","","null","","","","","","","","","","","","","","","","",""
"","call-function","393","391518","0.0-593.0-2.0","n0j6pwxe","","","","","","","","","","","","","","","","","","","","","","","","","","","","","","","","","",""
"","html-keyboard-response","394","392279","0.0-594.0","n0j6pwxe","1536","864","","","","","","","","","","","null","+","Fixation - short","","null","","","","","","","","","","","","","","","","",""
"","html-keyboard-response","395","393281","0.0-595.0","n0j6pwxe","","","","","","","","","","","","","1001","If ume press RIGHT | If vsc press LEFT","Inducer instructions",""," ","","9","","","","","","","","","","","","","","",""
"","html-keyboard-response","396","394040","0.0-596.0","n0j6pwxe","1536","864","","","","","","","","","","","null","+","Fixation - short","","null","","","","","","","","","","","","","","","","",""
"","html-keyboard-response","397","395186","0.0-597.0","n0j6pwxe","","","","","","","","","","","","","1144","ume","Diagnostic trial","","f","","9","0","4","false","false","false","both pre & post","RIGHT","LEFT","f","1","false","","","",""
"","html-keyboard-response","398","395944","0.0-600.0","n0j6pwxe","1536","864","","","","","","","","","","","null","+","Fixation - short","","null","","","","","","","","","","","","","","","","",""
"","html-keyboard-response","399","396376","0.0-601.0","n0j6pwxe","","","","","","","","","","","","","431","vsc","Diagnostic trial","","j","","9","1","4","false","false","true","both pre & post","LEFT","RIGHT","j","1","false","","","",""
"","html-keyboard-response","400","397140","0.0-604.0","n0j6pwxe","1536","864","","","","","","","","","","","null","+","Fixation - short","","null","","","","","","","","","","","","","","","","",""
"","html-keyboard-response","401","397772","0.0-605.0","n0j6pwxe","","","","","","","","","","","","","632","ume","Diagnostic trial","","j","","9","2","4","false","false","true","both pre & post","RIGHT","RIGHT","j","1","true","","","",""
"","html-keyboard-response","402","398538","0.0-608.0","n0j6pwxe","1536","864","","","","","","","","","","","null","+","Fixation - short","","null","","","","","","","","","","","","","","","","",""
"","html-keyboard-response","403","399251","0.0-609.0","n0j6pwxe","","","","","","","","","","","","","711","ume","Diagnostic trial","","j","","9","3","4","false","false","true","both pre & post","RIGHT","RIGHT","j","1","true","","","",""
"","html-keyboard-response","404","400005","0.0-612.0","n0j6pwxe","1536","864","","","","","","","","","","","null","+","Fixation - short","","null","","","","","","","","","","","","","","","","",""
"","canvas-keyboard-response","405","401262","0.0-613.0","n0j6pwxe","","","","","","","","","","","","","null","Cue","Cue","","null","","9","3","","","false","","","","","","","","","","",""
"","html-keyboard-response","406","402023","0.0-614.0","n0j6pwxe","1536","864","","","","","","","","","","","null","+","Fixation - short","","null","","","","","","","","","","","","","","","","",""
"","html-keyboard-response","407","402745","0.0-615.0","n0j6pwxe","","","","","","","","","","","","","721","ume","Diagnostic trial","","f","","9","4","4","true","false","false","both pre & post","RIGHT","LEFT","f","1","false","","","",""
"","html-keyboard-response","408","403508","0.0-618.0","n0j6pwxe","1536","864","","","","","","","","","","","null","+","Fixation - short","","null","","","","","","","","","","","","","","","","",""
"","html-keyboard-response","409","404202","0.0-619.0","n0j6pwxe","","","","","","","","","","","","","693","ume","Diagnostic trial","","j","","9","5","4","true","false","true","both pre & post","RIGHT","RIGHT","j","1","true","","","",""
"","html-keyboard-response","410","404960","0.0-622.0","n0j6pwxe","1536","864","","","","","","","","","","","null","+","Fixation - short","","null","","","","","","","","","","","","","","","","",""
"","html-keyboard-response","411","406011","0.0-623.0","n0j6pwxe","","","","","","","","","","","","","1050","ume","Inducer trial","","f","","9","","","","true","","","","","j","0","","false","RIGHT","",""
"","call-function","412","406011","0.0-625.0-0.0","n0j6pwxe","","","","","","","","","","","","","","","","","","","","","","","","","","","","","","","","","",""
"","html-keyboard-response","413","406320","0.0-625.0-1.0","n0j6pwxe","1536","864","","","","","","","","","","","null","Wrong","Feedback","","null","","","","","","","","","","","","","","","","",""
"","call-function","414","406320","0.0-625.0-2.0","n0j6pwxe","","","","","","","","","","","","","","","","","","","","","","","","","","","","","","","","","",""
"","html-keyboard-response","415","407074","0.0-626.0","n0j6pwxe","1536","864","","","","","","","","","","","null","+","Fixation - short","","null","","","","","","","","","","","","","","","","",""
"","html-keyboard-response","416","408122","0.0-627.0","n0j6pwxe","","","","","","","","","","","","","1048","If crf press RIGHT | If jey press LEFT","Inducer instructions",""," ","","10","","","","","","","","","","","","","","",""
"","html-keyboard-response","417","408875","0.0-628.0","n0j6pwxe","1536","864","","","","","","","","","","","null","+","Fixation - short","","null","","","","","","","","","","","","","","","","",""
"","html-keyboard-response","418","409837","0.0-629.0","n0j6pwxe","","","","","","","","","","","","","962","crf","Diagnostic trial","","j","","10","0","4","false","false","true","both pre & post","RIGHT","RIGHT","j","1","true","","","",""
"","html-keyboard-response","419","410590","0.0-632.0","n0j6pwxe","1536","864","","","","","","","","","","","null","+","Fixation - short","","null","","","","","","","","","","","","","","","","",""
"","html-keyboard-response","420","411498","0.0-633.0","n0j6pwxe","","","","","","","","","","","","","907","jey","Diagnostic trial","","j","","10","1","4","false","false","true","both pre & post","LEFT","RIGHT","j","1","false","","","",""
"","html-keyboard-response","421","412257","0.0-636.0","n0j6pwxe","1536","864","","","","","","","","","","","null","+","Fixation - short","","null","","","","","","","","","","","","","","","","",""
"","html-keyboard-response","422","412918","0.0-637.0","n0j6pwxe","","","","","","","","","","","","","660","jey","Diagnostic trial","","f","","10","2","4","false","false","false","both pre & post","LEFT","LEFT","f","1","true","","","",""
"","html-keyboard-response","423","413674","0.0-640.0","n0j6pwxe","1536","864","","","","","","","","","","","null","+","Fixation - short","","null","","","","","","","","","","","","","","","","",""
"","html-keyboard-response","424","414520","0.0-641.0","n0j6pwxe","","","","","","","","","","","","","846","crf","Diagnostic trial","","f","","10","3","4","false","false","false","both pre & post","RIGHT","LEFT","f","1","false","","","",""
"","html-keyboard-response","425","415275","0.0-644.0","n0j6pwxe","1536","864","","","","","","","","","","","null","+","Fixation - short","","null","","","","","","","","","","","","","","","","",""
"","canvas-keyboard-response","426","416531","0.0-645.0","n0j6pwxe","","","","","","","","","","","","","null","Cue","Cue","","null","","10","3","","","false","","","","","","","","","","",""
"","html-keyboard-response","427","417290","0.0-646.0","n0j6pwxe","1536","864","","","","","","","","","","","null","+","Fixation - short","","null","","","","","","","","","","","","","","","","",""
"","html-keyboard-response","428","417948","0.0-647.0","n0j6pwxe","","","","","","","","","","","","","657","crf","Diagnostic trial","","j","","10","4","4","true","false","true","both pre & post","RIGHT","RIGHT","j","1","true","","","",""
"","html-keyboard-response","429","418704","0.0-650.0","n0j6pwxe","1536","864","","","","","","","","","","","null","+","Fixation - short","","null","","","","","","","","","","","","","","","","",""
"","html-keyboard-response","430","420266","0.0-651.0","n0j6pwxe","","","","","","","","","","","","","1562","jey","Inducer trial","","f","","10","","","","true","","","","","f","1","","false","LEFT","",""
"","html-keyboard-response","431","421027","0.0-654.0","n0j6pwxe","1536","864","","","","","","","","","","","null","+","Fixation - short","","null","","","","","","","","","","","","","","","","",""
"","html-keyboard-response","432","422359","0.0-655.0","n0j6pwxe","","","","","","","","","","","","","1331","If dgv press RIGHT | If mik press LEFT","Inducer instructions",""," ","","11","","","","","","","","","","","","","","",""
"","html-keyboard-response","433","423124","0.0-656.0","n0j6pwxe","1536","864","","","","","","","","","","","null","+","Fixation - short","","null","","","","","","","","","","","","","","","","",""
"","html-keyboard-response","434","423902","0.0-657.0","n0j6pwxe","","","","","","","","","","","","","777","mik","Diagnostic trial","","j","","11","0","4","false","false","true","both pre & post","LEFT","RIGHT","j","1","false","","","",""
"","html-keyboard-response","435","424656","0.0-660.0","n0j6pwxe","1536","864","","","","","","","","","","","null","+","Fixation - short","","null","","","","","","","","","","","","","","","","",""
"","html-keyboard-response","436","425245","0.0-661.0","n0j6pwxe","","","","","","","","","","","","","587","mik","Diagnostic trial","","f","","11","1","4","false","false","false","both pre & post","LEFT","LEFT","f","1","true","","","",""
"","html-keyboard-response","437","426009","0.0-664.0","n0j6pwxe","1536","864","","","","","","","","","","","null","+","Fixation - short","","null","","","","","","","","","","","","","","","","",""
"","html-keyboard-response","438","426576","0.0-665.0","n0j6pwxe","","","","","","","","","","","","","566","dgv","Diagnostic trial","","f","","11","2","4","false","false","false","both pre & post","RIGHT","LEFT","f","1","false","","","",""
"","html-keyboard-response","439","427329","0.0-668.0","n0j6pwxe","1536","864","","","","","","","","","","","null","+","Fixation - short","","null","","","","","","","","","","","","","","","","",""
"","html-keyboard-response","440","427771","0.0-669.0","n0j6pwxe","","","","","","","","","","","","","442","mik","Diagnostic trial","","f","","11","3","4","false","false","false","both pre & post","LEFT","LEFT","f","1","true","","","",""
"","html-keyboard-response","441","428526","0.0-672.0","n0j6pwxe","1536","864","","","","","","","","","","","null","+","Fixation - short","","null","","","","","","","","","","","","","","","","",""
"","canvas-keyboard-response","442","429778","0.0-673.0","n0j6pwxe","","","","","","","","","","","","","null","Cue","Cue","","null","","11","3","","","false","","","","","","","","","","",""
"","html-keyboard-response","443","430537","0.0-674.0","n0j6pwxe","1536","864","","","","","","","","","","","null","+","Fixation - short","","null","","","","","","","","","","","","","","","","",""
"","html-keyboard-response","444","431160","0.0-675.0","n0j6pwxe","","","","","","","","","","","","","621","mik","Diagnostic trial","","f","","11","4","4","true","false","false","both pre & post","LEFT","LEFT","f","1","true","","","",""
"","html-keyboard-response","445","431922","0.0-678.0","n0j6pwxe","1536","864","","","","","","","","","","","null","+","Fixation - short","","null","","","","","","","","","","","","","","","","",""
"","html-keyboard-response","446","432541","0.0-679.0","n0j6pwxe","","","","","","","","","","","","","618","mik","Diagnostic trial","","j","","11","5","4","true","false","true","both pre & post","LEFT","RIGHT","j","1","false","","","",""
"","html-keyboard-response","447","433293","0.0-682.0","n0j6pwxe","1536","864","","","","","","","","","","","null","+","Fixation - short","","null","","","","","","","","","","","","","","","","",""
"","html-keyboard-response","448","434081","0.0-683.0","n0j6pwxe","","","","","","","","","","","","","787","mik","Diagnostic trial","","f","","11","6","4","true","false","false","both pre & post","LEFT","LEFT","f","1","true","","","",""
"","html-keyboard-response","449","434843","0.0-686.0","n0j6pwxe","1536","864","","","","","","","","","","","null","+","Fixation - short","","null","","","","","","","","","","","","","","","","",""
"","html-keyboard-response","450","435784","0.0-687.0","n0j6pwxe","","","","","","","","","","","","","940","mik","Inducer trial","","f","","11","","","","true","","","","","f","1","","false","LEFT","",""
"","html-keyboard-response","451","436539","0.0-690.0","n0j6pwxe","1536","864","","","","","","","","","","","null","+","Fixation - short","","null","","","","","","","","","","","","","","","","",""
"","html-keyboard-response","452","437880","0.0-691.0","n0j6pwxe","","","","","","","","","","","","","1340","If ebe press RIGHT | If mmo press LEFT","Inducer instructions",""," ","","12","","","","","","","","","","","","","","",""
"","html-keyboard-response","453","438639","0.0-692.0","n0j6pwxe","1536","864","","","","","","","","","","","null","+","Fixation - short","","null","","","","","","","","","","","","","","","","",""
"","html-keyboard-response","454","439274","0.0-693.0","n0j6pwxe","","","","","","","","","","","","","634","ebe","Diagnostic trial","","j","","12","0","8","false","false","true","both pre & post","RIGHT","RIGHT","j","1","true","","","",""
"","html-keyboard-response","455","440025","0.0-696.0","n0j6pwxe","1536","864","","","","","","","","","","","null","+","Fixation - short","","null","","","","","","","","","","","","","","","","",""
"","html-keyboard-response","456","440823","0.0-697.0","n0j6pwxe","","","","","","","","","","","","","796","ebe","Diagnostic trial","","j","","12","1","8","false","false","true","both pre & post","RIGHT","RIGHT","j","1","true","","","",""
"","html-keyboard-response","457","441585","0.0-700.0","n0j6pwxe","1536","864","","","","","","","","","","","null","+","Fixation - short","","null","","","","","","","","","","","","","","","","",""
"","html-keyboard-response","458","442081","0.0-701.0","n0j6pwxe","","","","","","","","","","","","","494","ebe","Diagnostic trial","","j","","12","2","8","false","false","true","both pre & post","RIGHT","RIGHT","j","1","true","","","",""
"","html-keyboard-response","459","442842","0.0-704.0","n0j6pwxe","1536","864","","","","","","","","","","","null","+","Fixation - short","","null","","","","","","","","","","","","","","","","",""
"","html-keyboard-response","460","443276","0.0-705.0","n0j6pwxe","","","","","","","","","","","","","433","ebe","Diagnostic trial","","j","","12","3","8","false","false","true","both pre & post","RIGHT","RIGHT","j","1","true","","","",""
"","html-keyboard-response","461","444040","0.0-708.0","n0j6pwxe","1536","864","","","","","","","","","","","null","+","Fixation - short","","null","","","","","","","","","","","","","","","","",""
"","html-keyboard-response","462","444587","0.0-709.0","n0j6pwxe","","","","","","","","","","","","","547","mmo","Diagnostic trial","","f","","12","4","8","false","false","false","both pre & post","LEFT","LEFT","f","1","true","","","",""
"","html-keyboard-response","463","445339","0.0-712.0","n0j6pwxe","1536","864","","","","","","","","","","","null","+","Fixation - short","","null","","","","","","","","","","","","","","","","",""
"","html-keyboard-response","464","446080","0.0-713.0","n0j6pwxe","","","","","","","","","","","","","739","ebe","Diagnostic trial","","j","","12","5","8","false","false","false","both pre & post","RIGHT","LEFT","f","0","false","","","",""
"","call-function","465","446081","0.0-715.0-0.0","n0j6pwxe","","","","","","","","","","","","","","","","","","","","","","","","","","","","","","","","","",""
"","html-keyboard-response","466","446383","0.0-715.0-1.0","n0j6pwxe","1536","864","","","","","","","","","","","null","Wrong","Feedback","","null","","","","","","","","","","","","","","","","",""
"","call-function","467","446383","0.0-715.0-2.0","n0j6pwxe","","","","","","","","","","","","","","","","","","","","","","","","","","","","","","","","","",""
