"value","trial_type","trial_index","time_elapsed","internal_node_id","id","width","height","webaudio","browser","browser_version","mobile","os","fullscreen","vsync_rate","webcam","microphone","view_history","rt","stimulus","trial_info","success","response","exp_parameters","inducer_run","diagnostic_run","cue_num","post_cue","inducer_trial","italic","forced_equal_run","correct_inducer_response_side","correct_diag_response_side","correct_response_key","correct_response","congruent","force_equal","correct_indu_response_side","accuracy","interactive"
"","call-function","0","2","0.0-0.0","bsphs7xb","","","","","","","","","","","","","","","","","","","","","","","","","","","","","","","","","",""
"","browser-check","1","1002","0.0-1.0","bsphs7xb","1920","963","true","chrome","122.0.0","false","Windows 10","true","60.31","false","true","","","","","","","","","","","","","","","","","","","","","","",""
"","instructions","2","50659","0.0-2.0","bsphs7xb","","","","","","","","","","","","[{""page_index"":0,""viewing_time"":24307},{""page_index"":1,""viewing_time"":14577},{""page_index"":2,""viewing_time"":10771}]","49656","The experiment and consent","The experiment and consent","","","","","","","","","","","","","","","","","","",""
"","fullscreen","3","58729","0.0-3.0","bsphs7xb","","","","","","","","","","","","","7062","","Full screen","true","","","","","","","","","","","","","","","","","",""
"","instructions","4","97782","0.0-4.0","bsphs7xb","","","","","","","","","","","","[{""page_index"":0,""viewing_time"":22924},{""page_index"":1,""viewing_time"":16128}]","39052","Instructions","Basic overview explanation","","","","","","","","","","","","","","","","","","",""
"","html-keyboard-response","5","109048","0.0-5.0","bsphs7xb","","","","","","","","","","","","","9757","If italic press RIGHT | If upright press LEFT","Diagnostic instructions",""," ","{""debug"":false,""skip_instructions"":false,""skip_practice"":false,""save_local_data"":false,""studu_name"":""exp2"",""default_background_colour"":""#cccccc"",""wrong_response_colour"":""#d22d2d"",""instruction_delay"":20000,""trial_duration"":2000,""short_fixation"":750,""long_fixation"":1500,""wrong_response_delay"":300,""too_slow_delay"":300,""instruction_font_size"":""24px"",""general_font_size"":""42px"",""fixation_size"":""48px"",""allowed_responses"":[""f"",""j""],""cue_min_length"":0,""cue_max_length"":4,""tot_post_cue_len"":72,""cue_colour"":""red"",""cue_shape"":""Circle"",""cue_size"":70,""cue_duration"":1250,""avg_number_of_cues"":3,""inducer_colour"":""yellow"",""number_of_inducers"":24,""pre_cue_italic_forced_equal"":true,""post_cue_italic_forced_equal"":true,""prac_diagnostic_rounds"":16,""prac_inducer_rounds"":6,""prac_cue_rounds"":16,""prac_post_cue_num"":3}","","","","","","","","","","","","","","","",""
"","html-keyboard-response","6","109802","0.0-6.0","bsphs7xb","1920","1080","","","","","","","","","","","null","+","Fixation - short","","null","","","","","","","","","","","","","","","","",""
"","html-keyboard-response","7","111271","0.0-7.0","bsphs7xb","","","","","","","","","","","","","1468","mts","Diagnostic practice","","f","","Diagnostic practice","0","-84","true","false","true","prac equal","LEFT","RIGHT","j","0","false","","","",""
"","call-function","8","111271","0.0-9.0-0.0","bsphs7xb","","","","","","","","","","","","","","","","","","","","","","","","","","","","","","","","","",""
"","html-keyboard-response","9","111577","0.0-9.0-1.0","bsphs7xb","1920","1080","","","","","","","","","","","null","Wrong","Feedback","","null","","","","","","","","","","","","","","","","",""
"","call-function","10","111577","0.0-9.0-2.0","bsphs7xb","","","","","","","","","","","","","","","","","","","","","","","","","","","","","","","","","",""
"","html-keyboard-response","11","112341","0.0-10.0","bsphs7xb","1920","1080","","","","","","","","","","","null","+","Fixation - short","","null","","","","","","","","","","","","","","","","",""
"","html-keyboard-response","12","113198","0.0-11.0","bsphs7xb","","","","","","","","","","","","","856","ivr","Diagnostic practice","","f","","Diagnostic practice","1","-84","true","false","false","prac equal","RIGHT","LEFT","f","1","false","","","",""
"","html-keyboard-response","13","113959","0.0-14.0","bsphs7xb","1920","1080","","","","","","","","","","","null","+","Fixation - short","","null","","","","","","","","","","","","","","","","",""
"","html-keyboard-response","14","114495","0.0-15.0","bsphs7xb","","","","","","","","","","","","","536","mts","Diagnostic practice","","j","","Diagnostic practice","2","-84","true","false","true","prac equal","LEFT","RIGHT","j","1","false","","","",""
"","html-keyboard-response","15","115261","0.0-18.0","bsphs7xb","1920","1080","","","","","","","","","","","null","+","Fixation - short","","null","","","","","","","","","","","","","","","","",""
"","html-keyboard-response","16","115857","0.0-19.0","bsphs7xb","","","","","","","","","","","","","595","ivr","Diagnostic practice","","j","","Diagnostic practice","3","-84","true","false","true","prac equal","RIGHT","RIGHT","j","1","true","","","",""
"","html-keyboard-response","17","116614","0.0-22.0","bsphs7xb","1920","1080","","","","","","","","","","","null","+","Fixation - short","","null","","","","","","","","","","","","","","","","",""
"","html-keyboard-response","18","116984","0.0-23.0","bsphs7xb","","","","","","","","","","","","","369","ivr","Diagnostic practice","","j","","Diagnostic practice","4","-84","true","false","false","prac equal","RIGHT","LEFT","f","0","false","","","",""
"","call-function","19","116984","0.0-25.0-0.0","bsphs7xb","","","","","","","","","","","","","","","","","","","","","","","","","","","","","","","","","",""
"","html-keyboard-response","20","117290","0.0-25.0-1.0","bsphs7xb","1920","1080","","","","","","","","","","","null","Wrong","Feedback","","null","","","","","","","","","","","","","","","","",""
"","call-function","21","117290","0.0-25.0-2.0","bsphs7xb","","","","","","","","","","","","","","","","","","","","","","","","","","","","","","","","","",""
"","html-keyboard-response","22","118055","0.0-26.0","bsphs7xb","1920","1080","","","","","","","","","","","null","+","Fixation - short","","null","","","","","","","","","","","","","","","","",""
"","html-keyboard-response","23","118741","0.0-27.0","bsphs7xb","","","","","","","","","","","","","686","mts","Diagnostic practice","","j","","Diagnostic practice","5","-84","true","false","false","prac equal","LEFT","LEFT","f","0","true","","","",""
"","call-function","24","118741","0.0-29.0-0.0","bsphs7xb","","","","","","","","","","","","","","","","","","","","","","","","","","","","","","","","","",""
"","html-keyboard-response","25","119056","0.0-29.0-1.0","bsphs7xb","1920","1080","","","","","","","","","","","null","Wrong","Feedback","","null","","","","","","","","","","","","","","","","",""
"","call-function","26","119056","0.0-29.0-2.0","bsphs7xb","","","","","","","","","","","","","","","","","","","","","","","","","","","","","","","","","",""
"","html-keyboard-response","27","119820","0.0-30.0","bsphs7xb","1920","1080","","","","","","","","","","","null","+","Fixation - short","","null","","","","","","","","","","","","","","","","",""
"","html-keyboard-response","28","120393","0.0-31.0","bsphs7xb","","","","","","","","","","","","","573","ivr","Diagnostic practice","","j","","Diagnostic practice","6","-84","true","false","true","prac equal","RIGHT","RIGHT","j","1","true","","","",""
"","html-keyboard-response","29","121148","0.0-34.0","bsphs7xb","1920","1080","","","","","","","","","","","null","+","Fixation - short","","null","","","","","","","","","","","","","","","","",""
"","html-keyboard-response","30","121650","0.0-35.0","bsphs7xb","","","","","","","","","","","","","501","mts","Diagnostic practice","","f","","Diagnostic practice","7","-84","true","false","false","prac equal","LEFT","LEFT","f","1","true","","","",""
"","html-keyboard-response","31","122411","0.0-38.0","bsphs7xb","1920","1080","","","","","","","","","","","null","+","Fixation - short","","null","","","","","","","","","","","","","","","","",""
"","html-keyboard-response","32","122821","0.0-39.0","bsphs7xb","","","","","","","","","","","","","410","mts","Diagnostic practice","","j","","Diagnostic practice","8","-84","true","false","true","prac equal","LEFT","RIGHT","j","1","false","","","",""
"","html-keyboard-response","33","123585","0.0-42.0","bsphs7xb","1920","1080","","","","","","","","","","","null","+","Fixation - short","","null","","","","","","","","","","","","","","","","",""
"","html-keyboard-response","34","124093","0.0-43.0","bsphs7xb","","","","","","","","","","","","","508","mts","Diagnostic practice","","f","","Diagnostic practice","9","-84","true","false","false","prac equal","LEFT","LEFT","f","1","true","","","",""
"","html-keyboard-response","35","124847","0.0-46.0","bsphs7xb","1920","1080","","","","","","","","","","","null","+","Fixation - short","","null","","","","","","","","","","","","","","","","",""
"","html-keyboard-response","36","125250","0.0-47.0","bsphs7xb","","","","","","","","","","","","","402","ivr","Diagnostic practice","","f","","Diagnostic practice","10","-84","true","false","false","prac equal","RIGHT","LEFT","f","1","false","","","",""
"","html-keyboard-response","37","126016","0.0-50.0","bsphs7xb","1920","1080","","","","","","","","","","","null","+","Fixation - short","","null","","","","","","","","","","","","","","","","",""
"","html-keyboard-response","38","126416","0.0-51.0","bsphs7xb","","","","","","","","","","","","","400","ivr","Diagnostic practice","","f","","Diagnostic practice","11","-84","true","false","true","prac equal","RIGHT","RIGHT","j","0","true","","","",""
"","call-function","39","126417","0.0-53.0-0.0","bsphs7xb","","","","","","","","","","","","","","","","","","","","","","","","","","","","","","","","","",""
"","html-keyboard-response","40","126719","0.0-53.0-1.0","bsphs7xb","1920","1080","","","","","","","","","","","null","Wrong","Feedback","","null","","","","","","","","","","","","","","","","",""
"","call-function","41","126719","0.0-53.0-2.0","bsphs7xb","","","","","","","","","","","","","","","","","","","","","","","","","","","","","","","","","",""
"","html-keyboard-response","42","127486","0.0-54.0","bsphs7xb","1920","1080","","","","","","","","","","","null","+","Fixation - short","","null","","","","","","","","","","","","","","","","",""
"","html-keyboard-response","43","128204","0.0-55.0","bsphs7xb","","","","","","","","","","","","","718","mts","Diagnostic practice","","j","","Diagnostic practice","12","-84","true","false","true","prac equal","LEFT","RIGHT","j","1","false","","","",""
"","html-keyboard-response","44","128967","0.0-58.0","bsphs7xb","1920","1080","","","","","","","","","","","null","+","Fixation - short","","null","","","","","","","","","","","","","","","","",""
"","html-keyboard-response","45","129641","0.0-59.0","bsphs7xb","","","","","","","","","","","","","674","ivr","Diagnostic practice","","j","","Diagnostic practice","13","-84","true","false","true","prac equal","RIGHT","RIGHT","j","1","true","","","",""
"","html-keyboard-response","46","130404","0.0-62.0","bsphs7xb","1920","1080","","","","","","","","","","","null","+","Fixation - short","","null","","","","","","","","","","","","","","","","",""
"","html-keyboard-response","47","130970","0.0-63.0","bsphs7xb","","","","","","","","","","","","","566","mts","Diagnostic practice","","f","","Diagnostic practice","14","-84","true","false","false","prac equal","LEFT","LEFT","f","1","true","","","",""
"","html-keyboard-response","48","131730","0.0-66.0","bsphs7xb","1920","1080","","","","","","","","","","","null","+","Fixation - short","","null","","","","","","","","","","","","","","","","",""
"","html-keyboard-response","49","132375","0.0-67.0","bsphs7xb","","","","","","","","","","","","","644","ivr","Diagnostic practice","","f","","Diagnostic practice","15","-84","true","false","false","prac equal","RIGHT","LEFT","f","1","false","","","",""
"","html-keyboard-response","50","133132","0.0-70.0","bsphs7xb","1920","1080","","","","","","","","","","","null","+","Fixation - short","","null","","","","","","","","","","","","","","","","",""
"","instructions","51","146604","0.0-71.0","bsphs7xb","","","","","","","","","","","","[{""page_index"":0,""viewing_time"":13471}]","13471","Instructions","Final experiment explanation","","","","","","","","","","","","","","","","","","",""
"","html-keyboard-response","52","154183","0.0-72.0","bsphs7xb","","","","","","","","","","","","","6071","If jey press RIGHT | If jft press LEFT","Inducer practice",""," ","","Practice","","","","","","","","","","","","","","",""
"","html-keyboard-response","53","154943","0.0-73.0","bsphs7xb","1920","1080","","","","","","","","","","","null","+","Fixation - short","","null","","","","","","","","","","","","","","","","",""
"","html-keyboard-response","54","155595","0.0-74.0","bsphs7xb","","","","","","","","","","","","","651","jft","Inducer practice","","j","","Practice","","","","true","","","","","f","0","","true","LEFT","",""
"","call-function","55","155595","0.0-76.0-0.0","bsphs7xb","","","","","","","","","","","","","","","","","","","","","","","","","","","","","","","","","",""
"","html-keyboard-response","56","155901","0.0-76.0-1.0","bsphs7xb","1920","1080","","","","","","","","","","","null","Wrong","Feedback","","null","","","","","","","","","","","","","","","","",""
"","call-function","57","155901","0.0-76.0-2.0","bsphs7xb","","","","","","","","","","","","","","","","","","","","","","","","","","","","","","","","","",""
"","html-keyboard-response","58","156655","0.0-77.0","bsphs7xb","1920","1080","","","","","","","","","","","null","+","Fixation - short","","null","","","","","","","","","","","","","","","","",""
"","html-keyboard-response","59","161073","0.0-78.0","bsphs7xb","","","","","","","","","","","","","4417","If pbz press RIGHT | If prg press LEFT","Inducer practice",""," ","","Practice","","","","","","","","","","","","","","",""
"","html-keyboard-response","60","161831","0.0-79.0","bsphs7xb","1920","1080","","","","","","","","","","","null","+","Fixation - short","","null","","","","","","","","","","","","","","","","",""
"","html-keyboard-response","61","162349","0.0-80.0","bsphs7xb","","","","","","","","","","","","","518","pbz","Inducer practice","","j","","Practice","","","","true","","","","","j","1","","true","RIGHT","",""
"","html-keyboard-response","62","163113","0.0-83.0","bsphs7xb","1920","1080","","","","","","","","","","","null","+","Fixation - short","","null","","","","","","","","","","","","","","","","",""
"","html-keyboard-response","63","167631","0.0-84.0","bsphs7xb","","","","","","","","","","","","","4517","If ndm press RIGHT | If fja press LEFT","Inducer practice",""," ","","Practice","","","","","","","","","","","","","","",""
"","html-keyboard-response","64","168392","0.0-85.0","bsphs7xb","1920","1080","","","","","","","","","","","null","+","Fixation - short","","null","","","","","","","","","","","","","","","","",""
"","html-keyboard-response","65","168925","0.0-86.0","bsphs7xb","","","","","","","","","","","","","532","ndm","Inducer practice","","j","","Practice","","","","true","","","","","j","1","","true","RIGHT","",""
"","html-keyboard-response","66","169675","0.0-89.0","bsphs7xb","1920","1080","","","","","","","","","","","null","+","Fixation - short","","null","","","","","","","","","","","","","","","","",""
"","html-keyboard-response","67","173058","0.0-90.0","bsphs7xb","","","","","","","","","","","","","3382","If dpa press RIGHT | If jil press LEFT","Inducer practice",""," ","","Practice","","","","","","","","","","","","","","",""
"","html-keyboard-response","68","173819","0.0-91.0","bsphs7xb","1920","1080","","","","","","","","","","","null","+","Fixation - short","","null","","","","","","","","","","","","","","","","",""
"","html-keyboard-response","69","174234","0.0-92.0","bsphs7xb","","","","","","","","","","","","","415","dpa","Inducer practice","","j","","Practice","","","","true","","","","","j","1","","true","RIGHT","",""
"","html-keyboard-response","70","174995","0.0-95.0","bsphs7xb","1920","1080","","","","","","","","","","","null","+","Fixation - short","","null","","","","","","","","","","","","","","","","",""
"","html-keyboard-response","71","177138","0.0-96.0","bsphs7xb","","","","","","","","","","","","","2143","If rbc press RIGHT | If frn press LEFT","Inducer practice",""," ","","Practice","","","","","","","","","","","","","","",""
"","html-keyboard-response","72","177892","0.0-97.0","bsphs7xb","1920","1080","","","","","","","","","","","null","+","Fixation - short","","null","","","","","","","","","","","","","","","","",""
"","html-keyboard-response","73","178300","0.0-98.0","bsphs7xb","","","","","","","","","","","","","407","frn","Inducer practice","","f","","Practice","","","","true","","","","","f","1","","true","LEFT","",""
"","html-keyboard-response","74","179062","0.0-101.0","bsphs7xb","1920","1080","","","","","","","","","","","null","+","Fixation - short","","null","","","","","","","","","","","","","","","","",""
"","html-keyboard-response","75","180968","0.0-102.0","bsphs7xb","","","","","","","","","","","","","1905","If ois press RIGHT | If otr press LEFT","Inducer practice",""," ","","Practice","","","","","","","","","","","","","","",""
"","html-keyboard-response","76","181723","0.0-103.0","bsphs7xb","1920","1080","","","","","","","","","","","null","+","Fixation - short","","null","","","","","","","","","","","","","","","","",""
"","html-keyboard-response","77","182205","0.0-104.0","bsphs7xb","","","","","","","","","","","","","482","otr","Inducer practice","","f","","Practice","","","","true","","","","","f","1","","true","LEFT","",""
"","html-keyboard-response","78","182967","0.0-107.0","bsphs7xb","1920","1080","","","","","","","","","","","null","+","Fixation - short","","null","","","","","","","","","","","","","","","","",""
"","instructions","79","211057","0.0-108.0","bsphs7xb","","","","","","","","","","","","[{""page_index"":0,""viewing_time"":28088}]","28089","Instructions","Final experiment explanation","","","","","","","","","","","","","","","","","","",""
"","html-keyboard-response","80","216546","0.0-109.0","bsphs7xb","","","","","","","","","","","","","3976","If byy press RIGHT | If dgv press LEFT","Cue practice",""," ","","Practice","","","","","","","","","","","","","","",""
"","html-keyboard-response","81","217299","0.0-110.0","bsphs7xb","1920","1080","","","","","","","","","","","null","+","Fixation - short","","null","","","","","","","","","","","","","","","","",""
"","html-keyboard-response","82","218108","0.0-111.0","bsphs7xb","","","","","","","","","","","","","809","dgv","Cue practice","","j","","Practice","0","13","false","false","false","both pre & post","LEFT","LEFT","f","0","true","","","",""
"","call-function","83","218108","0.0-113.0-0.0","bsphs7xb","","","","","","","","","","","","","","","","","","","","","","","","","","","","","","","","","",""
"","html-keyboard-response","84","218418","0.0-113.0-1.0","bsphs7xb","1920","1080","","","","","","","","","","","null","Wrong","Feedback","","null","","","","","","","","","","","","","","","","",""
"","call-function","85","218418","0.0-113.0-2.0","bsphs7xb","","","","","","","","","","","","","","","","","","","","","","","","","","","","","","","","","",""
"","html-keyboard-response","86","219182","0.0-114.0","bsphs7xb","1920","1080","","","","","","","","","","","null","+","Fixation - short","","null","","","","","","","","","","","","","","","","",""
"","html-keyboard-response","87","220106","0.0-115.0","bsphs7xb","","","","","","","","","","","","","923","dgv","Cue practice","","j","","Practice","1","13","false","false","true","both pre & post","LEFT","RIGHT","j","1","false","","","",""
"","html-keyboard-response","88","220867","0.0-118.0","bsphs7xb","1920","1080","","","","","","","","","","","null","+","Fixation - short","","null","","","","","","","","","","","","","","","","",""
"","html-keyboard-response","89","221423","0.0-119.0","bsphs7xb","","","","","","","","","","","","","555","dgv","Cue practice","","j","","Practice","2","13","false","false","true","both pre & post","LEFT","RIGHT","j","1","false","","","",""
"","html-keyboard-response","90","222184","0.0-122.0","bsphs7xb","1920","1080","","","","","","","","","","","null","+","Fixation - short","","null","","","","","","","","","","","","","","","","",""
"","html-keyboard-response","91","223390","0.0-123.0","bsphs7xb","","","","","","","","","","","","","1206","byy","Cue practice","","j","","Practice","3","13","false","false","false","both pre & post","RIGHT","LEFT","f","0","false","","","",""
"","call-function","92","223391","0.0-125.0-0.0","bsphs7xb","","","","","","","","","","","","","","","","","","","","","","","","","","","","","","","","","",""
"","html-keyboard-response","93","223705","0.0-125.0-1.0","bsphs7xb","1920","1080","","","","","","","","","","","null","Wrong","Feedback","","null","","","","","","","","","","","","","","","","",""
"","call-function","94","223705","0.0-125.0-2.0","bsphs7xb","","","","","","","","","","","","","","","","","","","","","","","","","","","","","","","","","",""
"","html-keyboard-response","95","224462","0.0-126.0","bsphs7xb","1920","1080","","","","","","","","","","","null","+","Fixation - short","","null","","","","","","","","","","","","","","","","",""
"","html-keyboard-response","96","226645","0.0-127.0","bsphs7xb","","","","","","","","","","","","","2182","dgv","Cue practice","","f","","Practice","4","13","false","false","false","both pre & post","LEFT","LEFT","f","1","true","","","",""
"","html-keyboard-response","97","227402","0.0-130.0","bsphs7xb","1920","1080","","","","","","","","","","","null","+","Fixation - short","","null","","","","","","","","","","","","","","","","",""
"","html-keyboard-response","98","227982","0.0-131.0","bsphs7xb","","","","","","","","","","","","","580","byy","Cue practice","","j","","Practice","5","13","false","false","true","both pre & post","RIGHT","RIGHT","j","1","true","","","",""
"","html-keyboard-response","99","228744","0.0-134.0","bsphs7xb","1920","1080","","","","","","","","","","","null","+","Fixation - short","","null","","","","","","","","","","","","","","","","",""
"","html-keyboard-response","100","230135","0.0-135.0","bsphs7xb","","","","","","","","","","","","","1391","byy","Cue practice","","j","","Practice","6","13","false","false","true","both pre & post","RIGHT","RIGHT","j","1","true","","","",""
"","html-keyboard-response","101","230901","0.0-138.0","bsphs7xb","1920","1080","","","","","","","","","","","null","+","Fixation - short","","null","","","","","","","","","","","","","","","","",""
"","html-keyboard-response","102","231437","0.0-139.0","bsphs7xb","","","","","","","","","","","","","536","byy","Cue practice","","j","","Practice","7","13","false","false","false","both pre & post","RIGHT","LEFT","f","0","false","","","",""
"","call-function","103","231438","0.0-141.0-0.0","bsphs7xb","","","","","","","","","","","","","","","","","","","","","","","","","","","","","","","","","",""
"","html-keyboard-response","104","231742","0.0-141.0-1.0","bsphs7xb","1920","1080","","","","","","","","","","","null","Wrong","Feedback","","null","","","","","","","","","","","","","","","","",""
"","call-function","105","231743","0.0-141.0-2.0","bsphs7xb","","","","","","","","","","","","","","","","","","","","","","","","","","","","","","","","","",""
"","html-keyboard-response","106","232494","0.0-142.0","bsphs7xb","1920","1080","","","","","","","","","","","null","+","Fixation - short","","null","","","","","","","","","","","","","","","","",""
"","html-keyboard-response","107","233166","0.0-143.0","bsphs7xb","","","","","","","","","","","","","670","dgv","Cue practice","","j","","Practice","8","13","false","false","false","both pre & post","LEFT","LEFT","f","0","true","","","",""
"","call-function","108","233166","0.0-145.0-0.0","bsphs7xb","","","","","","","","","","","","","","","","","","","","","","","","","","","","","","","","","",""
"","html-keyboard-response","109","233476","0.0-145.0-1.0","bsphs7xb","1920","1080","","","","","","","","","","","null","Wrong","Feedback","","null","","","","","","","","","","","","","","","","",""
"","call-function","110","233476","0.0-145.0-2.0","bsphs7xb","","","","","","","","","","","","","","","","","","","","","","","","","","","","","","","","","",""
"","html-keyboard-response","111","234242","0.0-146.0","bsphs7xb","1920","1080","","","","","","","","","","","null","+","Fixation - short","","null","","","","","","","","","","","","","","","","",""
"","html-keyboard-response","112","234773","0.0-147.0","bsphs7xb","","","","","","","","","","","","","530","dgv","Cue practice","","f","","Practice","9","13","false","false","false","both pre & post","LEFT","LEFT","f","1","true","","","",""
"","html-keyboard-response","113","235538","0.0-150.0","bsphs7xb","1920","1080","","","","","","","","","","","null","+","Fixation - short","","null","","","","","","","","","","","","","","","","",""
"","html-keyboard-response","114","236190","0.0-151.0","bsphs7xb","","","","","","","","","","","","","652","dgv","Cue practice","","j","","Practice","10","13","false","false","true","both pre & post","LEFT","RIGHT","j","1","false","","","",""
"","html-keyboard-response","115","236955","0.0-154.0","bsphs7xb","1920","1080","","","","","","","","","","","null","+","Fixation - short","","null","","","","","","","","","","","","","","","","",""
"","html-keyboard-response","116","238448","0.0-155.0","bsphs7xb","","","","","","","","","","","","","1493","byy","Cue practice","","j","","Practice","11","13","false","false","true","both pre & post","RIGHT","RIGHT","j","1","true","","","",""
"","html-keyboard-response","117","239205","0.0-158.0","bsphs7xb","1920","1080","","","","","","","","","","","null","+","Fixation - short","","null","","","","","","","","","","","","","","","","",""
"","html-keyboard-response","118","239675","0.0-159.0","bsphs7xb","","","","","","","","","","","","","470","byy","Cue practice","","j","","Practice","12","13","false","false","true","both pre & post","RIGHT","RIGHT","j","1","true","","","",""
"","html-keyboard-response","119","240434","0.0-162.0","bsphs7xb","1920","1080","","","","","","","","","","","null","+","Fixation - short","","null","","","","","","","","","","","","","","","","",""
"","canvas-keyboard-response","120","241702","0.0-163.0","bsphs7xb","","","","","","","","","","","","","null","Cue","Cue","","null","","Practice","12","","","false","","","","","","","","","","",""
"","html-keyboard-response","121","242454","0.0-164.0","bsphs7xb","1920","1080","","","","","","","","","","","null","+","Fixation - short","","null","","","","","","","","","","","","","","","","",""
"","html-keyboard-response","122","243315","0.0-165.0","bsphs7xb","","","","","","","","","","","","","861","byy","Cue practice","","f","","Practice","13","13","true","false","false","both pre & post","RIGHT","LEFT","f","1","false","","","",""
"","html-keyboard-response","123","244079","0.0-168.0","bsphs7xb","1920","1080","","","","","","","","","","","null","+","Fixation - short","","null","","","","","","","","","","","","","","","","",""
"","html-keyboard-response","124","244867","0.0-169.0","bsphs7xb","","","","","","","","","","","","","787","byy","Cue practice","","j","","Practice","14","13","true","false","true","both pre & post","RIGHT","RIGHT","j","1","true","","","",""
"","html-keyboard-response","125","245623","0.0-172.0","bsphs7xb","1920","1080","","","","","","","","","","","null","+","Fixation - short","","null","","","","","","","","","","","","","","","","",""
"","html-keyboard-response","126","246765","0.0-173.0","bsphs7xb","","","","","","","","","","","","","1141","dgv","Cue practice","","j","","Practice","15","13","true","false","true","both pre & post","LEFT","RIGHT","j","1","false","","","",""
"","html-keyboard-response","127","247528","0.0-176.0","bsphs7xb","1920","1080","","","","","","","","","","","null","+","Fixation - short","","null","","","","","","","","","","","","","","","","",""
"","html-keyboard-response","128","248903","0.0-177.0","bsphs7xb","","","","","","","","","","","","","1375","byy","Inducer practice","","j","","Practice","","","","true","","","","","j","1","","false","RIGHT","",""
"","html-keyboard-response","129","249662","0.0-180.0","bsphs7xb","1920","1080","","","","","","","","","","","null","+","Fixation - short","","null","","","","","","","","","","","","","","","","",""
"","instructions","130","255498","0.0-181.0","bsphs7xb","","","","","","","","","","","","[{""page_index"":0,""viewing_time"":5835}]","5835","End practice","End of practice","","","","","","","","","","","","","","","","","","",""
"","html-keyboard-response","131","258516","0.0-182.0","bsphs7xb","1920","1080","","","","","","","","","","","null","+","Fixation - long","","null","","","","","","","","","","","","","","","","",""
"","html-keyboard-response","132","264454","0.0-183.0","bsphs7xb","","","","","","","","","","","","","5937","If kmh press RIGHT | If sjn press LEFT","Inducer instructions",""," ","","0","","","","","","","","","","","","","","",""
"","html-keyboard-response","133","265215","0.0-184.0","bsphs7xb","1920","1080","","","","","","","","","","","null","+","Fixation - short","","null","","","","","","","","","","","","","","","","",""
"","html-keyboard-response","134","265796","0.0-185.0","bsphs7xb","","","","","","","","","","","","","580","sjn","Diagnostic trial","","j","","0","0","6","false","false","true","both pre & post","LEFT","RIGHT","j","1","false","","","",""
"","html-keyboard-response","135","266558","0.0-188.0","bsphs7xb","1920","1080","","","","","","","","","","","null","+","Fixation - short","","null","","","","","","","","","","","","","","","","",""
"","html-keyboard-response","136","267023","0.0-189.0","bsphs7xb","","","","","","","","","","","","","464","kmh","Diagnostic trial","","j","","0","1","6","false","false","true","both pre & post","RIGHT","RIGHT","j","1","true","","","",""
"","html-keyboard-response","137","267779","0.0-192.0","bsphs7xb","1920","1080","","","","","","","","","","","null","+","Fixation - short","","null","","","","","","","","","","","","","","","","",""
"","html-keyboard-response","138","268265","0.0-193.0","bsphs7xb","","","","","","","","","","","","","486","kmh","Diagnostic trial","","j","","0","2","6","false","false","true","both pre & post","RIGHT","RIGHT","j","1","true","","","",""
"","html-keyboard-response","139","269027","0.0-196.0","bsphs7xb","1920","1080","","","","","","","","","","","null","+","Fixation - short","","null","","","","","","","","","","","","","","","","",""
"","html-keyboard-response","140","269447","0.0-197.0","bsphs7xb","","","","","","","","","","","","","419","kmh","Diagnostic trial","","j","","0","3","6","false","false","true","both pre & post","RIGHT","RIGHT","j","1","true","","","",""
"","html-keyboard-response","141","270205","0.0-200.0","bsphs7xb","1920","1080","","","","","","","","","","","null","+","Fixation - short","","null","","","","","","","","","","","","","","","","",""
"","html-keyboard-response","142","271029","0.0-201.0","bsphs7xb","","","","","","","","","","","","","824","sjn","Diagnostic trial","","j","","0","4","6","false","false","true","both pre & post","LEFT","RIGHT","j","1","false","","","",""
"","html-keyboard-response","143","271795","0.0-204.0","bsphs7xb","1920","1080","","","","","","","","","","","null","+","Fixation - short","","null","","","","","","","","","","","","","","","","",""
"","html-keyboard-response","144","272387","0.0-205.0","bsphs7xb","","","","","","","","","","","","","592","sjn","Diagnostic trial","","f","","0","5","6","false","false","false","both pre & post","LEFT","LEFT","f","1","true","","","",""
"","html-keyboard-response","145","273145","0.0-208.0","bsphs7xb","1920","1080","","","","","","","","","","","null","+","Fixation - short","","null","","","","","","","","","","","","","","","","",""
"","canvas-keyboard-response","146","274405","0.0-209.0","bsphs7xb","","","","","","","","","","","","","null","Cue","Cue","","null","","0","5","","","false","","","","","","","","","","",""
"","html-keyboard-response","147","275170","0.0-210.0","bsphs7xb","1920","1080","","","","","","","","","","","null","+","Fixation - short","","null","","","","","","","","","","","","","","","","",""
"","html-keyboard-response","148","276047","0.0-211.0","bsphs7xb","","","","","","","","","","","","","876","kmh","Diagnostic trial","","j","","0","6","6","true","false","true","both pre & post","RIGHT","RIGHT","j","1","true","","","",""
"","html-keyboard-response","149","276805","0.0-214.0","bsphs7xb","1920","1080","","","","","","","","","","","null","+","Fixation - short","","null","","","","","","","","","","","","","","","","",""
"","html-keyboard-response","150","277529","0.0-215.0","bsphs7xb","","","","","","","","","","","","","723","kmh","Diagnostic trial","","f","","0","7","6","true","false","false","both pre & post","RIGHT","LEFT","f","1","false","","","",""
"","html-keyboard-response","151","278286","0.0-218.0","bsphs7xb","1920","1080","","","","","","","","","","","null","+","Fixation - short","","null","","","","","","","","","","","","","","","","",""
"","html-keyboard-response","152","278831","0.0-219.0","bsphs7xb","","","","","","","","","","","","","544","kmh","Diagnostic trial","","f","","0","8","6","true","false","false","both pre & post","RIGHT","LEFT","f","1","false","","","",""
"","html-keyboard-response","153","279593","0.0-222.0","bsphs7xb","1920","1080","","","","","","","","","","","null","+","Fixation - short","","null","","","","","","","","","","","","","","","","",""
"","html-keyboard-response","154","280168","0.0-223.0","bsphs7xb","","","","","","","","","","","","","574","kmh","Diagnostic trial","","f","","0","9","6","true","false","false","both pre & post","RIGHT","LEFT","f","1","false","","","",""
"","html-keyboard-response","155","280932","0.0-226.0","bsphs7xb","1920","1080","","","","","","","","","","","null","+","Fixation - short","","null","","","","","","","","","","","","","","","","",""
"","html-keyboard-response","156","282066","0.0-227.0","bsphs7xb","","","","","","","","","","","","","1133","kmh","Inducer trial","","j","","0","","","","true","","","","","j","1","","false","RIGHT","",""
"","html-keyboard-response","157","282830","0.0-230.0","bsphs7xb","1920","1080","","","","","","","","","","","null","+","Fixation - short","","null","","","","","","","","","","","","","","","","",""
"","html-keyboard-response","158","290974","0.0-231.0","bsphs7xb","","","","","","","","","","","","","8143","If vpu press RIGHT | If feg press LEFT","Inducer instructions",""," ","","1","","","","","","","","","","","","","","",""
"","html-keyboard-response","159","291729","0.0-232.0","bsphs7xb","1920","1080","","","","","","","","","","","null","+","Fixation - short","","null","","","","","","","","","","","","","","","","",""
"","html-keyboard-response","160","292671","0.0-233.0","bsphs7xb","","","","","","","","","","","","","942","vpu","Diagnostic trial","","j","","1","0","4","false","false","true","both pre & post","RIGHT","RIGHT","j","1","true","","","",""
"","html-keyboard-response","161","293433","0.0-236.0","bsphs7xb","1920","1080","","","","","","","","","","","null","+","Fixation - short","","null","","","","","","","","","","","","","","","","",""
"","html-keyboard-response","162","294099","0.0-237.0","bsphs7xb","","","","","","","","","","","","","665","feg","Diagnostic trial","","f","","1","1","4","false","false","false","both pre & post","LEFT","LEFT","f","1","true","","","",""
"","html-keyboard-response","163","294854","0.0-240.0","bsphs7xb","1920","1080","","","","","","","","","","","null","+","Fixation - short","","null","","","","","","","","","","","","","","","","",""
"","html-keyboard-response","164","295461","0.0-241.0","bsphs7xb","","","","","","","","","","","","","606","vpu","Diagnostic trial","","j","","1","2","4","false","false","true","both pre & post","RIGHT","RIGHT","j","1","true","","","",""
"","html-keyboard-response","165","296219","0.0-244.0","bsphs7xb","1920","1080","","","","","","","","","","","null","+","Fixation - short","","null","","","","","","","","","","","","","","","","",""
"","html-keyboard-response","166","296968","0.0-245.0","bsphs7xb","","","","","","","","","","","","","748","feg","Diagnostic trial","","j","","1","3","4","false","false","true","both pre & post","LEFT","RIGHT","j","1","false","","","",""
"","html-keyboard-response","167","297721","0.0-248.0","bsphs7xb","1920","1080","","","","","","","","","","","null","+","Fixation - short","","null","","","","","","","","","","","","","","","","",""
"","canvas-keyboard-response","168","298977","0.0-249.0","bsphs7xb","","","","","","","","","","","","","null","Cue","Cue","","null","","1","3","","","false","","","","","","","","","","",""
"","html-keyboard-response","169","299731","0.0-250.0","bsphs7xb","1920","1080","","","","","","","","","","","null","+","Fixation - short","","null","","","","","","","","","","","","","","","","",""
"","html-keyboard-response","170","300393","0.0-251.0","bsphs7xb","","","","","","","","","","","","","662","vpu","Diagnostic trial","","f","","1","4","4","true","false","false","both pre & post","RIGHT","LEFT","f","1","false","","","",""
"","html-keyboard-response","171","301152","0.0-254.0","bsphs7xb","1920","1080","","","","","","","","","","","null","+","Fixation - short","","null","","","","","","","","","","","","","","","","",""
"","html-keyboard-response","172","301710","0.0-255.0","bsphs7xb","","","","","","","","","","","","","557","vpu","Diagnostic trial","","f","","1","5","4","true","false","false","both pre & post","RIGHT","LEFT","f","1","false","","","",""
"","html-keyboard-response","173","302462","0.0-258.0","bsphs7xb","1920","1080","","","","","","","","","","","null","+","Fixation - short","","null","","","","","","","","","","","","","","","","",""
"","html-keyboard-response","174","303503","0.0-259.0","bsphs7xb","","","","","","","","","","","","","1041","feg","Inducer trial","","f","","1","","","","true","","","","","f","1","","false","LEFT","",""
"","html-keyboard-response","175","304259","0.0-262.0","bsphs7xb","1920","1080","","","","","","","","","","","null","+","Fixation - short","","null","","","","","","","","","","","","","","","","",""
"","html-keyboard-response","176","305416","0.0-263.0","bsphs7xb","","","","","","","","","","","","","1157","If ccx press RIGHT | If guf press LEFT","Inducer instructions",""," ","","2","","","","","","","","","","","","","","",""
"","html-keyboard-response","177","306169","0.0-264.0","bsphs7xb","1920","1080","","","","","","","","","","","null","+","Fixation - short","","null","","","","","","","","","","","","","","","","",""
"","html-keyboard-response","178","307794","0.0-265.0","bsphs7xb","","","","","","","","","","","","","1625","guf","Diagnostic trial","","f","","2","0","12","false","false","false","both pre & post","LEFT","LEFT","f","1","true","","","",""
"","html-keyboard-response","179","308550","0.0-268.0","bsphs7xb","1920","1080","","","","","","","","","","","null","+","Fixation - short","","null","","","","","","","","","","","","","","","","",""
"","html-keyboard-response","180","309382","0.0-269.0","bsphs7xb","","","","","","","","","","","","","831","ccx","Diagnostic trial","","f","","2","1","12","false","false","false","both pre & post","RIGHT","LEFT","f","1","false","","","",""
"","html-keyboard-response","181","310146","0.0-272.0","bsphs7xb","1920","1080","","","","","","","","","","","null","+","Fixation - short","","null","","","","","","","","","","","","","","","","",""
"","html-keyboard-response","182","310669","0.0-273.0","bsphs7xb","","","","","","","","","","","","","522","ccx","Diagnostic trial","","f","","2","2","12","false","false","false","both pre & post","RIGHT","LEFT","f","1","false","","","",""
"","html-keyboard-response","183","311429","0.0-276.0","bsphs7xb","1920","1080","","","","","","","","","","","null","+","Fixation - short","","null","","","","","","","","","","","","","","","","",""
"","html-keyboard-response","184","311996","0.0-277.0","bsphs7xb","","","","","","","","","","","","","566","guf","Diagnostic trial","","f","","2","3","12","false","false","false","both pre & post","LEFT","LEFT","f","1","true","","","",""
"","html-keyboard-response","185","312749","0.0-280.0","bsphs7xb","1920","1080","","","","","","","","","","","null","+","Fixation - short","","null","","","","","","","","","","","","","","","","",""
"","html-keyboard-response","186","313243","0.0-281.0","bsphs7xb","","","","","","","","","","","","","493","guf","Diagnostic trial","","f","","2","4","12","false","false","false","both pre & post","LEFT","LEFT","f","1","true","","","",""
"","html-keyboard-response","187","314007","0.0-284.0","bsphs7xb","1920","1080","","","","","","","","","","","null","+","Fixation - short","","null","","","","","","","","","","","","","","","","",""
"","html-keyboard-response","188","314800","0.0-285.0","bsphs7xb","","","","","","","","","","","","","792","ccx","Diagnostic trial","","j","","2","5","12","false","false","true","both pre & post","RIGHT","RIGHT","j","1","true","","","",""
"","html-keyboard-response","189","315562","0.0-288.0","bsphs7xb","1920","1080","","","","","","","","","","","null","+","Fixation - short","","null","","","","","","","","","","","","","","","","",""
"","html-keyboard-response","190","316207","0.0-289.0","bsphs7xb","","","","","","","","","","","","","645","ccx","Diagnostic trial","","f","","2","6","12","false","false","false","both pre & post","RIGHT","LEFT","f","1","false","","","",""
"","html-keyboard-response","191","316971","0.0-292.0","bsphs7xb","1920","1080","","","","","","","","","","","null","+","Fixation - short","","null","","","","","","","","","","","","","","","","",""
"","html-keyboard-response","192","317546","0.0-293.0","bsphs7xb","","","","","","","","","","","","","575","guf","Diagnostic trial","","f","","2","7","12","false","false","false","both pre & post","LEFT","LEFT","f","1","true","","","",""
"","html-keyboard-response","193","318297","0.0-296.0","bsphs7xb","1920","1080","","","","","","","","","","","null","+","Fixation - short","","null","","","","","","","","","","","","","","","","",""
"","html-keyboard-response","194","318801","0.0-297.0","bsphs7xb","","","","","","","","","","","","","504","guf","Diagnostic trial","","f","","2","8","12","false","false","false","both pre & post","LEFT","LEFT","f","1","true","","","",""
"","html-keyboard-response","195","319558","0.0-300.0","bsphs7xb","1920","1080","","","","","","","","","","","null","+","Fixation - short","","null","","","","","","","","","","","","","","","","",""
"","html-keyboard-response","196","320274","0.0-301.0","bsphs7xb","","","","","","","","","","","","","715","guf","Diagnostic trial","","j","","2","9","12","false","false","true","both pre & post","LEFT","RIGHT","j","1","false","","","",""
"","html-keyboard-response","197","321039","0.0-304.0","bsphs7xb","1920","1080","","","","","","","","","","","null","+","Fixation - short","","null","","","","","","","","","","","","","","","","",""
"","html-keyboard-response","198","321552","0.0-305.0","bsphs7xb","","","","","","","","","","","","","513","guf","Diagnostic trial","","j","","2","10","12","false","false","true","both pre & post","LEFT","RIGHT","j","1","false","","","",""
"","html-keyboard-response","199","322316","0.0-308.0","bsphs7xb","1920","1080","","","","","","","","","","","null","+","Fixation - short","","null","","","","","","","","","","","","","","","","",""
"","html-keyboard-response","200","323018","0.0-309.0","bsphs7xb","","","","","","","","","","","","","702","ccx","Diagnostic trial","","j","","2","11","12","false","false","true","both pre & post","RIGHT","RIGHT","j","1","true","","","",""
"","html-keyboard-response","201","323783","0.0-312.0","bsphs7xb","1920","1080","","","","","","","","","","","null","+","Fixation - short","","null","","","","","","","","","","","","","","","","",""
"","canvas-keyboard-response","202","325045","0.0-313.0","bsphs7xb","","","","","","","","","","","","","null","Cue","Cue","","null","","2","11","","","false","","","","","","","","","","",""
"","html-keyboard-response","203","325810","0.0-314.0","bsphs7xb","1920","1080","","","","","","","","","","","null","+","Fixation - short","","null","","","","","","","","","","","","","","","","",""
"","html-keyboard-response","204","326463","0.0-315.0","bsphs7xb","","","","","","","","","","","","","653","ccx","Diagnostic trial","","j","","2","12","12","true","false","true","both pre & post","RIGHT","RIGHT","j","1","true","","","",""
"","html-keyboard-response","205","327225","0.0-318.0","bsphs7xb","1920","1080","","","","","","","","","","","null","+","Fixation - short","","null","","","","","","","","","","","","","","","","",""
"","html-keyboard-response","206","329227","0.0-319.0","bsphs7xb","","","","","","","","","","","","","null","guf","Inducer trial","","null","","2","","","","true","","","","","f","NaN","","false","LEFT","",""
"","call-function","207","329227","0.0-320.0-0.0","bsphs7xb","","","","","","","","","","","","","","","","","","","","","","","","","","","","","","","","","",""
"","html-keyboard-response","208","329536","0.0-320.0-1.0","bsphs7xb","1920","1080","","","","","","","","","","","null","Slow","Feedback","","null","","","","","","","","","","","","","","","","",""
"","call-function","209","329537","0.0-320.0-2.0","bsphs7xb","","","","","","","","","","","","","","","","","","","","","","","","","","","","","","","","","",""
"","html-keyboard-response","210","330302","0.0-322.0","bsphs7xb","1920","1080","","","","","","","","","","","null","+","Fixation - short","","null","","","","","","","","","","","","","","","","",""
"","html-keyboard-response","211","334272","0.0-323.0","bsphs7xb","","","","","","","","","","","","","3969","If ume press RIGHT | If ofa press LEFT","Inducer instructions",""," ","","3","","","","","","","","","","","","","","",""
"","html-keyboard-response","212","335035","0.0-324.0","bsphs7xb","1920","1080","","","","","","","","","","","null","+","Fixation - short","","null","","","","","","","","","","","","","","","","",""
"","html-keyboard-response","213","335874","0.0-325.0","bsphs7xb","","","","","","","","","","","","","839","ofa","Diagnostic trial","","f","","3","0","8","false","false","false","both pre & post","LEFT","LEFT","f","1","true","","","",""
"","html-keyboard-response","214","336630","0.0-328.0","bsphs7xb","1920","1080","","","","","","","","","","","null","+","Fixation - short","","null","","","","","","","","","","","","","","","","",""
"","html-keyboard-response","215","337284","0.0-329.0","bsphs7xb","","","","","","","","","","","","","654","ume","Diagnostic trial","","f","","3","1","8","false","false","false","both pre & post","RIGHT","LEFT","f","1","false","","","",""
"","html-keyboard-response","216","338045","0.0-332.0","bsphs7xb","1920","1080","","","","","","","","","","","null","+","Fixation - short","","null","","","","","","","","","","","","","","","","",""
"","html-keyboard-response","217","338511","0.0-333.0","bsphs7xb","","","","","","","","","","","","","465","ume","Diagnostic trial","","f","","3","2","8","false","false","false","both pre & post","RIGHT","LEFT","f","1","false","","","",""
"","html-keyboard-response","218","339262","0.0-336.0","bsphs7xb","1920","1080","","","","","","","","","","","null","+","Fixation - short","","null","","","","","","","","","","","","","","","","",""
"","html-keyboard-response","219","339803","0.0-337.0","bsphs7xb","","","","","","","","","","","","","540","ume","Diagnostic trial","","j","","3","3","8","false","false","true","both pre & post","RIGHT","RIGHT","j","1","true","","","",""
"","html-keyboard-response","220","340557","0.0-340.0","bsphs7xb","1920","1080","","","","","","","","","","","null","+","Fixation - short","","null","","","","","","","","","","","","","","","","",""
"","html-keyboard-response","221","341701","0.0-341.0","bsphs7xb","","","","","","","","","","","","","1143","ofa","Diagnostic trial","","f","","3","4","8","false","false","true","both pre & post","LEFT","RIGHT","j","0","false","","","",""
"","call-function","222","341701","0.0-343.0-0.0","bsphs7xb","","","","","","","","","","","","","","","","","","","","","","","","","","","","","","","","","",""
"","html-keyboard-response","223","342014","0.0-343.0-1.0","bsphs7xb","1920","1080","","","","","","","","","","","null","Wrong","Feedback","","null","","","","","","","","","","","","","","","","",""
"","call-function","224","342014","0.0-343.0-2.0","bsphs7xb","","","","","","","","","","","","","","","","","","","","","","","","","","","","","","","","","",""
"","html-keyboard-response","225","342776","0.0-344.0","bsphs7xb","1920","1080","","","","","","","","","","","null","+","Fixation - short","","null","","","","","","","","","","","","","","","","",""
"","html-keyboard-response","226","343539","0.0-345.0","bsphs7xb","","","","","","","","","","","","","763","ume","Diagnostic trial","","j","","3","5","8","false","false","true","both pre & post","RIGHT","RIGHT","j","1","true","","","",""
"","html-keyboard-response","227","344293","0.0-348.0","bsphs7xb","1920","1080","","","","","","","","","","","null","+","Fixation - short","","null","","","","","","","","","","","","","","","","",""
"","html-keyboard-response","228","344956","0.0-349.0","bsphs7xb","","","","","","","","","","","","","662","ofa","Diagnostic trial","","f","","3","6","8","false","false","false","both pre & post","LEFT","LEFT","f","1","true","","","",""
"","html-keyboard-response","229","345712","0.0-352.0","bsphs7xb","1920","1080","","","","","","","","","","","null","+","Fixation - short","","null","","","","","","","","","","","","","","","","",""
"","html-keyboard-response","230","346290","0.0-353.0","bsphs7xb","","","","","","","","","","","","","577","ume","Diagnostic trial","","f","","3","7","8","false","false","false","both pre & post","RIGHT","LEFT","f","1","false","","","",""
"","html-keyboard-response","231","347046","0.0-356.0","bsphs7xb","1920","1080","","","","","","","","","","","null","+","Fixation - short","","null","","","","","","","","","","","","","","","","",""
"","canvas-keyboard-response","232","348312","0.0-357.0","bsphs7xb","","","","","","","","","","","","","null","Cue","Cue","","null","","3","7","","","false","","","","","","","","","","",""
"","html-keyboard-response","233","349065","0.0-358.0","bsphs7xb","1920","1080","","","","","","","","","","","null","+","Fixation - short","","null","","","","","","","","","","","","","","","","",""
"","html-keyboard-response","234","349818","0.0-359.0","bsphs7xb","","","","","","","","","","","","","753","ofa","Diagnostic trial","","j","","3","8","8","true","false","true","both pre & post","LEFT","RIGHT","j","1","false","","","",""
"","html-keyboard-response","235","350571","0.0-362.0","bsphs7xb","1920","1080","","","","","","","","","","","null","+","Fixation - short","","null","","","","","","","","","","","","","","","","",""
"","html-keyboard-response","236","351155","0.0-363.0","bsphs7xb","","","","","","","","","","","","","584","ofa","Diagnostic trial","","f","","3","9","8","true","false","false","both pre & post","LEFT","LEFT","f","1","true","","","",""
"","html-keyboard-response","237","351911","0.0-366.0","bsphs7xb","1920","1080","","","","","","","","","","","null","+","Fixation - short","","null","","","","","","","","","","","","","","","","",""
"","html-keyboard-response","238","352613","0.0-367.0","bsphs7xb","","","","","","","","","","","","","701","ofa","Diagnostic trial","","f","","3","10","8","true","false","false","both pre & post","LEFT","LEFT","f","1","true","","","",""
"","html-keyboard-response","239","353364","0.0-370.0","bsphs7xb","1920","1080","","","","","","","","","","","null","+","Fixation - short","","null","","","","","","","","","","","","","","","","",""
"","html-keyboard-response","240","354044","0.0-371.0","bsphs7xb","","","","","","","","","","","","","680","ofa","Diagnostic trial","","j","","3","11","8","true","false","true","both pre & post","LEFT","RIGHT","j","1","false","","","",""
"","html-keyboard-response","241","354802","0.0-374.0","bsphs7xb","1920","1080","","","","","","","","","","","null","+","Fixation - short","","null","","","","","","","","","","","","","","","","",""
"","html-keyboard-response","242","355292","0.0-375.0","bsphs7xb","","","","","","","","","","","","","489","ume","Inducer trial","","j","","3","","","","true","","","","","j","1","","false","RIGHT","",""
"","html-keyboard-response","243","356050","0.0-378.0","bsphs7xb","1920","1080","","","","","","","","","","","null","+","Fixation - short","","null","","","","","","","","","","","","","","","","",""
"","html-keyboard-response","244","359488","0.0-379.0","bsphs7xb","","","","","","","","","","","","","3437","If snx press RIGHT | If efg press LEFT","Inducer instructions",""," ","","4","","","","","","","","","","","","","","",""
"","html-keyboard-response","245","360245","0.0-380.0","bsphs7xb","1920","1080","","","","","","","","","","","null","+","Fixation - short","","null","","","","","","","","","","","","","","","","",""
"","html-keyboard-response","246","360885","0.0-381.0","bsphs7xb","","","","","","","","","","","","","639","snx","Diagnostic trial","","f","","4","0","7","false","false","false","both pre & post","RIGHT","LEFT","f","1","false","","","",""
"","html-keyboard-response","247","361645","0.0-384.0","bsphs7xb","1920","1080","","","","","","","","","","","null","+","Fixation - short","","null","","","","","","","","","","","","","","","","",""
"","html-keyboard-response","248","362337","0.0-385.0","bsphs7xb","","","","","","","","","","","","","692","snx","Diagnostic trial","","j","","4","1","7","false","false","true","both pre & post","RIGHT","RIGHT","j","1","true","","","",""
"","html-keyboard-response","249","363094","0.0-388.0","bsphs7xb","1920","1080","","","","","","","","","","","null","+","Fixation - short","","null","","","","","","","","","","","","","","","","",""
"","html-keyboard-response","250","363664","0.0-389.0","bsphs7xb","","","","","","","","","","","","","570","snx","Diagnostic trial","","f","","4","2","7","false","false","false","both pre & post","RIGHT","LEFT","f","1","false","","","",""
"","html-keyboard-response","251","364417","0.0-392.0","bsphs7xb","1920","1080","","","","","","","","","","","null","+","Fixation - short","","null","","","","","","","","","","","","","","","","",""
"","html-keyboard-response","252","365096","0.0-393.0","bsphs7xb","","","","","","","","","","","","","678","efg","Diagnostic trial","","f","","4","3","7","false","false","false","both pre & post","LEFT","LEFT","f","1","true","","","",""
"","html-keyboard-response","253","365855","0.0-396.0","bsphs7xb","1920","1080","","","","","","","","","","","null","+","Fixation - short","","null","","","","","","","","","","","","","","","","",""
"","html-keyboard-response","254","366739","0.0-397.0","bsphs7xb","","","","","","","","","","","","","883","snx","Diagnostic trial","","j","","4","4","7","false","false","true","both pre & post","RIGHT","RIGHT","j","1","true","","","",""
"","html-keyboard-response","255","367491","0.0-400.0","bsphs7xb","1920","1080","","","","","","","","","","","null","+","Fixation - short","","null","","","","","","","","","","","","","","","","",""
"","html-keyboard-response","256","368066","0.0-401.0","bsphs7xb","","","","","","","","","","","","","574","snx","Diagnostic trial","","j","","4","5","7","false","false","true","both pre & post","RIGHT","RIGHT","j","1","true","","","",""
"","html-keyboard-response","257","368817","0.0-404.0","bsphs7xb","1920","1080","","","","","","","","","","","null","+","Fixation - short","","null","","","","","","","","","","","","","","","","",""
"","html-keyboard-response","258","369493","0.0-405.0","bsphs7xb","","","","","","","","","","","","","676","efg","Diagnostic trial","","j","","4","6","7","false","false","true","both pre & post","LEFT","RIGHT","j","1","false","","","",""
"","html-keyboard-response","259","370259","0.0-408.0","bsphs7xb","1920","1080","","","","","","","","","","","null","+","Fixation - short","","null","","","","","","","","","","","","","","","","",""
"","canvas-keyboard-response","260","371524","0.0-409.0","bsphs7xb","","","","","","","","","","","","","null","Cue","Cue","","null","","4","6","","","false","","","","","","","","","","",""
"","html-keyboard-response","261","372288","0.0-410.0","bsphs7xb","1920","1080","","","","","","","","","","","null","+","Fixation - short","","null","","","","","","","","","","","","","","","","",""
"","html-keyboard-response","262","372973","0.0-411.0","bsphs7xb","","","","","","","","","","","","","685","snx","Diagnostic trial","","j","","4","7","7","true","false","true","both pre & post","RIGHT","RIGHT","j","1","true","","","",""
"","html-keyboard-response","263","373738","0.0-414.0","bsphs7xb","1920","1080","","","","","","","","","","","null","+","Fixation - short","","null","","","","","","","","","","","","","","","","",""
"","html-keyboard-response","264","374235","0.0-415.0","bsphs7xb","","","","","","","","","","","","","496","snx","Diagnostic trial","","j","","4","8","7","true","false","true","both pre & post","RIGHT","RIGHT","j","1","true","","","",""
"","html-keyboard-response","265","374989","0.0-418.0","bsphs7xb","1920","1080","","","","","","","","","","","null","+","Fixation - short","","null","","","","","","","","","","","","","","","","",""
"","html-keyboard-response","266","376058","0.0-419.0","bsphs7xb","","","","","","","","","","","","","1068","efg","Diagnostic trial","","j","","4","9","7","true","false","true","both pre & post","LEFT","RIGHT","j","1","false","","","",""
"","html-keyboard-response","267","376819","0.0-422.0","bsphs7xb","1920","1080","","","","","","","","","","","null","+","Fixation - short","","null","","","","","","","","","","","","","","","","",""
"","html-keyboard-response","268","377710","0.0-423.0","bsphs7xb","","","","","","","","","","","","","891","efg","Diagnostic trial","","f","","4","10","7","true","false","false","both pre & post","LEFT","LEFT","f","1","true","","","",""
"","html-keyboard-response","269","378476","0.0-426.0","bsphs7xb","1920","1080","","","","","","","","","","","null","+","Fixation - short","","null","","","","","","","","","","","","","","","","",""
"","html-keyboard-response","270","379340","0.0-427.0","bsphs7xb","","","","","","","","","","","","","864","efg","Inducer trial","","f","","4","","","","true","","","","","f","1","","false","LEFT","",""
"","html-keyboard-response","271","380106","0.0-430.0","bsphs7xb","1920","1080","","","","","","","","","","","null","+","Fixation - short","","null","","","","","","","","","","","","","","","","",""
"","html-keyboard-response","272","381887","0.0-431.0","bsphs7xb","","","","","","","","","","","","","1780","If mda press RIGHT | If ori press LEFT","Inducer instructions",""," ","","5","","","","","","","","","","","","","","",""
"","html-keyboard-response","273","382645","0.0-432.0","bsphs7xb","1920","1080","","","","","","","","","","","null","+","Fixation - short","","null","","","","","","","","","","","","","","","","",""
"","html-keyboard-response","274","383785","0.0-433.0","bsphs7xb","","","","","","","","","","","","","1139","mda","Diagnostic trial","","f","","5","0","7","false","false","false","both pre & post","RIGHT","LEFT","f","1","false","","","",""
"","html-keyboard-response","275","384536","0.0-436.0","bsphs7xb","1920","1080","","","","","","","","","","","null","+","Fixation - short","","null","","","","","","","","","","","","","","","","",""
"","html-keyboard-response","276","385182","0.0-437.0","bsphs7xb","","","","","","","","","","","","","645","ori","Diagnostic trial","","f","","5","1","7","false","false","false","both pre & post","LEFT","LEFT","f","1","true","","","",""
"","html-keyboard-response","277","385941","0.0-440.0","bsphs7xb","1920","1080","","","","","","","","","","","null","+","Fixation - short","","null","","","","","","","","","","","","","","","","",""
"","html-keyboard-response","278","386369","0.0-441.0","bsphs7xb","","","","","","","","","","","","","427","ori","Diagnostic trial","","j","","5","2","7","false","false","true","both pre & post","LEFT","RIGHT","j","1","false","","","",""
"","html-keyboard-response","279","387133","0.0-444.0","bsphs7xb","1920","1080","","","","","","","","","","","null","+","Fixation - short","","null","","","","","","","","","","","","","","","","",""
"","html-keyboard-response","280","387691","0.0-445.0","bsphs7xb","","","","","","","","","","","","","557","ori","Diagnostic trial","","j","","5","3","7","false","false","true","both pre & post","LEFT","RIGHT","j","1","false","","","",""
"","html-keyboard-response","281","388444","0.0-448.0","bsphs7xb","1920","1080","","","","","","","","","","","null","+","Fixation - short","","null","","","","","","","","","","","","","","","","",""
"","html-keyboard-response","282","389033","0.0-449.0","bsphs7xb","","","","","","","","","","","","","588","ori","Diagnostic trial","","f","","5","4","7","false","false","false","both pre & post","LEFT","LEFT","f","1","true","","","",""
"","html-keyboard-response","283","389792","0.0-452.0","bsphs7xb","1920","1080","","","","","","","","","","","null","+","Fixation - short","","null","","","","","","","","","","","","","","","","",""
"","html-keyboard-response","284","390380","0.0-453.0","bsphs7xb","","","","","","","","","","","","","587","ori","Diagnostic trial","","j","","5","5","7","false","false","true","both pre & post","LEFT","RIGHT","j","1","false","","","",""
"","html-keyboard-response","285","391140","0.0-456.0","bsphs7xb","1920","1080","","","","","","","","","","","null","+","Fixation - short","","null","","","","","","","","","","","","","","","","",""
"","html-keyboard-response","286","391962","0.0-457.0","bsphs7xb","","","","","","","","","","","","","821","mda","Diagnostic trial","","j","","5","6","7","false","false","true","both pre & post","RIGHT","RIGHT","j","1","true","","","",""
"","html-keyboard-response","287","392723","0.0-460.0","bsphs7xb","1920","1080","","","","","","","","","","","null","+","Fixation - short","","null","","","","","","","","","","","","","","","","",""
"","canvas-keyboard-response","288","393985","0.0-461.0","bsphs7xb","","","","","","","","","","","","","null","Cue","Cue","","null","","5","6","","","false","","","","","","","","","","",""
"","html-keyboard-response","289","394736","0.0-462.0","bsphs7xb","1920","1080","","","","","","","","","","","null","+","Fixation - short","","null","","","","","","","","","","","","","","","","",""
"","html-keyboard-response","290","395317","0.0-463.0","bsphs7xb","","","","","","","","","","","","","580","ori","Diagnostic trial","","j","","5","7","7","true","false","true","both pre & post","LEFT","RIGHT","j","1","false","","","",""
"","html-keyboard-response","291","396073","0.0-466.0","bsphs7xb","1920","1080","","","","","","","","","","","null","+","Fixation - short","","null","","","","","","","","","","","","","","","","",""
"","html-keyboard-response","292","396619","0.0-467.0","bsphs7xb","","","","","","","","","","","","","546","mda","Diagnostic trial","","j","","5","8","7","true","false","true","both pre & post","RIGHT","RIGHT","j","1","true","","","",""
"","html-keyboard-response","293","397386","0.0-470.0","bsphs7xb","1920","1080","","","","","","","","","","","null","+","Fixation - short","","null","","","","","","","","","","","","","","","","",""
"","html-keyboard-response","294","398026","0.0-471.0","bsphs7xb","","","","","","","","","","","","","640","mda","Inducer trial","","f","","5","","","","true","","","","","j","0","","false","RIGHT","",""
"","call-function","295","398027","0.0-473.0-0.0","bsphs7xb","","","","","","","","","","","","","","","","","","","","","","","","","","","","","","","","","",""
"","html-keyboard-response","296","398339","0.0-473.0-1.0","bsphs7xb","1920","1080","","","","","","","","","","","null","Wrong","Feedback","","null","","","","","","","","","","","","","","","","",""
"","call-function","297","398339","0.0-473.0-2.0","bsphs7xb","","","","","","","","","","","","","","","","","","","","","","","","","","","","","","","","","",""
"","html-keyboard-response","298","399100","0.0-474.0","bsphs7xb","1920","1080","","","","","","","","","","","null","+","Fixation - short","","null","","","","","","","","","","","","","","","","",""
"","html-keyboard-response","299","402163","0.0-475.0","bsphs7xb","","","","","","","","","","","","","3062","If idy press RIGHT | If vsc press LEFT","Inducer instructions",""," ","","6","","","","","","","","","","","","","","",""
"","html-keyboard-response","300","402928","0.0-476.0","bsphs7xb","1920","1080","","","","","","","","","","","null","+","Fixation - short","","null","","","","","","","","","","","","","","","","",""
"","html-keyboard-response","301","403625","0.0-477.0","bsphs7xb","","","","","","","","","","","","","697","vsc","Diagnostic trial","","f","","6","0","10","false","false","false","both pre & post","LEFT","LEFT","f","1","true","","","",""
"","html-keyboard-response","302","404377","0.0-480.0","bsphs7xb","1920","1080","","","","","","","","","","","null","+","Fixation - short","","null","","","","","","","","","","","","","","","","",""
"","html-keyboard-response","303","405027","0.0-481.0","bsphs7xb","","","","","","","","","","","","","650","vsc","Diagnostic trial","","j","","6","1","10","false","false","true","both pre & post","LEFT","RIGHT","j","1","false","","","",""
"","html-keyboard-response","304","405787","0.0-484.0","bsphs7xb","1920","1080","","","","","","","","","","","null","+","Fixation - short","","null","","","","","","","","","","","","","","","","",""
"","html-keyboard-response","305","406604","0.0-485.0","bsphs7xb","","","","","","","","","","","","","817","vsc","Diagnostic trial","","j","","6","2","10","false","false","true","both pre & post","LEFT","RIGHT","j","1","false","","","",""
"","html-keyboard-response","306","407360","0.0-488.0","bsphs7xb","1920","1080","","","","","","","","","","","null","+","Fixation - short","","null","","","","","","","","","","","","","","","","",""
"","html-keyboard-response","307","408147","0.0-489.0","bsphs7xb","","","","","","","","","","","","","786","idy","Diagnostic trial","","f","","6","3","10","false","false","false","both pre & post","RIGHT","LEFT","f","1","false","","","",""
"","html-keyboard-response","308","408909","0.0-492.0","bsphs7xb","1920","1080","","","","","","","","","","","null","+","Fixation - short","","null","","","","","","","","","","","","","","","","",""
"","html-keyboard-response","309","409659","0.0-493.0","bsphs7xb","","","","","","","","","","","","","750","vsc","Diagnostic trial","","f","","6","4","10","false","false","false","both pre & post","LEFT","LEFT","f","1","true","","","",""
"","html-keyboard-response","310","410426","0.0-496.0","bsphs7xb","1920","1080","","","","","","","","","","","null","+","Fixation - short","","null","","","","","","","","","","","","","","","","",""
"","html-keyboard-response","311","410861","0.0-497.0","bsphs7xb","","","","","","","","","","","","","435","vsc","Diagnostic trial","","f","","6","5","10","false","false","false","both pre & post","LEFT","LEFT","f","1","true","","","",""
"","html-keyboard-response","312","411613","0.0-500.0","bsphs7xb","1920","1080","","","","","","","","","","","null","+","Fixation - short","","null","","","","","","","","","","","","","","","","",""
"","html-keyboard-response","313","412193","0.0-501.0","bsphs7xb","","","","","","","","","","","","","580","idy","Diagnostic trial","","f","","6","6","10","false","false","false","both pre & post","RIGHT","LEFT","f","1","false","","","",""
"","html-keyboard-response","314","412958","0.0-504.0","bsphs7xb","1920","1080","","","","","","","","","","","null","+","Fixation - short","","null","","","","","","","","","","","","","","","","",""
"","html-keyboard-response","315","413592","0.0-505.0","bsphs7xb","","","","","","","","","","","","","634","vsc","Diagnostic trial","","j","","6","7","10","false","false","true","both pre & post","LEFT","RIGHT","j","1","false","","","",""
"","html-keyboard-response","316","414351","0.0-508.0","bsphs7xb","1920","1080","","","","","","","","","","","null","+","Fixation - short","","null","","","","","","","","","","","","","","","","",""
"","html-keyboard-response","317","415052","0.0-509.0","bsphs7xb","","","","","","","","","","","","","701","idy","Diagnostic trial","","f","","6","8","10","false","false","false","both pre & post","RIGHT","LEFT","f","1","false","","","",""
"","html-keyboard-response","318","415817","0.0-512.0","bsphs7xb","1920","1080","","","","","","","","","","","null","+","Fixation - short","","null","","","","","","","","","","","","","","","","",""
"","html-keyboard-response","319","416615","0.0-513.0","bsphs7xb","","","","","","","","","","","","","798","vsc","Diagnostic trial","","j","","6","9","10","false","false","true","both pre & post","LEFT","RIGHT","j","1","false","","","",""
"","html-keyboard-response","320","417368","0.0-516.0","bsphs7xb","1920","1080","","","","","","","","","","","null","+","Fixation - short","","null","","","","","","","","","","","","","","","","",""
"","canvas-keyboard-response","321","418627","0.0-517.0","bsphs7xb","","","","","","","","","","","","","null","Cue","Cue","","null","","6","9","","","false","","","","","","","","","","",""
"","html-keyboard-response","322","419378","0.0-518.0","bsphs7xb","1920","1080","","","","","","","","","","","null","+","Fixation - short","","null","","","","","","","","","","","","","","","","",""
"","html-keyboard-response","323","419980","0.0-519.0","bsphs7xb","","","","","","","","","","","","","602","idy","Diagnostic trial","","j","","6","10","10","true","false","true","both pre & post","RIGHT","RIGHT","j","1","true","","","",""
"","html-keyboard-response","324","420733","0.0-522.0","bsphs7xb","1920","1080","","","","","","","","","","","null","+","Fixation - short","","null","","","","","","","","","","","","","","","","",""
"","html-keyboard-response","325","421272","0.0-523.0","bsphs7xb","","","","","","","","","","","","","538","vsc","Diagnostic trial","","f","","6","11","10","true","false","false","both pre & post","LEFT","LEFT","f","1","true","","","",""
"","html-keyboard-response","326","422028","0.0-526.0","bsphs7xb","1920","1080","","","","","","","","","","","null","+","Fixation - short","","null","","","","","","","","","","","","","","","","",""
"","html-keyboard-response","327","422760","0.0-527.0","bsphs7xb","","","","","","","","","","","","","732","idy","Diagnostic trial","","j","","6","12","10","true","false","true","both pre & post","RIGHT","RIGHT","j","1","true","","","",""
"","html-keyboard-response","328","423517","0.0-530.0","bsphs7xb","1920","1080","","","","","","","","","","","null","+","Fixation - short","","null","","","","","","","","","","","","","","","","",""
"","html-keyboard-response","329","424126","0.0-531.0","bsphs7xb","","","","","","","","","","","","","609","idy","Diagnostic trial","","j","","6","13","10","true","false","true","both pre & post","RIGHT","RIGHT","j","1","true","","","",""
"","html-keyboard-response","330","424881","0.0-534.0","bsphs7xb","1920","1080","","","","","","","","","","","null","+","Fixation - short","","null","","","","","","","","","","","","","","","","",""
"","html-keyboard-response","331","425999","0.0-535.0","bsphs7xb","","","","","","","","","","","","","1118","vsc","Inducer trial","","f","","6","","","","true","","","","","f","1","","false","LEFT","",""
"","html-keyboard-response","332","426763","0.0-538.0","bsphs7xb","1920","1080","","","","","","","","","","","null","+","Fixation - short","","null","","","","","","","","","","","","","","","","",""
"","html-keyboard-response","333","429605","0.0-539.0","bsphs7xb","","","","","","","","","","","","","2841","If eeu press RIGHT | If zpl press LEFT","Inducer instructions",""," ","","7","","","","","","","","","","","","","","",""
"","html-keyboard-response","334","430365","0.0-540.0","bsphs7xb","1920","1080","","","","","","","","","","","null","+","Fixation - short","","null","","","","","","","","","","","","","","","","",""
"","html-keyboard-response","335","431092","0.0-541.0","bsphs7xb","","","","","","","","","","","","","727","eeu","Diagnostic trial","","f","","7","0","7","false","false","false","both pre & post","RIGHT","LEFT","f","1","false","","","",""
"","html-keyboard-response","336","431852","0.0-544.0","bsphs7xb","1920","1080","","","","","","","","","","","null","+","Fixation - short","","null","","","","","","","","","","","","","","","","",""
"","html-keyboard-response","337","432429","0.0-545.0","bsphs7xb","","","","","","","","","","","","","577","eeu","Diagnostic trial","","j","","7","1","7","false","false","true","both pre & post","RIGHT","RIGHT","j","1","true","","","",""
"","html-keyboard-response","338","433191","0.0-548.0","bsphs7xb","1920","1080","","","","","","","","","","","null","+","Fixation - short","","null","","","","","","","","","","","","","","","","",""
"","html-keyboard-response","339","433711","0.0-549.0","bsphs7xb","","","","","","","","","","","","","520","eeu","Diagnostic trial","","j","","7","2","7","false","false","true","both pre & post","RIGHT","RIGHT","j","1","true","","","",""
"","html-keyboard-response","340","434476","0.0-552.0","bsphs7xb","1920","1080","","","","","","","","","","","null","+","Fixation - short","","null","","","","","","","","","","","","","","","","",""
"","html-keyboard-response","341","435093","0.0-553.0","bsphs7xb","","","","","","","","","","","","","616","eeu","Diagnostic trial","","f","","7","3","7","false","false","false","both pre & post","RIGHT","LEFT","f","1","false","","","",""
"","html-keyboard-response","342","435847","0.0-556.0","bsphs7xb","1920","1080","","","","","","","","","","","null","+","Fixation - short","","null","","","","","","","","","","","","","","","","",""
"","html-keyboard-response","343","436375","0.0-557.0","bsphs7xb","","","","","","","","","","","","","527","eeu","Diagnostic trial","","f","","7","4","7","false","false","false","both pre & post","RIGHT","LEFT","f","1","false","","","",""
"","html-keyboard-response","344","437127","0.0-560.0","bsphs7xb","1920","1080","","","","","","","","","","","null","+","Fixation - short","","null","","","","","","","","","","","","","","","","",""
"","html-keyboard-response","345","437582","0.0-561.0","bsphs7xb","","","","","","","","","","","","","454","eeu","Diagnostic trial","","f","","7","5","7","false","false","false","both pre & post","RIGHT","LEFT","f","1","false","","","",""
"","html-keyboard-response","346","438340","0.0-564.0","bsphs7xb","1920","1080","","","","","","","","","","","null","+","Fixation - short","","null","","","","","","","","","","","","","","","","",""
"","html-keyboard-response","347","438803","0.0-565.0","bsphs7xb","","","","","","","","","","","","","463","eeu","Diagnostic trial","","j","","7","6","7","false","false","true","both pre & post","RIGHT","RIGHT","j","1","true","","","",""
"","html-keyboard-response","348","439556","0.0-568.0","bsphs7xb","1920","1080","","","","","","","","","","","null","+","Fixation - short","","null","","","","","","","","","","","","","","","","",""
"","canvas-keyboard-response","349","440822","0.0-569.0","bsphs7xb","","","","","","","","","","","","","null","Cue","Cue","","null","","7","6","","","false","","","","","","","","","","",""
"","html-keyboard-response","350","441587","0.0-570.0","bsphs7xb","1920","1080","","","","","","","","","","","null","+","Fixation - short","","null","","","","","","","","","","","","","","","","",""
"","html-keyboard-response","351","442324","0.0-571.0","bsphs7xb","","","","","","","","","","","","","736","eeu","Diagnostic trial","","f","","7","7","7","true","false","false","both pre & post","RIGHT","LEFT","f","1","false","","","",""
"","html-keyboard-response","352","443082","0.0-574.0","bsphs7xb","1920","1080","","","","","","","","","","","null","+","Fixation - short","","null","","","","","","","","","","","","","","","","",""
"","html-keyboard-response","353","443670","0.0-575.0","bsphs7xb","","","","","","","","","","","","","588","zpl","Diagnostic trial","","f","","7","8","7","true","false","false","both pre & post","LEFT","LEFT","f","1","true","","","",""
"","html-keyboard-response","354","444422","0.0-578.0","bsphs7xb","1920","1080","","","","","","","","","","","null","+","Fixation - short","","null","","","","","","","","","","","","","","","","",""
"","html-keyboard-response","355","445458","0.0-579.0","bsphs7xb","","","","","","","","","","","","","1035","zpl","Inducer trial","","f","","7","","","","true","","","","","f","1","","false","LEFT","",""
"","html-keyboard-response","356","446212","0.0-582.0","bsphs7xb","1920","1080","","","","","","","","","","","null","+","Fixation - short","","null","","","","","","","","","","","","","","","","",""
"","html-keyboard-response","357","447131","0.0-583.0","bsphs7xb","","","","","","","","","","","","","919","If drk press RIGHT | If gso press LEFT","Inducer instructions",""," ","","8","","","","","","","","","","","","","","",""
"","html-keyboard-response","358","447892","0.0-584.0","bsphs7xb","1920","1080","","","","","","","","","","","null","+","Fixation - short","","null","","","","","","","","","","","","","","","","",""
"","html-keyboard-response","359","448438","0.0-585.0","bsphs7xb","","","","","","","","","","","","","545","gso","Diagnostic trial","","f","","8","0","4","false","false","false","both pre & post","LEFT","LEFT","f","1","true","","","",""
"","html-keyboard-response","360","449189","0.0-588.0","bsphs7xb","1920","1080","","","","","","","","","","","null","+","Fixation - short","","null","","","","","","","","","","","","","","","","",""
"","html-keyboard-response","361","449619","0.0-589.0","bsphs7xb","","","","","","","","","","","","","430","gso","Diagnostic trial","","f","","8","1","4","false","false","false","both pre & post","LEFT","LEFT","f","1","true","","","",""
"","html-keyboard-response","362","450379","0.0-592.0","bsphs7xb","1920","1080","","","","","","","","","","","null","+","Fixation - short","","null","","","","","","","","","","","","","","","","",""
"","html-keyboard-response","363","450866","0.0-593.0","bsphs7xb","","","","","","","","","","","","","487","drk","Diagnostic trial","","f","","8","2","4","false","false","false","both pre & post","RIGHT","LEFT","f","1","false","","","",""
"","html-keyboard-response","364","451626","0.0-596.0","bsphs7xb","1920","1080","","","","","","","","","","","null","+","Fixation - short","","null","","","","","","","","","","","","","","","","",""
"","html-keyboard-response","365","452354","0.0-597.0","bsphs7xb","","","","","","","","","","","","","727","gso","Diagnostic trial","","j","","8","3","4","false","false","true","both pre & post","LEFT","RIGHT","j","1","false","","","",""
"","html-keyboard-response","366","453108","0.0-600.0","bsphs7xb","1920","1080","","","","","","","","","","","null","+","Fixation - short","","null","","","","","","","","","","","","","","","","",""
"","canvas-keyboard-response","367","454374","0.0-601.0","bsphs7xb","","","","","","","","","","","","","null","Cue","Cue","","null","","8","3","","","false","","","","","","","","","","",""
"","html-keyboard-response","368","455137","0.0-602.0","bsphs7xb","1920","1080","","","","","","","","","","","null","+","Fixation - short","","null","","","","","","","","","","","","","","","","",""
"","html-keyboard-response","369","455724","0.0-603.0","bsphs7xb","","","","","","","","","","","","","587","gso","Diagnostic trial","","j","","8","4","4","true","false","true","both pre & post","LEFT","RIGHT","j","1","false","","","",""
"","html-keyboard-response","370","456475","0.0-606.0","bsphs7xb","1920","1080","","","","","","","","","","","null","+","Fixation - short","","null","","","","","","","","","","","","","","","","",""
"","html-keyboard-response","371","457141","0.0-607.0","bsphs7xb","","","","","","","","","","","","","666","gso","Inducer trial","","f","","8","","","","true","","","","","f","1","","false","LEFT","",""
"","html-keyboard-response","372","457903","0.0-610.0","bsphs7xb","1920","1080","","","","","","","","","","","null","+","Fixation - short","","null","","","","","","","","","","","","","","","","",""
"","html-keyboard-response","373","460486","0.0-611.0","bsphs7xb","","","","","","","","","","","","","2583","If gdn press RIGHT | If xlv press LEFT","Inducer instructions",""," ","","9","","","","","","","","","","","","","","",""
"","html-keyboard-response","374","461242","0.0-612.0","bsphs7xb","1920","1080","","","","","","","","","","","null","+","Fixation - short","","null","","","","","","","","","","","","","","","","",""
"","html-keyboard-response","375","461873","0.0-613.0","bsphs7xb","","","","","","","","","","","","","631","xlv","Diagnostic trial","","f","","9","0","10","false","false","false","both pre & post","LEFT","LEFT","f","1","true","","","",""
"","html-keyboard-response","376","462637","0.0-616.0","bsphs7xb","1920","1080","","","","","","","","","","","null","+","Fixation - short","","null","","","","","","","","","","","","","","","","",""
"","html-keyboard-response","377","463075","0.0-617.0","bsphs7xb","","","","","","","","","","","","","437","xlv","Diagnostic trial","","f","","9","1","10","false","false","false","both pre & post","LEFT","LEFT","f","1","true","","","",""
"","html-keyboard-response","378","463833","0.0-620.0","bsphs7xb","1920","1080","","","","","","","","","","","null","+","Fixation - short","","null","","","","","","","","","","","","","","","","",""
"","html-keyboard-response","379","464282","0.0-621.0","bsphs7xb","","","","","","","","","","","","","448","xlv","Diagnostic trial","","j","","9","2","10","false","false","true","both pre & post","LEFT","RIGHT","j","1","false","","","",""
"","html-keyboard-response","380","465032","0.0-624.0","bsphs7xb","1920","1080","","","","","","","","","","","null","+","Fixation - short","","null","","","","","","","","","","","","","","","","",""
"","html-keyboard-response","381","466130","0.0-625.0","bsphs7xb","","","","","","","","","","","","","1097","xlv","Diagnostic trial","","f","","9","3","10","false","false","false","both pre & post","LEFT","LEFT","f","1","true","","","",""
"","html-keyboard-response","382","466885","0.0-628.0","bsphs7xb","1920","1080","","","","","","","","","","","null","+","Fixation - short","","null","","","","","","","","","","","","","","","","",""
"","html-keyboard-response","383","467506","0.0-629.0","bsphs7xb","","","","","","","","","","","","","621","gdn","Diagnostic trial","","j","","9","4","10","false","false","true","both pre & post","RIGHT","RIGHT","j","1","true","","","",""
"","html-keyboard-response","384","468267","0.0-632.0","bsphs7xb","1920","1080","","","","","","","","","","","null","+","Fixation - short","","null","","","","","","","","","","","","","","","","",""
"","html-keyboard-response","385","469276","0.0-633.0","bsphs7xb","","","","","","","","","","","","","1009","xlv","Diagnostic trial","","f","","9","5","10","false","false","false","both pre & post","LEFT","LEFT","f","1","true","","","",""
"","html-keyboard-response","386","470035","0.0-636.0","bsphs7xb","1920","1080","","","","","","","","","","","null","+","Fixation - short","","null","","","","","","","","","","","","","","","","",""
"","html-keyboard-response","387","470792","0.0-637.0","bsphs7xb","","","","","","","","","","","","","756","xlv","Diagnostic trial","","j","","9","6","10","false","false","true","both pre & post","LEFT","RIGHT","j","1","false","","","",""
"","html-keyboard-response","388","471553","0.0-640.0","bsphs7xb","1920","1080","","","","","","","","","","","null","+","Fixation - short","","null","","","","","","","","","","","","","","","","",""
"","html-keyboard-response","389","472181","0.0-641.0","bsphs7xb","","","","","","","","","","","","","627","gdn","Diagnostic trial","","f","","9","7","10","false","false","false","both pre & post","RIGHT","LEFT","f","1","false","","","",""
"","html-keyboard-response","390","472938","0.0-644.0","bsphs7xb","1920","1080","","","","","","","","","","","null","+","Fixation - short","","null","","","","","","","","","","","","","","","","",""
"","html-keyboard-response","391","473571","0.0-645.0","bsphs7xb","","","","","","","","","","","","","632","gdn","Diagnostic trial","","j","","9","8","10","false","false","true","both pre & post","RIGHT","RIGHT","j","1","true","","","",""
"","html-keyboard-response","392","474332","0.0-648.0","bsphs7xb","1920","1080","","","","","","","","","","","null","+","Fixation - short","","null","","","","","","","","","","","","","","","","",""
"","html-keyboard-response","393","475033","0.0-649.0","bsphs7xb","","","","","","","","","","","","","701","gdn","Diagnostic trial","","j","","9","9","10","false","false","true","both pre & post","RIGHT","RIGHT","j","1","true","","","",""
"","html-keyboard-response","394","475789","0.0-652.0","bsphs7xb","1920","1080","","","","","","","","","","","null","+","Fixation - short","","null","","","","","","","","","","","","","","","","",""
"","canvas-keyboard-response","395","477048","0.0-653.0","bsphs7xb","","","","","","","","","","","","","null","Cue","Cue","","null","","9","9","","","false","","","","","","","","","","",""
"","html-keyboard-response","396","477809","0.0-654.0","bsphs7xb","1920","1080","","","","","","","","","","","null","+","Fixation - short","","null","","","","","","","","","","","","","","","","",""
"","html-keyboard-response","397","478468","0.0-655.0","bsphs7xb","","","","","","","","","","","","","658","gdn","Diagnostic trial","","j","","9","10","10","true","false","true","both pre & post","RIGHT","RIGHT","j","1","true","","","",""
"","html-keyboard-response","398","479229","0.0-658.0","bsphs7xb","1920","1080","","","","","","","","","","","null","+","Fixation - short","","null","","","","","","","","","","","","","","","","",""
"","html-keyboard-response","399","479780","0.0-659.0","bsphs7xb","","","","","","","","","","","","","550","xlv","Diagnostic trial","","j","","9","11","10","true","false","true","both pre & post","LEFT","RIGHT","j","1","false","","","",""
"","html-keyboard-response","400","480540","0.0-662.0","bsphs7xb","1920","1080","","","","","","","","","","","null","+","Fixation - short","","null","","","","","","","","","","","","","","","","",""
"","html-keyboard-response","401","481147","0.0-663.0","bsphs7xb","","","","","","","","","","","","","606","gdn","Diagnostic trial","","j","","9","12","10","true","false","true","both pre & post","RIGHT","RIGHT","j","1","true","","","",""
"","html-keyboard-response","402","481899","0.0-666.0","bsphs7xb","1920","1080","","","","","","","","","","","null","+","Fixation - short","","null","","","","","","","","","","","","","","","","",""
"","html-keyboard-response","403","482319","0.0-667.0","bsphs7xb","","","","","","","","","","","","","419","gdn","Diagnostic trial","","j","","9","13","10","true","false","true","both pre & post","RIGHT","RIGHT","j","1","true","","","",""
"","html-keyboard-response","404","483070","0.0-670.0","bsphs7xb","1920","1080","","","","","","","","","","","null","+","Fixation - short","","null","","","","","","","","","","","","","","","","",""
"","html-keyboard-response","405","483676","0.0-671.0","bsphs7xb","","","","","","","","","","","","","605","xlv","Inducer trial","","f","","9","","","","true","","","","","f","1","","false","LEFT","",""
"","html-keyboard-response","406","484429","0.0-674.0","bsphs7xb","1920","1080","","","","","","","","","","","null","+","Fixation - short","","null","","","","","","","","","","","","","","","","",""
"","html-keyboard-response","407","486551","0.0-675.0","bsphs7xb","","","","","","","","","","","","","2121","If psl press RIGHT | If lff press LEFT","Inducer instructions",""," ","","10","","","","","","","","","","","","","","",""
"","html-keyboard-response","408","487302","0.0-676.0","bsphs7xb","1920","1080","","","","","","","","","","","null","+","Fixation - short","","null","","","","","","","","","","","","","","","","",""
"","html-keyboard-response","409","487807","0.0-677.0","bsphs7xb","","","","","","","","","","","","","505","lff","Diagnostic trial","","f","","10","0","11","false","false","false","both pre & post","LEFT","LEFT","f","1","true","","","",""
"","html-keyboard-response","410","488567","0.0-680.0","bsphs7xb","1920","1080","","","","","","","","","","","null","+","Fixation - short","","null","","","","","","","","","","","","","","","","",""
"","html-keyboard-response","411","489010","0.0-681.0","bsphs7xb","","","","","","","","","","","","","442","lff","Diagnostic trial","","f","","10","1","11","false","false","false","both pre & post","LEFT","LEFT","f","1","true","","","",""
"","html-keyboard-response","412","489773","0.0-684.0","bsphs7xb","1920","1080","","","","","","","","","","","null","+","Fixation - short","","null","","","","","","","","","","","","","","","","",""
"","html-keyboard-response","413","490266","0.0-685.0","bsphs7xb","","","","","","","","","","","","","492","psl","Diagnostic trial","","f","","10","2","11","false","false","false","both pre & post","RIGHT","LEFT","f","1","false","","","",""
"","html-keyboard-response","414","491032","0.0-688.0","bsphs7xb","1920","1080","","","","","","","","","","","null","+","Fixation - short","","null","","","","","","","","","","","","","","","","",""
"","html-keyboard-response","415","491410","0.0-689.0","bsphs7xb","","","","","","","","","","","","","377","psl","Diagnostic trial","","f","","10","3","11","false","false","false","both pre & post","RIGHT","LEFT","f","1","false","","","",""
"","html-keyboard-response","416","492170","0.0-692.0","bsphs7xb","1920","1080","","","","","","","","","","","null","+","Fixation - short","","null","","","","","","","","","","","","","","","","",""
"","html-keyboard-response","417","492585","0.0-693.0","bsphs7xb","","","","","","","","","","","","","415","psl","Diagnostic trial","","f","","10","4","11","false","false","false","both pre & post","RIGHT","LEFT","f","1","false","","","",""
"","html-keyboard-response","418","493337","0.0-696.0","bsphs7xb","1920","1080","","","","","","","","","","","null","+","Fixation - short","","null","","","","","","","","","","","","","","","","",""
"","html-keyboard-response","419","493714","0.0-697.0","bsphs7xb","","","","","","","","","","","","","377","lff","Diagnostic trial","","f","","10","5","11","false","false","false","both pre & post","LEFT","LEFT","f","1","true","","","",""
"","html-keyboard-response","420","494472","0.0-700.0","bsphs7xb","1920","1080","","","","","","","","","","","null","+","Fixation - short","","null","","","","","","","","","","","","","","","","",""
"","html-keyboard-response","421","494924","0.0-701.0","bsphs7xb","","","","","","","","","","","","","451","psl","Diagnostic trial","","f","","10","6","11","false","false","false","both pre & post","RIGHT","LEFT","f","1","false","","","",""
"","html-keyboard-response","422","495688","0.0-704.0","bsphs7xb","1920","1080","","","","","","","","","","","null","+","Fixation - short","","null","","","","","","","","","","","","","","","","",""
"","html-keyboard-response","423","496076","0.0-705.0","bsphs7xb","","","","","","","","","","","","","387","lff","Diagnostic trial","","f","","10","7","11","false","false","false","both pre & post","LEFT","LEFT","f","1","true","","","",""
"","html-keyboard-response","424","496841","0.0-708.0","bsphs7xb","1920","1080","","","","","","","","","","","null","+","Fixation - short","","null","","","","","","","","","","","","","","","","",""
"","html-keyboard-response","425","497220","0.0-709.0","bsphs7xb","","","","","","","","","","","","","379","lff","Diagnostic trial","","f","","10","8","11","false","false","false","both pre & post","LEFT","LEFT","f","1","true","","","",""
"","html-keyboard-response","426","497978","0.0-712.0","bsphs7xb","1920","1080","","","","","","","","","","","null","+","Fixation - short","","null","","","","","","","","","","","","","","","","",""
"","html-keyboard-response","427","498324","0.0-713.0","bsphs7xb","","","","","","","","","","","","","345","lff","Diagnostic trial","","f","","10","9","11","false","false","false","both pre & post","LEFT","LEFT","f","1","true","","","",""
"","html-keyboard-response","428","499089","0.0-716.0","bsphs7xb","1920","1080","","","","","","","","","","","null","+","Fixation - short","","null","","","","","","","","","","","","","","","","",""
"","html-keyboard-response","429","499792","0.0-717.0","bsphs7xb","","","","","","","","","","","","","702","psl","Diagnostic trial","","j","","10","10","11","false","false","true","both pre & post","RIGHT","RIGHT","j","1","true","","","",""
"","html-keyboard-response","430","500544","0.0-720.0","bsphs7xb","1920","1080","","","","","","","","","","","null","+","Fixation - short","","null","","","","","","","","","","","","","","","","",""
"","canvas-keyboard-response","431","501804","0.0-721.0","bsphs7xb","","","","","","","","","","","","","null","Cue","Cue","","null","","10","10","","","false","","","","","","","","","","",""
"","html-keyboard-response","432","502570","0.0-722.0","bsphs7xb","1920","1080","","","","","","","","","","","null","+","Fixation - short","","null","","","","","","","","","","","","","","","","",""
"","html-keyboard-response","433","503156","0.0-723.0","bsphs7xb","","","","","","","","","","","","","587","lff","Diagnostic trial","","f","","10","11","11","true","false","false","both pre & post","LEFT","LEFT","f","1","true","","","",""
"","html-keyboard-response","434","503912","0.0-726.0","bsphs7xb","1920","1080","","","","","","","","","","","null","+","Fixation - short","","null","","","","","","","","","","","","","","","","",""
"","html-keyboard-response","435","504684","0.0-727.0","bsphs7xb","","","","","","","","","","","","","771","lff","Inducer trial","","f","","10","","","","true","","","","","f","1","","false","LEFT","",""
"","html-keyboard-response","436","505446","0.0-730.0","bsphs7xb","1920","1080","","","","","","","","","","","null","+","Fixation - short","","null","","","","","","","","","","","","","","","","",""
"","html-keyboard-response","437","506171","0.0-731.0","bsphs7xb","","","","","","","","","","","","","725","If oez press RIGHT | If dof press LEFT","Inducer instructions",""," ","","11","","","","","","","","","","","","","","",""
"","html-keyboard-response","438","506935","0.0-732.0","bsphs7xb","1920","1080","","","","","","","","","","","null","+","Fixation - short","","null","","","","","","","","","","","","","","","","",""
"","html-keyboard-response","439","507754","0.0-733.0","bsphs7xb","","","","","","","","","","","","","818","oez","Diagnostic trial","","f","","11","0","6","false","false","false","both pre & post","RIGHT","LEFT","f","1","false","","","",""
"","html-keyboard-response","440","508513","0.0-736.0","bsphs7xb","1920","1080","","","","","","","","","","","null","+","Fixation - short","","null","","","","","","","","","","","","","","","","",""
"","html-keyboard-response","441","508981","0.0-737.0","bsphs7xb","","","","","","","","","","","","","468","oez","Diagnostic trial","","j","","11","1","6","false","false","true","both pre & post","RIGHT","RIGHT","j","1","true","","","",""
"","html-keyboard-response","442","509735","0.0-740.0","bsphs7xb","1920","1080","","","","","","","","","","","null","+","Fixation - short","","null","","","","","","","","","","","","","","","","",""
"","html-keyboard-response","443","510183","0.0-741.0","bsphs7xb","","","","","","","","","","","","","447","dof","Diagnostic trial","","f","","11","2","6","false","false","false","both pre & post","LEFT","LEFT","f","1","true","","","",""
"","html-keyboard-response","444","510938","0.0-744.0","bsphs7xb","1920","1080","","","","","","","","","","","null","+","Fixation - short","","null","","","","","","","","","","","","","","","","",""
"","html-keyboard-response","445","511430","0.0-745.0","bsphs7xb","","","","","","","","","","","","","491","oez","Diagnostic trial","","f","","11","3","6","false","false","false","both pre & post","RIGHT","LEFT","f","1","false","","","",""
"","html-keyboard-response","446","512186","0.0-748.0","bsphs7xb","1920","1080","","","","","","","","","","","null","+","Fixation - short","","null","","","","","","","","","","","","","","","","",""
"","html-keyboard-response","447","512587","0.0-749.0","bsphs7xb","","","","","","","","","","","","","401","oez","Diagnostic trial","","f","","11","4","6","false","false","false","both pre & post","RIGHT","LEFT","f","1","false","","","",""
"","html-keyboard-response","448","513349","0.0-752.0","bsphs7xb","1920","1080","","","","","","","","","","","null","+","Fixation - short","","null","","","","","","","","","","","","","","","","",""
"","html-keyboard-response","449","513829","0.0-753.0","bsphs7xb","","","","","","","","","","","","","480","oez","Diagnostic trial","","f","","11","5","6","false","false","true","both pre & post","RIGHT","RIGHT","j","0","true","","","",""
"","call-function","450","513829","0.0-755.0-0.0","bsphs7xb","","","","","","","","","","","","","","","","","","","","","","","","","","","","","","","","","",""
"","html-keyboard-response","451","514143","0.0-755.0-1.0","bsphs7xb","1920","1080","","","","","","","","","","","null","Wrong","Feedback","","null","","","","","","","","","","","","","","","","",""
"","call-function","452","514143","0.0-755.0-2.0","bsphs7xb","","","","","","","","","","","","","","","","","","","","","","","","","","","","","","","","","",""
"","html-keyboard-response","453","514906","0.0-756.0","bsphs7xb","1920","1080","","","","","","","","","","","null","+","Fixation - short","","null","","","","","","","","","","","","","","","","",""
"","canvas-keyboard-response","454","516163","0.0-757.0","bsphs7xb","","","","","","","","","","","","","null","Cue","Cue","","null","","11","5","","","false","","","","","","","","","","",""
"","html-keyboard-response","455","516914","0.0-758.0","bsphs7xb","1920","1080","","","","","","","","","","","null","+","Fixation - short","","null","","","","","","","","","","","","","","","","",""
"","html-keyboard-response","456","517479","0.0-759.0","bsphs7xb","","","","","","","","","","","","","565","dof","Diagnostic trial","","f","","11","6","6","true","false","false","both pre & post","LEFT","LEFT","f","1","true","","","",""
"","html-keyboard-response","457","518238","0.0-762.0","bsphs7xb","1920","1080","","","","","","","","","","","null","+","Fixation - short","","null","","","","","","","","","","","","","","","","",""
"","html-keyboard-response","458","519072","0.0-763.0","bsphs7xb","","","","","","","","","","","","","834","oez","Diagnostic trial","","j","","11","7","6","true","false","false","both pre & post","RIGHT","LEFT","f","0","false","","","",""
"","call-function","459","519072","0.0-765.0-0.0","bsphs7xb","","","","","","","","","","","","","","","","","","","","","","","","","","","","","","","","","",""
