"value","trial_type","trial_index","time_elapsed","internal_node_id","id","width","height","webaudio","browser","browser_version","mobile","os","fullscreen","vsync_rate","webcam","microphone","view_history","rt","stimulus","trial_info","success","response","exp_parameters","inducer_run","diagnostic_run","cue_num","post_cue","inducer_trial","italic","forced_equal_run","correct_inducer_response_side","correct_diag_response_side","correct_response_key","correct_response","congruent","force_equal","correct_indu_response_side","accuracy","interactive"
"","call-function","0","4","0.0-0.0","tp93v20v","","","","","","","","","","","","","","","","","","","","","","","","","","","","","","","","","",""
"","browser-check","1","1009","0.0-1.0","tp93v20v","1280","559","true","chrome","123.0.0","false","Windows 10","true","60.25","true","true","","","","","","","","","","","","","","","","","","","","","","",""
"","instructions","2","37171","0.0-2.0","tp93v20v","","","","","","","","","","","","[{""page_index"":0,""viewing_time"":28120},{""page_index"":1,""viewing_time"":6888},{""page_index"":2,""viewing_time"":1151}]","36159","The experiment and consent","The experiment and consent","","","","","","","","","","","","","","","","","","",""
"","fullscreen","3","39625","0.0-3.0","tp93v20v","","","","","","","","","","","","","1447","","Full screen","true","","","","","","","","","","","","","","","","","",""
"","instructions","4","58298","0.0-4.0","tp93v20v","","","","","","","","","","","","[{""page_index"":0,""viewing_time"":1928},{""page_index"":1,""viewing_time"":2456},{""page_index"":0,""viewing_time"":7240},{""page_index"":1,""viewing_time"":7048}]","18672","Instructions","Basic overview explanation","","","","","","","","","","","","","","","","","","",""
"","html-keyboard-response","5","69820","0.0-5.0","tp93v20v","","","","","","","","","","","","","10008","If italic press LEFT | If upright press RIGHT","Diagnostic instructions",""," ","{""debug"":false,""skip_instructions"":false,""skip_practice"":false,""save_local_data"":false,""studu_name"":""exp2"",""default_background_colour"":""#cccccc"",""wrong_response_colour"":""#d22d2d"",""instruction_delay"":20000,""trial_duration"":2000,""short_fixation"":750,""long_fixation"":1500,""wrong_response_delay"":300,""too_slow_delay"":300,""instruction_font_size"":""24px"",""general_font_size"":""42px"",""fixation_size"":""48px"",""allowed_responses"":[""f"",""j""],""cue_min_length"":0,""cue_max_length"":4,""tot_post_cue_len"":72,""cue_colour"":""yellow"",""cue_shape"":""Circle"",""cue_size"":70,""cue_duration"":1250,""avg_number_of_cues"":3,""inducer_colour"":""red"",""number_of_inducers"":24,""pre_cue_italic_forced_equal"":true,""post_cue_italic_forced_equal"":true,""prac_diagnostic_rounds"":16,""prac_inducer_rounds"":6,""prac_cue_rounds"":16,""prac_post_cue_num"":3}","","","","","","","","","","","","","","","",""
"","html-keyboard-response","6","70584","0.0-6.0","tp93v20v","1280","720","","","","","","","","","","","null","+","Fixation - short","","null","","","","","","","","","","","","","","","","",""
"","html-keyboard-response","7","71315","0.0-7.0","tp93v20v","","","","","","","","","","","","","729","guf","Diagnostic practice","","f","","Diagnostic practice","0","-84","true","false","true","prac equal","LEFT","LEFT","f","1","true","","","",""
"","html-keyboard-response","8","72080","0.0-10.0","tp93v20v","1280","720","","","","","","","","","","","null","+","Fixation - short","","null","","","","","","","","","","","","","","","","",""
"","html-keyboard-response","9","72596","0.0-11.0","tp93v20v","","","","","","","","","","","","","514","hfs","Diagnostic practice","","j","","Diagnostic practice","1","-84","true","false","false","prac equal","RIGHT","RIGHT","j","1","true","","","",""
"","html-keyboard-response","10","73353","0.0-14.0","tp93v20v","1280","720","","","","","","","","","","","null","+","Fixation - short","","null","","","","","","","","","","","","","","","","",""
"","html-keyboard-response","11","73873","0.0-15.0","tp93v20v","","","","","","","","","","","","","518","hfs","Diagnostic practice","","j","","Diagnostic practice","2","-84","true","false","true","prac equal","RIGHT","LEFT","f","0","false","","","",""
"","call-function","12","73874","0.0-17.0-0.0","tp93v20v","","","","","","","","","","","","","","","","","","","","","","","","","","","","","","","","","",""
"","html-keyboard-response","13","74184","0.0-17.0-1.0","tp93v20v","1280","720","","","","","","","","","","","null","Wrong","Feedback","","null","","","","","","","","","","","","","","","","",""
"","call-function","14","74185","0.0-17.0-2.0","tp93v20v","","","","","","","","","","","","","","","","","","","","","","","","","","","","","","","","","",""
"","html-keyboard-response","15","74941","0.0-18.0","tp93v20v","1280","720","","","","","","","","","","","null","+","Fixation - short","","null","","","","","","","","","","","","","","","","",""
"","html-keyboard-response","16","75544","0.0-19.0","tp93v20v","","","","","","","","","","","","","601","hfs","Diagnostic practice","","f","","Diagnostic practice","3","-84","true","false","true","prac equal","RIGHT","LEFT","f","1","false","","","",""
"","html-keyboard-response","17","76303","0.0-22.0","tp93v20v","1280","720","","","","","","","","","","","null","+","Fixation - short","","null","","","","","","","","","","","","","","","","",""
"","html-keyboard-response","18","76932","0.0-23.0","tp93v20v","","","","","","","","","","","","","629","guf","Diagnostic practice","","j","","Diagnostic practice","4","-84","true","false","false","prac equal","LEFT","RIGHT","j","1","false","","","",""
"","html-keyboard-response","19","77698","0.0-26.0","tp93v20v","1280","720","","","","","","","","","","","null","+","Fixation - short","","null","","","","","","","","","","","","","","","","",""
"","html-keyboard-response","20","78223","0.0-27.0","tp93v20v","","","","","","","","","","","","","524","guf","Diagnostic practice","","j","","Diagnostic practice","5","-84","true","false","false","prac equal","LEFT","RIGHT","j","1","false","","","",""
"","html-keyboard-response","21","78982","0.0-30.0","tp93v20v","1280","720","","","","","","","","","","","null","+","Fixation - short","","null","","","","","","","","","","","","","","","","",""
"","html-keyboard-response","22","79657","0.0-31.0","tp93v20v","","","","","","","","","","","","","673","hfs","Diagnostic practice","","j","","Diagnostic practice","6","-84","true","false","false","prac equal","RIGHT","RIGHT","j","1","true","","","",""
"","html-keyboard-response","23","80413","0.0-34.0","tp93v20v","1280","720","","","","","","","","","","","null","+","Fixation - short","","null","","","","","","","","","","","","","","","","",""
"","html-keyboard-response","24","80871","0.0-35.0","tp93v20v","","","","","","","","","","","","","456","guf","Diagnostic practice","","f","","Diagnostic practice","7","-84","true","false","true","prac equal","LEFT","LEFT","f","1","true","","","",""
"","html-keyboard-response","25","81634","0.0-38.0","tp93v20v","1280","720","","","","","","","","","","","null","+","Fixation - short","","null","","","","","","","","","","","","","","","","",""
"","html-keyboard-response","26","82104","0.0-39.0","tp93v20v","","","","","","","","","","","","","468","hfs","Diagnostic practice","","f","","Diagnostic practice","8","-84","true","false","true","prac equal","RIGHT","LEFT","f","1","false","","","",""
"","html-keyboard-response","27","82864","0.0-42.0","tp93v20v","1280","720","","","","","","","","","","","null","+","Fixation - short","","null","","","","","","","","","","","","","","","","",""
"","html-keyboard-response","28","83361","0.0-43.0","tp93v20v","","","","","","","","","","","","","496","hfs","Diagnostic practice","","j","","Diagnostic practice","9","-84","true","false","false","prac equal","RIGHT","RIGHT","j","1","true","","","",""
"","html-keyboard-response","29","84124","0.0-46.0","tp93v20v","1280","720","","","","","","","","","","","null","+","Fixation - short","","null","","","","","","","","","","","","","","","","",""
"","html-keyboard-response","30","84611","0.0-47.0","tp93v20v","","","","","","","","","","","","","485","guf","Diagnostic practice","","f","","Diagnostic practice","10","-84","true","false","true","prac equal","LEFT","LEFT","f","1","true","","","",""
"","html-keyboard-response","31","85370","0.0-50.0","tp93v20v","1280","720","","","","","","","","","","","null","+","Fixation - short","","null","","","","","","","","","","","","","","","","",""
"","html-keyboard-response","32","85871","0.0-51.0","tp93v20v","","","","","","","","","","","","","500","hfs","Diagnostic practice","","j","","Diagnostic practice","11","-84","true","false","false","prac equal","RIGHT","RIGHT","j","1","true","","","",""
"","html-keyboard-response","33","86624","0.0-54.0","tp93v20v","1280","720","","","","","","","","","","","null","+","Fixation - short","","null","","","","","","","","","","","","","","","","",""
"","html-keyboard-response","34","87210","0.0-55.0","tp93v20v","","","","","","","","","","","","","585","hfs","Diagnostic practice","","j","","Diagnostic practice","12","-84","true","false","false","prac equal","RIGHT","RIGHT","j","1","true","","","",""
"","html-keyboard-response","35","87974","0.0-58.0","tp93v20v","1280","720","","","","","","","","","","","null","+","Fixation - short","","null","","","","","","","","","","","","","","","","",""
"","html-keyboard-response","36","88604","0.0-59.0","tp93v20v","","","","","","","","","","","","","629","hfs","Diagnostic practice","","f","","Diagnostic practice","13","-84","true","false","true","prac equal","RIGHT","LEFT","f","1","false","","","",""
"","html-keyboard-response","37","89373","0.0-62.0","tp93v20v","1280","720","","","","","","","","","","","null","+","Fixation - short","","null","","","","","","","","","","","","","","","","",""
"","html-keyboard-response","38","89859","0.0-63.0","tp93v20v","","","","","","","","","","","","","485","hfs","Diagnostic practice","","f","","Diagnostic practice","14","-84","true","false","true","prac equal","RIGHT","LEFT","f","1","false","","","",""
"","html-keyboard-response","39","90614","0.0-66.0","tp93v20v","1280","720","","","","","","","","","","","null","+","Fixation - short","","null","","","","","","","","","","","","","","","","",""
"","html-keyboard-response","40","91310","0.0-67.0","tp93v20v","","","","","","","","","","","","","694","guf","Diagnostic practice","","j","","Diagnostic practice","15","-84","true","false","false","prac equal","LEFT","RIGHT","j","1","false","","","",""
"","html-keyboard-response","41","92064","0.0-70.0","tp93v20v","1280","720","","","","","","","","","","","null","+","Fixation - short","","null","","","","","","","","","","","","","","","","",""
"","instructions","42","96746","0.0-71.0","tp93v20v","","","","","","","","","","","","[{""page_index"":0,""viewing_time"":4680}]","4680","Instructions","Final experiment explanation","","","","","","","","","","","","","","","","","","",""
"","html-keyboard-response","43","102117","0.0-72.0","tp93v20v","","","","","","","","","","","","","3857","If rrd press LEFT | If jcr press RIGHT","Inducer practice",""," ","","Practice","","","","","","","","","","","","","","",""
"","html-keyboard-response","44","102884","0.0-73.0","tp93v20v","1280","720","","","","","","","","","","","null","+","Fixation - short","","null","","","","","","","","","","","","","","","","",""
"","html-keyboard-response","45","104337","0.0-74.0","tp93v20v","","","","","","","","","","","","","1452","rrd","Inducer practice","","f","","Practice","","","","true","","","","","f","1","","true","LEFT","",""
"","html-keyboard-response","46","105103","0.0-77.0","tp93v20v","1280","720","","","","","","","","","","","null","+","Fixation - short","","null","","","","","","","","","","","","","","","","",""
"","html-keyboard-response","47","107292","0.0-78.0","tp93v20v","","","","","","","","","","","","","2187","If ila press LEFT | If ttm press RIGHT","Inducer practice",""," ","","Practice","","","","","","","","","","","","","","",""
"","html-keyboard-response","48","108043","0.0-79.0","tp93v20v","1280","720","","","","","","","","","","","null","+","Fixation - short","","null","","","","","","","","","","","","","","","","",""
"","html-keyboard-response","49","108456","0.0-80.0","tp93v20v","","","","","","","","","","","","","411","ttm","Inducer practice","","j","","Practice","","","","true","","","","","j","1","","true","RIGHT","",""
"","html-keyboard-response","50","109214","0.0-83.0","tp93v20v","1280","720","","","","","","","","","","","null","+","Fixation - short","","null","","","","","","","","","","","","","","","","",""
"","html-keyboard-response","51","110132","0.0-84.0","tp93v20v","","","","","","","","","","","","","916","If mmo press LEFT | If ibg press RIGHT","Inducer practice",""," ","","Practice","","","","","","","","","","","","","","",""
"","html-keyboard-response","52","110884","0.0-85.0","tp93v20v","1280","720","","","","","","","","","","","null","+","Fixation - short","","null","","","","","","","","","","","","","","","","",""
"","html-keyboard-response","53","111940","0.0-86.0","tp93v20v","","","","","","","","","","","","","1055","ibg","Inducer practice","","f","","Practice","","","","true","","","","","j","0","","true","RIGHT","",""
"","call-function","54","111941","0.0-88.0-0.0","tp93v20v","","","","","","","","","","","","","","","","","","","","","","","","","","","","","","","","","",""
"","html-keyboard-response","55","112248","0.0-88.0-1.0","tp93v20v","1280","720","","","","","","","","","","","null","Wrong","Feedback","","null","","","","","","","","","","","","","","","","",""
"","call-function","56","112249","0.0-88.0-2.0","tp93v20v","","","","","","","","","","","","","","","","","","","","","","","","","","","","","","","","","",""
"","html-keyboard-response","57","113003","0.0-89.0","tp93v20v","1280","720","","","","","","","","","","","null","+","Fixation - short","","null","","","","","","","","","","","","","","","","",""
"","html-keyboard-response","58","113932","0.0-90.0","tp93v20v","","","","","","","","","","","","","927","If dpa press LEFT | If wwt press RIGHT","Inducer practice",""," ","","Practice","","","","","","","","","","","","","","",""
"","html-keyboard-response","59","114684","0.0-91.0","tp93v20v","1280","720","","","","","","","","","","","null","+","Fixation - short","","null","","","","","","","","","","","","","","","","",""
"","html-keyboard-response","60","115985","0.0-92.0","tp93v20v","","","","","","","","","","","","","1299","wwt","Inducer practice","","j","","Practice","","","","true","","","","","j","1","","true","RIGHT","",""
"","html-keyboard-response","61","116754","0.0-95.0","tp93v20v","1280","720","","","","","","","","","","","null","+","Fixation - short","","null","","","","","","","","","","","","","","","","",""
"","html-keyboard-response","62","117683","0.0-96.0","tp93v20v","","","","","","","","","","","","","928","If vnn press LEFT | If yna press RIGHT","Inducer practice",""," ","","Practice","","","","","","","","","","","","","","",""
"","html-keyboard-response","63","118453","0.0-97.0","tp93v20v","1280","720","","","","","","","","","","","null","+","Fixation - short","","null","","","","","","","","","","","","","","","","",""
"","html-keyboard-response","64","119611","0.0-98.0","tp93v20v","","","","","","","","","","","","","1157","vnn","Inducer practice","","f","","Practice","","","","true","","","","","f","1","","true","LEFT","",""
"","html-keyboard-response","65","120363","0.0-101.0","tp93v20v","1280","720","","","","","","","","","","","null","+","Fixation - short","","null","","","","","","","","","","","","","","","","",""
"","html-keyboard-response","66","121888","0.0-102.0","tp93v20v","","","","","","","","","","","","","1524","If hrc press LEFT | If ori press RIGHT","Inducer practice",""," ","","Practice","","","","","","","","","","","","","","",""
"","html-keyboard-response","67","122643","0.0-103.0","tp93v20v","1280","720","","","","","","","","","","","null","+","Fixation - short","","null","","","","","","","","","","","","","","","","",""
"","html-keyboard-response","68","124247","0.0-104.0","tp93v20v","","","","","","","","","","","","","1602","hrc","Inducer practice","","f","","Practice","","","","true","","","","","f","1","","true","LEFT","",""
"","html-keyboard-response","69","125004","0.0-107.0","tp93v20v","1280","720","","","","","","","","","","","null","+","Fixation - short","","null","","","","","","","","","","","","","","","","",""
"","instructions","70","127386","0.0-108.0","tp93v20v","","","","","","","","","","","","[{""page_index"":0,""viewing_time"":2380}]","2380","Instructions","Final experiment explanation","","","","","","","","","","","","","","","","","","",""
"","html-keyboard-response","71","130916","0.0-109.0","tp93v20v","","","","","","","","","","","","","2022","If dij press LEFT | If saj press RIGHT","Cue practice",""," ","","Practice","","","","","","","","","","","","","","",""
"","html-keyboard-response","72","131683","0.0-110.0","tp93v20v","1280","720","","","","","","","","","","","null","+","Fixation - short","","null","","","","","","","","","","","","","","","","",""
"","html-keyboard-response","73","132830","0.0-111.0","tp93v20v","","","","","","","","","","","","","1145","saj","Cue practice","","j","","Practice","0","13","false","false","true","both pre & post","RIGHT","LEFT","f","0","false","","","",""
"","call-function","74","132831","0.0-113.0-0.0","tp93v20v","","","","","","","","","","","","","","","","","","","","","","","","","","","","","","","","","",""
"","html-keyboard-response","75","133133","0.0-113.0-1.0","tp93v20v","1280","720","","","","","","","","","","","null","Wrong","Feedback","","null","","","","","","","","","","","","","","","","",""
"","call-function","76","133133","0.0-113.0-2.0","tp93v20v","","","","","","","","","","","","","","","","","","","","","","","","","","","","","","","","","",""
"","html-keyboard-response","77","133893","0.0-114.0","tp93v20v","1280","720","","","","","","","","","","","null","+","Fixation - short","","null","","","","","","","","","","","","","","","","",""
"","html-keyboard-response","78","134337","0.0-115.0","tp93v20v","","","","","","","","","","","","","442","saj","Cue practice","","j","","Practice","1","13","false","false","true","both pre & post","RIGHT","LEFT","f","0","false","","","",""
"","call-function","79","134337","0.0-117.0-0.0","tp93v20v","","","","","","","","","","","","","","","","","","","","","","","","","","","","","","","","","",""
"","html-keyboard-response","80","134643","0.0-117.0-1.0","tp93v20v","1280","720","","","","","","","","","","","null","Wrong","Feedback","","null","","","","","","","","","","","","","","","","",""
"","call-function","81","134645","0.0-117.0-2.0","tp93v20v","","","","","","","","","","","","","","","","","","","","","","","","","","","","","","","","","",""
"","html-keyboard-response","82","135398","0.0-118.0","tp93v20v","1280","720","","","","","","","","","","","null","+","Fixation - short","","null","","","","","","","","","","","","","","","","",""
"","html-keyboard-response","83","135772","0.0-119.0","tp93v20v","","","","","","","","","","","","","373","saj","Cue practice","","f","","Practice","2","13","false","false","true","both pre & post","RIGHT","LEFT","f","1","false","","","",""
"","html-keyboard-response","84","136540","0.0-122.0","tp93v20v","1280","720","","","","","","","","","","","null","+","Fixation - short","","null","","","","","","","","","","","","","","","","",""
"","html-keyboard-response","85","137248","0.0-123.0","tp93v20v","","","","","","","","","","","","","707","saj","Cue practice","","j","","Practice","3","13","false","false","false","both pre & post","RIGHT","RIGHT","j","1","true","","","",""
"","html-keyboard-response","86","138003","0.0-126.0","tp93v20v","1280","720","","","","","","","","","","","null","+","Fixation - short","","null","","","","","","","","","","","","","","","","",""
"","html-keyboard-response","87","139809","0.0-127.0","tp93v20v","","","","","","","","","","","","","1805","dij","Cue practice","","f","","Practice","4","13","false","false","false","both pre & post","LEFT","RIGHT","j","0","false","","","",""
"","call-function","88","139810","0.0-129.0-0.0","tp93v20v","","","","","","","","","","","","","","","","","","","","","","","","","","","","","","","","","",""
"","html-keyboard-response","89","140123","0.0-129.0-1.0","tp93v20v","1280","720","","","","","","","","","","","null","Wrong","Feedback","","null","","","","","","","","","","","","","","","","",""
"","call-function","90","140124","0.0-129.0-2.0","tp93v20v","","","","","","","","","","","","","","","","","","","","","","","","","","","","","","","","","",""
"","html-keyboard-response","91","140883","0.0-130.0","tp93v20v","1280","720","","","","","","","","","","","null","+","Fixation - short","","null","","","","","","","","","","","","","","","","",""
"","html-keyboard-response","92","141898","0.0-131.0","tp93v20v","","","","","","","","","","","","","1013","dij","Cue practice","","f","","Practice","5","13","false","false","true","both pre & post","LEFT","LEFT","f","1","true","","","",""
"","html-keyboard-response","93","142663","0.0-134.0","tp93v20v","1280","720","","","","","","","","","","","null","+","Fixation - short","","null","","","","","","","","","","","","","","","","",""
"","html-keyboard-response","94","143326","0.0-135.0","tp93v20v","","","","","","","","","","","","","661","saj","Cue practice","","f","","Practice","6","13","false","false","true","both pre & post","RIGHT","LEFT","f","1","false","","","",""
"","html-keyboard-response","95","144084","0.0-138.0","tp93v20v","1280","720","","","","","","","","","","","null","+","Fixation - short","","null","","","","","","","","","","","","","","","","",""
"","html-keyboard-response","96","144813","0.0-139.0","tp93v20v","","","","","","","","","","","","","728","saj","Cue practice","","j","","Practice","7","13","false","false","false","both pre & post","RIGHT","RIGHT","j","1","true","","","",""
"","html-keyboard-response","97","145584","0.0-142.0","tp93v20v","1280","720","","","","","","","","","","","null","+","Fixation - short","","null","","","","","","","","","","","","","","","","",""
"","html-keyboard-response","98","146326","0.0-143.0","tp93v20v","","","","","","","","","","","","","740","saj","Cue practice","","j","","Practice","8","13","false","false","false","both pre & post","RIGHT","RIGHT","j","1","true","","","",""
"","html-keyboard-response","99","147094","0.0-146.0","tp93v20v","1280","720","","","","","","","","","","","null","+","Fixation - short","","null","","","","","","","","","","","","","","","","",""
"","html-keyboard-response","100","147433","0.0-147.0","tp93v20v","","","","","","","","","","","","","338","saj","Cue practice","","j","","Practice","9","13","false","false","false","both pre & post","RIGHT","RIGHT","j","1","true","","","",""
"","html-keyboard-response","101","148204","0.0-150.0","tp93v20v","1280","720","","","","","","","","","","","null","+","Fixation - short","","null","","","","","","","","","","","","","","","","",""
"","html-keyboard-response","102","148771","0.0-151.0","tp93v20v","","","","","","","","","","","","","566","saj","Cue practice","","f","","Practice","10","13","false","false","true","both pre & post","RIGHT","LEFT","f","1","false","","","",""
"","html-keyboard-response","103","149523","0.0-154.0","tp93v20v","1280","720","","","","","","","","","","","null","+","Fixation - short","","null","","","","","","","","","","","","","","","","",""
"","html-keyboard-response","104","150172","0.0-155.0","tp93v20v","","","","","","","","","","","","","648","dij","Cue practice","","f","","Practice","11","13","false","false","true","both pre & post","LEFT","LEFT","f","1","true","","","",""
"","html-keyboard-response","105","150944","0.0-158.0","tp93v20v","1280","720","","","","","","","","","","","null","+","Fixation - short","","null","","","","","","","","","","","","","","","","",""
"","html-keyboard-response","106","151472","0.0-159.0","tp93v20v","","","","","","","","","","","","","527","saj","Cue practice","","j","","Practice","12","13","false","false","false","both pre & post","RIGHT","RIGHT","j","1","true","","","",""
"","html-keyboard-response","107","152224","0.0-162.0","tp93v20v","1280","720","","","","","","","","","","","null","+","Fixation - short","","null","","","","","","","","","","","","","","","","",""
"","canvas-keyboard-response","108","153494","0.0-163.0","tp93v20v","","","","","","","","","","","","","null","Cue","Cue","","null","","Practice","12","","","false","","","","","","","","","","",""
"","html-keyboard-response","109","154263","0.0-164.0","tp93v20v","1280","720","","","","","","","","","","","null","+","Fixation - short","","null","","","","","","","","","","","","","","","","",""
"","html-keyboard-response","110","154824","0.0-165.0","tp93v20v","","","","","","","","","","","","","560","saj","Cue practice","","f","","Practice","13","13","true","false","true","both pre & post","RIGHT","LEFT","f","1","false","","","",""
"","html-keyboard-response","111","155584","0.0-168.0","tp93v20v","1280","720","","","","","","","","","","","null","+","Fixation - short","","null","","","","","","","","","","","","","","","","",""
"","html-keyboard-response","112","156079","0.0-169.0","tp93v20v","","","","","","","","","","","","","494","saj","Cue practice","","f","","Practice","14","13","true","false","true","both pre & post","RIGHT","LEFT","f","1","false","","","",""
"","html-keyboard-response","113","156833","0.0-172.0","tp93v20v","1280","720","","","","","","","","","","","null","+","Fixation - short","","null","","","","","","","","","","","","","","","","",""
"","html-keyboard-response","114","157361","0.0-173.0","tp93v20v","","","","","","","","","","","","","526","saj","Cue practice","","j","","Practice","15","13","true","false","false","both pre & post","RIGHT","RIGHT","j","1","true","","","",""
"","html-keyboard-response","115","158123","0.0-176.0","tp93v20v","1280","720","","","","","","","","","","","null","+","Fixation - short","","null","","","","","","","","","","","","","","","","",""
"","html-keyboard-response","116","158826","0.0-177.0","tp93v20v","","","","","","","","","","","","","702","saj","Inducer practice","","j","","Practice","","","","true","","","","","j","1","","false","RIGHT","",""
"","html-keyboard-response","117","159593","0.0-180.0","tp93v20v","1280","720","","","","","","","","","","","null","+","Fixation - short","","null","","","","","","","","","","","","","","","","",""
"","instructions","118","162163","0.0-181.0","tp93v20v","","","","","","","","","","","","[{""page_index"":0,""viewing_time"":2568}]","2568","End practice","End of practice","","","","","","","","","","","","","","","","","","",""
"","html-keyboard-response","119","165184","0.0-182.0","tp93v20v","1280","720","","","","","","","","","","","null","+","Fixation - long","","null","","","","","","","","","","","","","","","","",""
"","html-keyboard-response","120","166126","0.0-183.0","tp93v20v","","","","","","","","","","","","","941","If jsf press LEFT | If otr press RIGHT","Inducer instructions",""," ","","0","","","","","","","","","","","","","","",""
"","html-keyboard-response","121","166881","0.0-184.0","tp93v20v","1280","720","","","","","","","","","","","null","+","Fixation - short","","null","","","","","","","","","","","","","","","","",""
"","html-keyboard-response","122","167327","0.0-185.0","tp93v20v","","","","","","","","","","","","","445","otr","Diagnostic trial","","f","","0","0","10","false","false","false","both pre & post","RIGHT","RIGHT","j","0","true","","","",""
"","call-function","123","167327","0.0-187.0-0.0","tp93v20v","","","","","","","","","","","","","","","","","","","","","","","","","","","","","","","","","",""
"","html-keyboard-response","124","167643","0.0-187.0-1.0","tp93v20v","1280","720","","","","","","","","","","","null","Wrong","Feedback","","null","","","","","","","","","","","","","","","","",""
"","call-function","125","167644","0.0-187.0-2.0","tp93v20v","","","","","","","","","","","","","","","","","","","","","","","","","","","","","","","","","",""
"","html-keyboard-response","126","168404","0.0-188.0","tp93v20v","1280","720","","","","","","","","","","","null","+","Fixation - short","","null","","","","","","","","","","","","","","","","",""
"","html-keyboard-response","127","168787","0.0-189.0","tp93v20v","","","","","","","","","","","","","381","jsf","Diagnostic trial","","j","","0","1","10","false","false","true","both pre & post","LEFT","LEFT","f","0","true","","","",""
"","call-function","128","168787","0.0-191.0-0.0","tp93v20v","","","","","","","","","","","","","","","","","","","","","","","","","","","","","","","","","",""
"","html-keyboard-response","129","169104","0.0-191.0-1.0","tp93v20v","1280","720","","","","","","","","","","","null","Wrong","Feedback","","null","","","","","","","","","","","","","","","","",""
"","call-function","130","169105","0.0-191.0-2.0","tp93v20v","","","","","","","","","","","","","","","","","","","","","","","","","","","","","","","","","",""
"","html-keyboard-response","131","169864","0.0-192.0","tp93v20v","1280","720","","","","","","","","","","","null","+","Fixation - short","","null","","","","","","","","","","","","","","","","",""
"","html-keyboard-response","132","170227","0.0-193.0","tp93v20v","","","","","","","","","","","","","361","jsf","Diagnostic trial","","j","","0","2","10","false","false","true","both pre & post","LEFT","LEFT","f","0","true","","","",""
"","call-function","133","170228","0.0-195.0-0.0","tp93v20v","","","","","","","","","","","","","","","","","","","","","","","","","","","","","","","","","",""
"","html-keyboard-response","134","170544","0.0-195.0-1.0","tp93v20v","1280","720","","","","","","","","","","","null","Wrong","Feedback","","null","","","","","","","","","","","","","","","","",""
"","call-function","135","170545","0.0-195.0-2.0","tp93v20v","","","","","","","","","","","","","","","","","","","","","","","","","","","","","","","","","",""
"","html-keyboard-response","136","171304","0.0-196.0","tp93v20v","1280","720","","","","","","","","","","","null","+","Fixation - short","","null","","","","","","","","","","","","","","","","",""
"","html-keyboard-response","137","171624","0.0-197.0","tp93v20v","","","","","","","","","","","","","318","otr","Diagnostic trial","","f","","0","3","10","false","false","true","both pre & post","RIGHT","LEFT","f","1","false","","","",""
"","html-keyboard-response","138","172385","0.0-200.0","tp93v20v","1280","720","","","","","","","","","","","null","+","Fixation - short","","null","","","","","","","","","","","","","","","","",""
"","html-keyboard-response","139","172885","0.0-201.0","tp93v20v","","","","","","","","","","","","","499","jsf","Diagnostic trial","","f","","0","4","10","false","false","true","both pre & post","LEFT","LEFT","f","1","true","","","",""
"","html-keyboard-response","140","173644","0.0-204.0","tp93v20v","1280","720","","","","","","","","","","","null","+","Fixation - short","","null","","","","","","","","","","","","","","","","",""
"","html-keyboard-response","141","174112","0.0-205.0","tp93v20v","","","","","","","","","","","","","466","otr","Diagnostic trial","","j","","0","5","10","false","false","false","both pre & post","RIGHT","RIGHT","j","1","true","","","",""
"","html-keyboard-response","142","174865","0.0-208.0","tp93v20v","1280","720","","","","","","","","","","","null","+","Fixation - short","","null","","","","","","","","","","","","","","","","",""
"","html-keyboard-response","143","175767","0.0-209.0","tp93v20v","","","","","","","","","","","","","901","otr","Diagnostic trial","","f","","0","6","10","false","false","true","both pre & post","RIGHT","LEFT","f","1","false","","","",""
"","html-keyboard-response","144","176534","0.0-212.0","tp93v20v","1280","720","","","","","","","","","","","null","+","Fixation - short","","null","","","","","","","","","","","","","","","","",""
"","html-keyboard-response","145","177083","0.0-213.0","tp93v20v","","","","","","","","","","","","","548","jsf","Diagnostic trial","","j","","0","7","10","false","false","true","both pre & post","LEFT","LEFT","f","0","true","","","",""
"","call-function","146","177084","0.0-215.0-0.0","tp93v20v","","","","","","","","","","","","","","","","","","","","","","","","","","","","","","","","","",""
"","html-keyboard-response","147","177394","0.0-215.0-1.0","tp93v20v","1280","720","","","","","","","","","","","null","Wrong","Feedback","","null","","","","","","","","","","","","","","","","",""
"","call-function","148","177395","0.0-215.0-2.0","tp93v20v","","","","","","","","","","","","","","","","","","","","","","","","","","","","","","","","","",""
"","html-keyboard-response","149","178164","0.0-216.0","tp93v20v","1280","720","","","","","","","","","","","null","+","Fixation - short","","null","","","","","","","","","","","","","","","","",""
"","html-keyboard-response","150","178655","0.0-217.0","tp93v20v","","","","","","","","","","","","","490","jsf","Diagnostic trial","","f","","0","8","10","false","false","true","both pre & post","LEFT","LEFT","f","1","true","","","",""
"","html-keyboard-response","151","179415","0.0-220.0","tp93v20v","1280","720","","","","","","","","","","","null","+","Fixation - short","","null","","","","","","","","","","","","","","","","",""
"","html-keyboard-response","152","179880","0.0-221.0","tp93v20v","","","","","","","","","","","","","464","otr","Diagnostic trial","","j","","0","9","10","false","false","true","both pre & post","RIGHT","LEFT","f","0","false","","","",""
"","call-function","153","179881","0.0-223.0-0.0","tp93v20v","","","","","","","","","","","","","","","","","","","","","","","","","","","","","","","","","",""
"","html-keyboard-response","154","180184","0.0-223.0-1.0","tp93v20v","1280","720","","","","","","","","","","","null","Wrong","Feedback","","null","","","","","","","","","","","","","","","","",""
"","call-function","155","180185","0.0-223.0-2.0","tp93v20v","","","","","","","","","","","","","","","","","","","","","","","","","","","","","","","","","",""
"","html-keyboard-response","156","180943","0.0-224.0","tp93v20v","1280","720","","","","","","","","","","","null","+","Fixation - short","","null","","","","","","","","","","","","","","","","",""
"","canvas-keyboard-response","157","182207","0.0-225.0","tp93v20v","","","","","","","","","","","","","null","Cue","Cue","","null","","0","9","","","false","","","","","","","","","","",""
"","html-keyboard-response","158","182963","0.0-226.0","tp93v20v","1280","720","","","","","","","","","","","null","+","Fixation - short","","null","","","","","","","","","","","","","","","","",""
"","html-keyboard-response","159","183190","0.0-227.0","tp93v20v","","","","","","","","","","","","","225","jsf","Inducer trial","","f","","0","","","","true","","","","","f","1","","false","LEFT","",""
"","html-keyboard-response","160","183954","0.0-230.0","tp93v20v","1280","720","","","","","","","","","","","null","+","Fixation - short","","null","","","","","","","","","","","","","","","","",""
"","html-keyboard-response","161","185179","0.0-231.0","tp93v20v","","","","","","","","","","","","","1223","If rbc press LEFT | If jup press RIGHT","Inducer instructions",""," ","","1","","","","","","","","","","","","","","",""
"","html-keyboard-response","162","185944","0.0-232.0","tp93v20v","1280","720","","","","","","","","","","","null","+","Fixation - short","","null","","","","","","","","","","","","","","","","",""
"","html-keyboard-response","163","186392","0.0-233.0","tp93v20v","","","","","","","","","","","","","446","jup","Diagnostic trial","","j","","1","0","4","false","false","true","both pre & post","RIGHT","LEFT","f","0","false","","","",""
"","call-function","164","186392","0.0-235.0-0.0","tp93v20v","","","","","","","","","","","","","","","","","","","","","","","","","","","","","","","","","",""
"","html-keyboard-response","165","186694","0.0-235.0-1.0","tp93v20v","1280","720","","","","","","","","","","","null","Wrong","Feedback","","null","","","","","","","","","","","","","","","","",""
"","call-function","166","186695","0.0-235.0-2.0","tp93v20v","","","","","","","","","","","","","","","","","","","","","","","","","","","","","","","","","",""
"","html-keyboard-response","167","187454","0.0-236.0","tp93v20v","1280","720","","","","","","","","","","","null","+","Fixation - short","","null","","","","","","","","","","","","","","","","",""
"","html-keyboard-response","168","187783","0.0-237.0","tp93v20v","","","","","","","","","","","","","328","jup","Diagnostic trial","","f","","1","1","4","false","false","true","both pre & post","RIGHT","LEFT","f","1","false","","","",""
"","html-keyboard-response","169","188540","0.0-240.0","tp93v20v","1280","720","","","","","","","","","","","null","+","Fixation - short","","null","","","","","","","","","","","","","","","","",""
"","html-keyboard-response","170","188973","0.0-241.0","tp93v20v","","","","","","","","","","","","","432","jup","Diagnostic trial","","f","","1","2","4","false","false","false","both pre & post","RIGHT","RIGHT","j","0","true","","","",""
"","call-function","171","188974","0.0-243.0-0.0","tp93v20v","","","","","","","","","","","","","","","","","","","","","","","","","","","","","","","","","",""
"","html-keyboard-response","172","189285","0.0-243.0-1.0","tp93v20v","1280","720","","","","","","","","","","","null","Wrong","Feedback","","null","","","","","","","","","","","","","","","","",""
"","call-function","173","189285","0.0-243.0-2.0","tp93v20v","","","","","","","","","","","","","","","","","","","","","","","","","","","","","","","","","",""
"","html-keyboard-response","174","190043","0.0-244.0","tp93v20v","1280","720","","","","","","","","","","","null","+","Fixation - short","","null","","","","","","","","","","","","","","","","",""
"","html-keyboard-response","175","190072","0.0-245.0","tp93v20v","","","","","","","","","","","","","28","rbc","Diagnostic trial","","j","","1","3","4","false","false","false","both pre & post","LEFT","RIGHT","j","1","false","","","",""
"","html-keyboard-response","176","190824","0.0-248.0","tp93v20v","1280","720","","","","","","","","","","","null","+","Fixation - short","","null","","","","","","","","","","","","","","","","",""
"","canvas-keyboard-response","177","192084","0.0-249.0","tp93v20v","","","","","","","","","","","","","null","Cue","Cue","","null","","1","3","","","false","","","","","","","","","","",""
"","html-keyboard-response","178","192845","0.0-250.0","tp93v20v","1280","720","","","","","","","","","","","null","+","Fixation - short","","null","","","","","","","","","","","","","","","","",""
"","html-keyboard-response","179","193427","0.0-251.0","tp93v20v","","","","","","","","","","","","","581","jup","Diagnostic trial","","f","","1","4","4","true","false","false","both pre & post","RIGHT","RIGHT","j","0","true","","","",""
"","call-function","180","193428","0.0-253.0-0.0","tp93v20v","","","","","","","","","","","","","","","","","","","","","","","","","","","","","","","","","",""
"","html-keyboard-response","181","193734","0.0-253.0-1.0","tp93v20v","1280","720","","","","","","","","","","","null","Wrong","Feedback","","null","","","","","","","","","","","","","","","","",""
"","call-function","182","193735","0.0-253.0-2.0","tp93v20v","","","","","","","","","","","","","","","","","","","","","","","","","","","","","","","","","",""
"","html-keyboard-response","183","194494","0.0-254.0","tp93v20v","1280","720","","","","","","","","","","","null","+","Fixation - short","","null","","","","","","","","","","","","","","","","",""
"","html-keyboard-response","184","194546","0.0-255.0","tp93v20v","","","","","","","","","","","","","52","rbc","Diagnostic trial","","j","","1","5","4","true","false","true","both pre & post","LEFT","LEFT","f","0","true","","","",""
"","call-function","185","194547","0.0-257.0-0.0","tp93v20v","","","","","","","","","","","","","","","","","","","","","","","","","","","","","","","","","",""
"","html-keyboard-response","186","194864","0.0-257.0-1.0","tp93v20v","1280","720","","","","","","","","","","","null","Wrong","Feedback","","null","","","","","","","","","","","","","","","","",""
"","call-function","187","194865","0.0-257.0-2.0","tp93v20v","","","","","","","","","","","","","","","","","","","","","","","","","","","","","","","","","",""
"","html-keyboard-response","188","195624","0.0-258.0","tp93v20v","1280","720","","","","","","","","","","","null","+","Fixation - short","","null","","","","","","","","","","","","","","","","",""
"","html-keyboard-response","189","196057","0.0-259.0","tp93v20v","","","","","","","","","","","","","431","rbc","Diagnostic trial","","f","","1","6","4","true","false","false","both pre & post","LEFT","RIGHT","j","0","false","","","",""
"","call-function","190","196058","0.0-261.0-0.0","tp93v20v","","","","","","","","","","","","","","","","","","","","","","","","","","","","","","","","","",""
"","html-keyboard-response","191","196364","0.0-261.0-1.0","tp93v20v","1280","720","","","","","","","","","","","null","Wrong","Feedback","","null","","","","","","","","","","","","","","","","",""
"","call-function","192","196365","0.0-261.0-2.0","tp93v20v","","","","","","","","","","","","","","","","","","","","","","","","","","","","","","","","","",""
"","html-keyboard-response","193","197124","0.0-262.0","tp93v20v","1280","720","","","","","","","","","","","null","+","Fixation - short","","null","","","","","","","","","","","","","","","","",""
"","html-keyboard-response","194","197613","0.0-263.0","tp93v20v","","","","","","","","","","","","","487","jup","Diagnostic trial","","j","","1","7","4","true","false","true","both pre & post","RIGHT","LEFT","f","0","false","","","",""
"","call-function","195","197613","0.0-265.0-0.0","tp93v20v","","","","","","","","","","","","","","","","","","","","","","","","","","","","","","","","","",""
"","html-keyboard-response","196","197923","0.0-265.0-1.0","tp93v20v","1280","720","","","","","","","","","","","null","Wrong","Feedback","","null","","","","","","","","","","","","","","","","",""
"","call-function","197","197924","0.0-265.0-2.0","tp93v20v","","","","","","","","","","","","","","","","","","","","","","","","","","","","","","","","","",""
"","html-keyboard-response","198","198695","0.0-266.0","tp93v20v","1280","720","","","","","","","","","","","null","+","Fixation - short","","null","","","","","","","","","","","","","","","","",""
"","html-keyboard-response","199","199132","0.0-267.0","tp93v20v","","","","","","","","","","","","","436","rbc","Inducer trial","","j","","1","","","","true","","","","","f","0","","false","LEFT","",""
"","call-function","200","199132","0.0-269.0-0.0","tp93v20v","","","","","","","","","","","","","","","","","","","","","","","","","","","","","","","","","",""
"","html-keyboard-response","201","199444","0.0-269.0-1.0","tp93v20v","1280","720","","","","","","","","","","","null","Wrong","Feedback","","null","","","","","","","","","","","","","","","","",""
"","call-function","202","199445","0.0-269.0-2.0","tp93v20v","","","","","","","","","","","","","","","","","","","","","","","","","","","","","","","","","",""
"","html-keyboard-response","203","200206","0.0-270.0","tp93v20v","1280","720","","","","","","","","","","","null","+","Fixation - short","","null","","","","","","","","","","","","","","","","",""
"","html-keyboard-response","204","200882","0.0-271.0","tp93v20v","","","","","","","","","","","","","675","If idy press LEFT | If faq press RIGHT","Inducer instructions",""," ","","2","","","","","","","","","","","","","","",""
"","html-keyboard-response","205","201644","0.0-272.0","tp93v20v","1280","720","","","","","","","","","","","null","+","Fixation - short","","null","","","","","","","","","","","","","","","","",""
"","html-keyboard-response","206","201946","0.0-273.0","tp93v20v","","","","","","","","","","","","","300","faq","Diagnostic trial","","f","","2","0","7","false","false","true","both pre & post","RIGHT","LEFT","f","1","false","","","",""
"","html-keyboard-response","207","202705","0.0-276.0","tp93v20v","1280","720","","","","","","","","","","","null","+","Fixation - short","","null","","","","","","","","","","","","","","","","",""
"","html-keyboard-response","208","203209","0.0-277.0","tp93v20v","","","","","","","","","","","","","502","faq","Diagnostic trial","","j","","2","1","7","false","false","false","both pre & post","RIGHT","RIGHT","j","1","true","","","",""
"","html-keyboard-response","209","203975","0.0-280.0","tp93v20v","1280","720","","","","","","","","","","","null","+","Fixation - short","","null","","","","","","","","","","","","","","","","",""
"","html-keyboard-response","210","204348","0.0-281.0","tp93v20v","","","","","","","","","","","","","372","faq","Diagnostic trial","","f","","2","2","7","false","false","true","both pre & post","RIGHT","LEFT","f","1","false","","","",""
"","html-keyboard-response","211","205107","0.0-284.0","tp93v20v","1280","720","","","","","","","","","","","null","+","Fixation - short","","null","","","","","","","","","","","","","","","","",""
"","html-keyboard-response","212","205525","0.0-285.0","tp93v20v","","","","","","","","","","","","","417","idy","Diagnostic trial","","j","","2","3","7","false","false","false","both pre & post","LEFT","RIGHT","j","1","false","","","",""
"","html-keyboard-response","213","206284","0.0-288.0","tp93v20v","1280","720","","","","","","","","","","","null","+","Fixation - short","","null","","","","","","","","","","","","","","","","",""
"","html-keyboard-response","214","206753","0.0-289.0","tp93v20v","","","","","","","","","","","","","468","faq","Diagnostic trial","","f","","2","4","7","false","false","true","both pre & post","RIGHT","LEFT","f","1","false","","","",""
"","html-keyboard-response","215","207524","0.0-292.0","tp93v20v","1280","720","","","","","","","","","","","null","+","Fixation - short","","null","","","","","","","","","","","","","","","","",""
"","html-keyboard-response","216","208111","0.0-293.0","tp93v20v","","","","","","","","","","","","","586","faq","Diagnostic trial","","f","","2","5","7","false","false","false","both pre & post","RIGHT","RIGHT","j","0","true","","","",""
"","call-function","217","208112","0.0-295.0-0.0","tp93v20v","","","","","","","","","","","","","","","","","","","","","","","","","","","","","","","","","",""
"","html-keyboard-response","218","208419","0.0-295.0-1.0","tp93v20v","1280","720","","","","","","","","","","","null","Wrong","Feedback","","null","","","","","","","","","","","","","","","","",""
"","call-function","219","208419","0.0-295.0-2.0","tp93v20v","","","","","","","","","","","","","","","","","","","","","","","","","","","","","","","","","",""
"","html-keyboard-response","220","209185","0.0-296.0","tp93v20v","1280","720","","","","","","","","","","","null","+","Fixation - short","","null","","","","","","","","","","","","","","","","",""
"","html-keyboard-response","221","209507","0.0-297.0","tp93v20v","","","","","","","","","","","","","321","idy","Diagnostic trial","","f","","2","6","7","false","false","true","both pre & post","LEFT","LEFT","f","1","true","","","",""
"","html-keyboard-response","222","210265","0.0-300.0","tp93v20v","1280","720","","","","","","","","","","","null","+","Fixation - short","","null","","","","","","","","","","","","","","","","",""
"","canvas-keyboard-response","223","211520","0.0-301.0","tp93v20v","","","","","","","","","","","","","null","Cue","Cue","","null","","2","6","","","false","","","","","","","","","","",""
"","html-keyboard-response","224","212285","0.0-302.0","tp93v20v","1280","720","","","","","","","","","","","null","+","Fixation - short","","null","","","","","","","","","","","","","","","","",""
"","html-keyboard-response","225","213597","0.0-303.0","tp93v20v","","","","","","","","","","","","","1311","faq","Diagnostic trial","","j","","2","7","7","true","false","false","both pre & post","RIGHT","RIGHT","j","1","true","","","",""
"","html-keyboard-response","226","214364","0.0-306.0","tp93v20v","1280","720","","","","","","","","","","","null","+","Fixation - short","","null","","","","","","","","","","","","","","","","",""
"","html-keyboard-response","227","214969","0.0-307.0","tp93v20v","","","","","","","","","","","","","603","idy","Inducer trial","","j","","2","","","","true","","","","","f","0","","false","LEFT","",""
"","call-function","228","214970","0.0-309.0-0.0","tp93v20v","","","","","","","","","","","","","","","","","","","","","","","","","","","","","","","","","",""
"","html-keyboard-response","229","215284","0.0-309.0-1.0","tp93v20v","1280","720","","","","","","","","","","","null","Wrong","Feedback","","null","","","","","","","","","","","","","","","","",""
"","call-function","230","215285","0.0-309.0-2.0","tp93v20v","","","","","","","","","","","","","","","","","","","","","","","","","","","","","","","","","",""
"","html-keyboard-response","231","216055","0.0-310.0","tp93v20v","1280","720","","","","","","","","","","","null","+","Fixation - short","","null","","","","","","","","","","","","","","","","",""
"","html-keyboard-response","232","217059","0.0-311.0","tp93v20v","","","","","","","","","","","","","1003","If vrm press LEFT | If uen press RIGHT","Inducer instructions",""," ","","3","","","","","","","","","","","","","","",""
"","html-keyboard-response","233","217814","0.0-312.0","tp93v20v","1280","720","","","","","","","","","","","null","+","Fixation - short","","null","","","","","","","","","","","","","","","","",""
"","html-keyboard-response","234","218139","0.0-313.0","tp93v20v","","","","","","","","","","","","","324","uen","Diagnostic trial","","f","","3","0","11","false","false","false","both pre & post","RIGHT","RIGHT","j","0","true","","","",""
"","call-function","235","218140","0.0-315.0-0.0","tp93v20v","","","","","","","","","","","","","","","","","","","","","","","","","","","","","","","","","",""
"","html-keyboard-response","236","218464","0.0-315.0-1.0","tp93v20v","1280","720","","","","","","","","","","","null","Wrong","Feedback","","null","","","","","","","","","","","","","","","","",""
"","call-function","237","218465","0.0-315.0-2.0","tp93v20v","","","","","","","","","","","","","","","","","","","","","","","","","","","","","","","","","",""
"","html-keyboard-response","238","219225","0.0-316.0","tp93v20v","1280","720","","","","","","","","","","","null","+","Fixation - short","","null","","","","","","","","","","","","","","","","",""
"","html-keyboard-response","239","220314","0.0-317.0","tp93v20v","","","","","","","","","","","","","1088","vrm","Diagnostic trial","","f","","3","1","11","false","false","true","both pre & post","LEFT","LEFT","f","1","true","","","",""
"","html-keyboard-response","240","221074","0.0-320.0","tp93v20v","1280","720","","","","","","","","","","","null","+","Fixation - short","","null","","","","","","","","","","","","","","","","",""
"","html-keyboard-response","241","221398","0.0-321.0","tp93v20v","","","","","","","","","","","","","323","vrm","Diagnostic trial","","j","","3","2","11","false","false","true","both pre & post","LEFT","LEFT","f","0","true","","","",""
"","call-function","242","221399","0.0-323.0-0.0","tp93v20v","","","","","","","","","","","","","","","","","","","","","","","","","","","","","","","","","",""
"","html-keyboard-response","243","221705","0.0-323.0-1.0","tp93v20v","1280","720","","","","","","","","","","","null","Wrong","Feedback","","null","","","","","","","","","","","","","","","","",""
"","call-function","244","221706","0.0-323.0-2.0","tp93v20v","","","","","","","","","","","","","","","","","","","","","","","","","","","","","","","","","",""
"","html-keyboard-response","245","222474","0.0-324.0","tp93v20v","1280","720","","","","","","","","","","","null","+","Fixation - short","","null","","","","","","","","","","","","","","","","",""
"","html-keyboard-response","246","222572","0.0-325.0","tp93v20v","","","","","","","","","","","","","98","vrm","Diagnostic trial","","f","","3","3","11","false","false","false","both pre & post","LEFT","RIGHT","j","0","false","","","",""
"","call-function","247","222573","0.0-327.0-0.0","tp93v20v","","","","","","","","","","","","","","","","","","","","","","","","","","","","","","","","","",""
"","html-keyboard-response","248","222884","0.0-327.0-1.0","tp93v20v","1280","720","","","","","","","","","","","null","Wrong","Feedback","","null","","","","","","","","","","","","","","","","",""
"","call-function","249","222885","0.0-327.0-2.0","tp93v20v","","","","","","","","","","","","","","","","","","","","","","","","","","","","","","","","","",""
"","html-keyboard-response","250","223644","0.0-328.0","tp93v20v","1280","720","","","","","","","","","","","null","+","Fixation - short","","null","","","","","","","","","","","","","","","","",""
"","html-keyboard-response","251","223702","0.0-329.0","tp93v20v","","","","","","","","","","","","","56","uen","Diagnostic trial","","f","","3","4","11","false","false","false","both pre & post","RIGHT","RIGHT","j","0","true","","","",""
"","call-function","252","223703","0.0-331.0-0.0","tp93v20v","","","","","","","","","","","","","","","","","","","","","","","","","","","","","","","","","",""
"","html-keyboard-response","253","224014","0.0-331.0-1.0","tp93v20v","1280","720","","","","","","","","","","","null","Wrong","Feedback","","null","","","","","","","","","","","","","","","","",""
"","call-function","254","224015","0.0-331.0-2.0","tp93v20v","","","","","","","","","","","","","","","","","","","","","","","","","","","","","","","","","",""
"","html-keyboard-response","255","224767","0.0-332.0","tp93v20v","1280","720","","","","","","","","","","","null","+","Fixation - short","","null","","","","","","","","","","","","","","","","",""
"","html-keyboard-response","256","225898","0.0-333.0","tp93v20v","","","","","","","","","","","","","1129","vrm","Diagnostic trial","","j","","3","5","11","false","false","true","both pre & post","LEFT","LEFT","f","0","true","","","",""
"","call-function","257","225898","0.0-335.0-0.0","tp93v20v","","","","","","","","","","","","","","","","","","","","","","","","","","","","","","","","","",""
"","html-keyboard-response","258","226203","0.0-335.0-1.0","tp93v20v","1280","720","","","","","","","","","","","null","Wrong","Feedback","","null","","","","","","","","","","","","","","","","",""
"","call-function","259","226204","0.0-335.0-2.0","tp93v20v","","","","","","","","","","","","","","","","","","","","","","","","","","","","","","","","","",""
"","html-keyboard-response","260","226963","0.0-336.0","tp93v20v","1280","720","","","","","","","","","","","null","+","Fixation - short","","null","","","","","","","","","","","","","","","","",""
"","html-keyboard-response","261","227453","0.0-337.0","tp93v20v","","","","","","","","","","","","","488","uen","Diagnostic trial","","f","","3","6","11","false","false","true","both pre & post","RIGHT","LEFT","f","1","false","","","",""
"","html-keyboard-response","262","228214","0.0-340.0","tp93v20v","1280","720","","","","","","","","","","","null","+","Fixation - short","","null","","","","","","","","","","","","","","","","",""
"","html-keyboard-response","263","228744","0.0-341.0","tp93v20v","","","","","","","","","","","","","528","vrm","Diagnostic trial","","j","","3","7","11","false","false","false","both pre & post","LEFT","RIGHT","j","1","false","","","",""
"","html-keyboard-response","264","229514","0.0-344.0","tp93v20v","1280","720","","","","","","","","","","","null","+","Fixation - short","","null","","","","","","","","","","","","","","","","",""
"","html-keyboard-response","265","229866","0.0-345.0","tp93v20v","","","","","","","","","","","","","350","uen","Diagnostic trial","","f","","3","8","11","false","false","false","both pre & post","RIGHT","RIGHT","j","0","true","","","",""
"","call-function","266","229867","0.0-347.0-0.0","tp93v20v","","","","","","","","","","","","","","","","","","","","","","","","","","","","","","","","","",""
"","html-keyboard-response","267","230183","0.0-347.0-1.0","tp93v20v","1280","720","","","","","","","","","","","null","Wrong","Feedback","","null","","","","","","","","","","","","","","","","",""
"","call-function","268","230184","0.0-347.0-2.0","tp93v20v","","","","","","","","","","","","","","","","","","","","","","","","","","","","","","","","","",""
"","html-keyboard-response","269","230954","0.0-348.0","tp93v20v","1280","720","","","","","","","","","","","null","+","Fixation - short","","null","","","","","","","","","","","","","","","","",""
"","html-keyboard-response","270","231365","0.0-349.0","tp93v20v","","","","","","","","","","","","","410","uen","Diagnostic trial","","j","","3","9","11","false","false","false","both pre & post","RIGHT","RIGHT","j","1","true","","","",""
"","html-keyboard-response","271","232124","0.0-352.0","tp93v20v","1280","720","","","","","","","","","","","null","+","Fixation - short","","null","","","","","","","","","","","","","","","","",""
"","html-keyboard-response","272","232697","0.0-353.0","tp93v20v","","","","","","","","","","","","","571","uen","Diagnostic trial","","j","","3","10","11","false","false","true","both pre & post","RIGHT","LEFT","f","0","false","","","",""
"","call-function","273","232698","0.0-355.0-0.0","tp93v20v","","","","","","","","","","","","","","","","","","","","","","","","","","","","","","","","","",""
"","html-keyboard-response","274","233004","0.0-355.0-1.0","tp93v20v","1280","720","","","","","","","","","","","null","Wrong","Feedback","","null","","","","","","","","","","","","","","","","",""
"","call-function","275","233005","0.0-355.0-2.0","tp93v20v","","","","","","","","","","","","","","","","","","","","","","","","","","","","","","","","","",""
"","html-keyboard-response","276","233763","0.0-356.0","tp93v20v","1280","720","","","","","","","","","","","null","+","Fixation - short","","null","","","","","","","","","","","","","","","","",""
"","canvas-keyboard-response","277","235024","0.0-357.0","tp93v20v","","","","","","","","","","","","","null","Cue","Cue","","null","","3","10","","","false","","","","","","","","","","",""
"","html-keyboard-response","278","235784","0.0-358.0","tp93v20v","1280","720","","","","","","","","","","","null","+","Fixation - short","","null","","","","","","","","","","","","","","","","",""
"","html-keyboard-response","279","236106","0.0-359.0","tp93v20v","","","","","","","","","","","","","321","uen","Diagnostic trial","","f","","3","11","11","true","false","false","both pre & post","RIGHT","RIGHT","j","0","true","","","",""
"","call-function","280","236107","0.0-361.0-0.0","tp93v20v","","","","","","","","","","","","","","","","","","","","","","","","","","","","","","","","","",""
"","html-keyboard-response","281","236414","0.0-361.0-1.0","tp93v20v","1280","720","","","","","","","","","","","null","Wrong","Feedback","","null","","","","","","","","","","","","","","","","",""
"","call-function","282","236415","0.0-361.0-2.0","tp93v20v","","","","","","","","","","","","","","","","","","","","","","","","","","","","","","","","","",""
"","html-keyboard-response","283","237179","0.0-362.0","tp93v20v","1280","720","","","","","","","","","","","null","+","Fixation - short","","null","","","","","","","","","","","","","","","","",""
"","html-keyboard-response","284","238200","0.0-363.0","tp93v20v","","","","","","","","","","","","","1020","vrm","Diagnostic trial","","j","","3","12","11","true","false","true","both pre & post","LEFT","LEFT","f","0","true","","","",""
"","call-function","285","238201","0.0-365.0-0.0","tp93v20v","","","","","","","","","","","","","","","","","","","","","","","","","","","","","","","","","",""
"","html-keyboard-response","286","238504","0.0-365.0-1.0","tp93v20v","1280","720","","","","","","","","","","","null","Wrong","Feedback","","null","","","","","","","","","","","","","","","","",""
"","call-function","287","238504","0.0-365.0-2.0","tp93v20v","","","","","","","","","","","","","","","","","","","","","","","","","","","","","","","","","",""
"","html-keyboard-response","288","239265","0.0-366.0","tp93v20v","1280","720","","","","","","","","","","","null","+","Fixation - short","","null","","","","","","","","","","","","","","","","",""
"","html-keyboard-response","289","239376","0.0-367.0","tp93v20v","","","","","","","","","","","","","110","vrm","Inducer trial","","f","","3","","","","true","","","","","f","1","","false","LEFT","",""
"","html-keyboard-response","290","240145","0.0-370.0","tp93v20v","1280","720","","","","","","","","","","","null","+","Fixation - short","","null","","","","","","","","","","","","","","","","",""
"","html-keyboard-response","291","240999","0.0-371.0","tp93v20v","","","","","","","","","","","","","854","If fja press LEFT | If cnl press RIGHT","Inducer instructions",""," ","","4","","","","","","","","","","","","","","",""
"","html-keyboard-response","292","241754","0.0-372.0","tp93v20v","1280","720","","","","","","","","","","","null","+","Fixation - short","","null","","","","","","","","","","","","","","","","",""
"","html-keyboard-response","293","242216","0.0-373.0","tp93v20v","","","","","","","","","","","","","461","cnl","Diagnostic trial","","j","","4","0","4","false","false","true","both pre & post","RIGHT","LEFT","f","0","false","","","",""
"","call-function","294","242217","0.0-375.0-0.0","tp93v20v","","","","","","","","","","","","","","","","","","","","","","","","","","","","","","","","","",""
"","html-keyboard-response","295","242524","0.0-375.0-1.0","tp93v20v","1280","720","","","","","","","","","","","null","Wrong","Feedback","","null","","","","","","","","","","","","","","","","",""
"","call-function","296","242525","0.0-375.0-2.0","tp93v20v","","","","","","","","","","","","","","","","","","","","","","","","","","","","","","","","","",""
"","html-keyboard-response","297","243283","0.0-376.0","tp93v20v","1280","720","","","","","","","","","","","null","+","Fixation - short","","null","","","","","","","","","","","","","","","","",""
"","html-keyboard-response","298","243909","0.0-377.0","tp93v20v","","","","","","","","","","","","","625","cnl","Diagnostic trial","","f","","4","1","4","false","false","false","both pre & post","RIGHT","RIGHT","j","0","true","","","",""
"","call-function","299","243910","0.0-379.0-0.0","tp93v20v","","","","","","","","","","","","","","","","","","","","","","","","","","","","","","","","","",""
"","html-keyboard-response","300","244214","0.0-379.0-1.0","tp93v20v","1280","720","","","","","","","","","","","null","Wrong","Feedback","","null","","","","","","","","","","","","","","","","",""
"","call-function","301","244215","0.0-379.0-2.0","tp93v20v","","","","","","","","","","","","","","","","","","","","","","","","","","","","","","","","","",""
"","html-keyboard-response","302","244985","0.0-380.0","tp93v20v","1280","720","","","","","","","","","","","null","+","Fixation - short","","null","","","","","","","","","","","","","","","","",""
"","html-keyboard-response","303","245056","0.0-381.0","tp93v20v","","","","","","","","","","","","","70","fja","Diagnostic trial","","j","","4","2","4","false","false","false","both pre & post","LEFT","RIGHT","j","1","false","","","",""
"","html-keyboard-response","304","245814","0.0-384.0","tp93v20v","1280","720","","","","","","","","","","","null","+","Fixation - short","","null","","","","","","","","","","","","","","","","",""
"","html-keyboard-response","305","246136","0.0-385.0","tp93v20v","","","","","","","","","","","","","321","fja","Diagnostic trial","","j","","4","3","4","false","false","true","both pre & post","LEFT","LEFT","f","0","true","","","",""
"","call-function","306","246137","0.0-387.0-0.0","tp93v20v","","","","","","","","","","","","","","","","","","","","","","","","","","","","","","","","","",""
"","html-keyboard-response","307","246444","0.0-387.0-1.0","tp93v20v","1280","720","","","","","","","","","","","null","Wrong","Feedback","","null","","","","","","","","","","","","","","","","",""
"","call-function","308","246445","0.0-387.0-2.0","tp93v20v","","","","","","","","","","","","","","","","","","","","","","","","","","","","","","","","","",""
"","html-keyboard-response","309","247204","0.0-388.0","tp93v20v","1280","720","","","","","","","","","","","null","+","Fixation - short","","null","","","","","","","","","","","","","","","","",""
"","canvas-keyboard-response","310","248465","0.0-389.0","tp93v20v","","","","","","","","","","","","","null","Cue","Cue","","null","","4","3","","","false","","","","","","","","","","",""
"","html-keyboard-response","311","249227","0.0-390.0","tp93v20v","1280","720","","","","","","","","","","","null","+","Fixation - short","","null","","","","","","","","","","","","","","","","",""
"","html-keyboard-response","312","249626","0.0-391.0","tp93v20v","","","","","","","","","","","","","398","cnl","Diagnostic trial","","j","","4","4","4","true","false","true","both pre & post","RIGHT","LEFT","f","0","false","","","",""
"","call-function","313","249627","0.0-393.0-0.0","tp93v20v","","","","","","","","","","","","","","","","","","","","","","","","","","","","","","","","","",""
"","html-keyboard-response","314","249939","0.0-393.0-1.0","tp93v20v","1280","720","","","","","","","","","","","null","Wrong","Feedback","","null","","","","","","","","","","","","","","","","",""
"","call-function","315","249940","0.0-393.0-2.0","tp93v20v","","","","","","","","","","","","","","","","","","","","","","","","","","","","","","","","","",""
"","html-keyboard-response","316","250700","0.0-394.0","tp93v20v","1280","720","","","","","","","","","","","null","+","Fixation - short","","null","","","","","","","","","","","","","","","","",""
"","html-keyboard-response","317","250701","0.0-395.0","tp93v20v","","","","","","","","","","","","","0","cnl","Diagnostic trial","","f","","4","5","4","true","false","false","both pre & post","RIGHT","RIGHT","j","0","true","","","",""
"","call-function","318","250702","0.0-397.0-0.0","tp93v20v","","","","","","","","","","","","","","","","","","","","","","","","","","","","","","","","","",""
"","html-keyboard-response","319","251004","0.0-397.0-1.0","tp93v20v","1280","720","","","","","","","","","","","null","Wrong","Feedback","","null","","","","","","","","","","","","","","","","",""
"","call-function","320","251005","0.0-397.0-2.0","tp93v20v","","","","","","","","","","","","","","","","","","","","","","","","","","","","","","","","","",""
"","html-keyboard-response","321","251764","0.0-398.0","tp93v20v","1280","720","","","","","","","","","","","null","+","Fixation - short","","null","","","","","","","","","","","","","","","","",""
"","html-keyboard-response","322","251808","0.0-399.0","tp93v20v","","","","","","","","","","","","","42","fja","Diagnostic trial","","j","","4","6","4","true","false","false","both pre & post","LEFT","RIGHT","j","1","false","","","",""
"","html-keyboard-response","323","252564","0.0-402.0","tp93v20v","1280","720","","","","","","","","","","","null","+","Fixation - short","","null","","","","","","","","","","","","","","","","",""
"","html-keyboard-response","324","253410","0.0-403.0","tp93v20v","","","","","","","","","","","","","844","cnl","Inducer trial","","f","","4","","","","true","","","","","j","0","","false","RIGHT","",""
"","call-function","325","253411","0.0-405.0-0.0","tp93v20v","","","","","","","","","","","","","","","","","","","","","","","","","","","","","","","","","",""
"","html-keyboard-response","326","253724","0.0-405.0-1.0","tp93v20v","1280","720","","","","","","","","","","","null","Wrong","Feedback","","null","","","","","","","","","","","","","","","","",""
"","call-function","327","253725","0.0-405.0-2.0","tp93v20v","","","","","","","","","","","","","","","","","","","","","","","","","","","","","","","","","",""
"","html-keyboard-response","328","254478","0.0-406.0","tp93v20v","1280","720","","","","","","","","","","","null","+","Fixation - short","","null","","","","","","","","","","","","","","","","",""
"","html-keyboard-response","329","255455","0.0-407.0","tp93v20v","","","","","","","","","","","","","976","If lff press LEFT | If jlm press RIGHT","Inducer instructions",""," ","","5","","","","","","","","","","","","","","",""
"","html-keyboard-response","330","256215","0.0-408.0","tp93v20v","1280","720","","","","","","","","","","","null","+","Fixation - short","","null","","","","","","","","","","","","","","","","",""
"","html-keyboard-response","331","256644","0.0-409.0","tp93v20v","","","","","","","","","","","","","427","jlm","Diagnostic trial","","f","","5","0","6","false","false","false","both pre & post","RIGHT","RIGHT","j","0","true","","","",""
"","call-function","332","256644","0.0-411.0-0.0","tp93v20v","","","","","","","","","","","","","","","","","","","","","","","","","","","","","","","","","",""
"","html-keyboard-response","333","256954","0.0-411.0-1.0","tp93v20v","1280","720","","","","","","","","","","","null","Wrong","Feedback","","null","","","","","","","","","","","","","","","","",""
"","call-function","334","256955","0.0-411.0-2.0","tp93v20v","","","","","","","","","","","","","","","","","","","","","","","","","","","","","","","","","",""
"","html-keyboard-response","335","257708","0.0-412.0","tp93v20v","1280","720","","","","","","","","","","","null","+","Fixation - short","","null","","","","","","","","","","","","","","","","",""
"","html-keyboard-response","336","258161","0.0-413.0","tp93v20v","","","","","","","","","","","","","452","jlm","Diagnostic trial","","j","","5","1","6","false","false","true","both pre & post","RIGHT","LEFT","f","0","false","","","",""
"","call-function","337","258162","0.0-415.0-0.0","tp93v20v","","","","","","","","","","","","","","","","","","","","","","","","","","","","","","","","","",""
"","html-keyboard-response","338","258464","0.0-415.0-1.0","tp93v20v","1280","720","","","","","","","","","","","null","Wrong","Feedback","","null","","","","","","","","","","","","","","","","",""
"","call-function","339","258465","0.0-415.0-2.0","tp93v20v","","","","","","","","","","","","","","","","","","","","","","","","","","","","","","","","","",""
"","html-keyboard-response","340","259224","0.0-416.0","tp93v20v","1280","720","","","","","","","","","","","null","+","Fixation - short","","null","","","","","","","","","","","","","","","","",""
"","html-keyboard-response","341","259516","0.0-417.0","tp93v20v","","","","","","","","","","","","","291","lff","Diagnostic trial","","j","","5","2","6","false","false","true","both pre & post","LEFT","LEFT","f","0","true","","","",""
"","call-function","342","259517","0.0-419.0-0.0","tp93v20v","","","","","","","","","","","","","","","","","","","","","","","","","","","","","","","","","",""
"","html-keyboard-response","343","259824","0.0-419.0-1.0","tp93v20v","1280","720","","","","","","","","","","","null","Wrong","Feedback","","null","","","","","","","","","","","","","","","","",""
"","call-function","344","259825","0.0-419.0-2.0","tp93v20v","","","","","","","","","","","","","","","","","","","","","","","","","","","","","","","","","",""
"","html-keyboard-response","345","260584","0.0-420.0","tp93v20v","1280","720","","","","","","","","","","","null","+","Fixation - short","","null","","","","","","","","","","","","","","","","",""
"","html-keyboard-response","346","260936","0.0-421.0","tp93v20v","","","","","","","","","","","","","352","lff","Diagnostic trial","","f","","5","3","6","false","false","true","both pre & post","LEFT","LEFT","f","1","true","","","",""
"","html-keyboard-response","347","261704","0.0-424.0","tp93v20v","1280","720","","","","","","","","","","","null","+","Fixation - short","","null","","","","","","","","","","","","","","","","",""
"","html-keyboard-response","348","262041","0.0-425.0","tp93v20v","","","","","","","","","","","","","336","jlm","Diagnostic trial","","f","","5","4","6","false","false","false","both pre & post","RIGHT","RIGHT","j","0","true","","","",""
"","call-function","349","262042","0.0-427.0-0.0","tp93v20v","","","","","","","","","","","","","","","","","","","","","","","","","","","","","","","","","",""
"","html-keyboard-response","350","262344","0.0-427.0-1.0","tp93v20v","1280","720","","","","","","","","","","","null","Wrong","Feedback","","null","","","","","","","","","","","","","","","","",""
"","call-function","351","262345","0.0-427.0-2.0","tp93v20v","","","","","","","","","","","","","","","","","","","","","","","","","","","","","","","","","",""
"","html-keyboard-response","352","263105","0.0-428.0","tp93v20v","1280","720","","","","","","","","","","","null","+","Fixation - short","","null","","","","","","","","","","","","","","","","",""
"","html-keyboard-response","353","264198","0.0-429.0","tp93v20v","","","","","","","","","","","","","1092","jlm","Diagnostic trial","","f","","5","5","6","false","false","true","both pre & post","RIGHT","LEFT","f","1","false","","","",""
"","html-keyboard-response","354","264962","0.0-432.0","tp93v20v","1280","720","","","","","","","","","","","null","+","Fixation - short","","null","","","","","","","","","","","","","","","","",""
"","canvas-keyboard-response","355","266224","0.0-433.0","tp93v20v","","","","","","","","","","","","","null","Cue","Cue","","null","","5","5","","","false","","","","","","","","","","",""
"","html-keyboard-response","356","266985","0.0-434.0","tp93v20v","1280","720","","","","","","","","","","","null","+","Fixation - short","","null","","","","","","","","","","","","","","","","",""
"","html-keyboard-response","357","267428","0.0-435.0","tp93v20v","","","","","","","","","","","","","442","lff","Diagnostic trial","","j","","5","6","6","true","false","true","both pre & post","LEFT","LEFT","f","0","true","","","",""
"","call-function","358","267428","0.0-437.0-0.0","tp93v20v","","","","","","","","","","","","","","","","","","","","","","","","","","","","","","","","","",""
"","html-keyboard-response","359","267745","0.0-437.0-1.0","tp93v20v","1280","720","","","","","","","","","","","null","Wrong","Feedback","","null","","","","","","","","","","","","","","","","",""
"","call-function","360","267746","0.0-437.0-2.0","tp93v20v","","","","","","","","","","","","","","","","","","","","","","","","","","","","","","","","","",""
"","html-keyboard-response","361","268504","0.0-438.0","tp93v20v","1280","720","","","","","","","","","","","null","+","Fixation - short","","null","","","","","","","","","","","","","","","","",""
"","html-keyboard-response","362","268683","0.0-439.0","tp93v20v","","","","","","","","","","","","","177","jlm","Diagnostic trial","","f","","5","7","6","true","false","false","both pre & post","RIGHT","RIGHT","j","0","true","","","",""
"","call-function","363","268684","0.0-441.0-0.0","tp93v20v","","","","","","","","","","","","","","","","","","","","","","","","","","","","","","","","","",""
"","html-keyboard-response","364","268994","0.0-441.0-1.0","tp93v20v","1280","720","","","","","","","","","","","null","Wrong","Feedback","","null","","","","","","","","","","","","","","","","",""
"","call-function","365","268995","0.0-441.0-2.0","tp93v20v","","","","","","","","","","","","","","","","","","","","","","","","","","","","","","","","","",""
"","html-keyboard-response","366","269765","0.0-442.0","tp93v20v","1280","720","","","","","","","","","","","null","+","Fixation - short","","null","","","","","","","","","","","","","","","","",""
"","html-keyboard-response","367","269996","0.0-443.0","tp93v20v","","","","","","","","","","","","","230","lff","Diagnostic trial","","j","","5","8","6","true","false","true","both pre & post","LEFT","LEFT","f","0","true","","","",""
"","call-function","368","269997","0.0-445.0-0.0","tp93v20v","","","","","","","","","","","","","","","","","","","","","","","","","","","","","","","","","",""
"","html-keyboard-response","369","270304","0.0-445.0-1.0","tp93v20v","1280","720","","","","","","","","","","","null","Wrong","Feedback","","null","","","","","","","","","","","","","","","","",""
"","call-function","370","270305","0.0-445.0-2.0","tp93v20v","","","","","","","","","","","","","","","","","","","","","","","","","","","","","","","","","",""
"","html-keyboard-response","371","271065","0.0-446.0","tp93v20v","1280","720","","","","","","","","","","","null","+","Fixation - short","","null","","","","","","","","","","","","","","","","",""
"","html-keyboard-response","372","272294","0.0-447.0","tp93v20v","","","","","","","","","","","","","1227","lff","Diagnostic trial","","f","","5","9","6","true","false","true","both pre & post","LEFT","LEFT","f","1","true","","","",""
"","html-keyboard-response","373","273064","0.0-450.0","tp93v20v","1280","720","","","","","","","","","","","null","+","Fixation - short","","null","","","","","","","","","","","","","","","","",""
"","html-keyboard-response","374","273449","0.0-451.0","tp93v20v","","","","","","","","","","","","","383","jlm","Inducer trial","","f","","5","","","","true","","","","","j","0","","false","RIGHT","",""
"","call-function","375","273450","0.0-453.0-0.0","tp93v20v","","","","","","","","","","","","","","","","","","","","","","","","","","","","","","","","","",""
"","html-keyboard-response","376","273764","0.0-453.0-1.0","tp93v20v","1280","720","","","","","","","","","","","null","Wrong","Feedback","","null","","","","","","","","","","","","","","","","",""
"","call-function","377","273765","0.0-453.0-2.0","tp93v20v","","","","","","","","","","","","","","","","","","","","","","","","","","","","","","","","","",""
"","html-keyboard-response","378","274524","0.0-454.0","tp93v20v","1280","720","","","","","","","","","","","null","+","Fixation - short","","null","","","","","","","","","","","","","","","","",""
"","html-keyboard-response","379","275293","0.0-455.0","tp93v20v","","","","","","","","","","","","","768","If fuc press LEFT | If hhd press RIGHT","Inducer instructions",""," ","","6","","","","","","","","","","","","","","",""
"","html-keyboard-response","380","276053","0.0-456.0","tp93v20v","1280","720","","","","","","","","","","","null","+","Fixation - short","","null","","","","","","","","","","","","","","","","",""
"","html-keyboard-response","381","277199","0.0-457.0","tp93v20v","","","","","","","","","","","","","1145","fuc","Diagnostic trial","","j","","6","0","10","false","false","true","both pre & post","LEFT","LEFT","f","0","true","","","",""
"","call-function","382","277200","0.0-459.0-0.0","tp93v20v","","","","","","","","","","","","","","","","","","","","","","","","","","","","","","","","","",""
"","html-keyboard-response","383","277505","0.0-459.0-1.0","tp93v20v","1280","720","","","","","","","","","","","null","Wrong","Feedback","","null","","","","","","","","","","","","","","","","",""
"","call-function","384","277505","0.0-459.0-2.0","tp93v20v","","","","","","","","","","","","","","","","","","","","","","","","","","","","","","","","","",""
"","html-keyboard-response","385","278274","0.0-460.0","tp93v20v","1280","720","","","","","","","","","","","null","+","Fixation - short","","null","","","","","","","","","","","","","","","","",""
"","html-keyboard-response","386","278703","0.0-461.0","tp93v20v","","","","","","","","","","","","","428","hhd","Diagnostic trial","","f","","6","1","10","false","false","false","both pre & post","RIGHT","RIGHT","j","0","true","","","",""
"","call-function","387","278703","0.0-463.0-0.0","tp93v20v","","","","","","","","","","","","","","","","","","","","","","","","","","","","","","","","","",""
"","html-keyboard-response","388","279014","0.0-463.0-1.0","tp93v20v","1280","720","","","","","","","","","","","null","Wrong","Feedback","","null","","","","","","","","","","","","","","","","",""
"","call-function","389","279016","0.0-463.0-2.0","tp93v20v","","","","","","","","","","","","","","","","","","","","","","","","","","","","","","","","","",""
"","html-keyboard-response","390","279773","0.0-464.0","tp93v20v","1280","720","","","","","","","","","","","null","+","Fixation - short","","null","","","","","","","","","","","","","","","","",""
"","html-keyboard-response","391","280003","0.0-465.0","tp93v20v","","","","","","","","","","","","","229","hhd","Diagnostic trial","","f","","6","2","10","false","false","true","both pre & post","RIGHT","LEFT","f","1","false","","","",""
"","html-keyboard-response","392","280764","0.0-468.0","tp93v20v","1280","720","","","","","","","","","","","null","+","Fixation - short","","null","","","","","","","","","","","","","","","","",""
"","html-keyboard-response","393","281294","0.0-469.0","tp93v20v","","","","","","","","","","","","","529","fuc","Diagnostic trial","","f","","6","3","10","false","false","true","both pre & post","LEFT","LEFT","f","1","true","","","",""
"","html-keyboard-response","394","282054","0.0-472.0","tp93v20v","1280","720","","","","","","","","","","","null","+","Fixation - short","","null","","","","","","","","","","","","","","","","",""
"","html-keyboard-response","395","282605","0.0-473.0","tp93v20v","","","","","","","","","","","","","550","fuc","Diagnostic trial","","j","","6","4","10","false","false","false","both pre & post","LEFT","RIGHT","j","1","false","","","",""
"","html-keyboard-response","396","283375","0.0-476.0","tp93v20v","1280","720","","","","","","","","","","","null","+","Fixation - short","","null","","","","","","","","","","","","","","","","",""
"","html-keyboard-response","397","283945","0.0-477.0","tp93v20v","","","","","","","","","","","","","568","fuc","Diagnostic trial","","f","","6","5","10","false","false","true","both pre & post","LEFT","LEFT","f","1","true","","","",""
"","html-keyboard-response","398","284707","0.0-480.0","tp93v20v","1280","720","","","","","","","","","","","null","+","Fixation - short","","null","","","","","","","","","","","","","","","","",""
"","html-keyboard-response","399","285221","0.0-481.0","tp93v20v","","","","","","","","","","","","","513","hhd","Diagnostic trial","","j","","6","6","10","false","false","true","both pre & post","RIGHT","LEFT","f","0","false","","","",""
"","call-function","400","285222","0.0-483.0-0.0","tp93v20v","","","","","","","","","","","","","","","","","","","","","","","","","","","","","","","","","",""
"","html-keyboard-response","401","285524","0.0-483.0-1.0","tp93v20v","1280","720","","","","","","","","","","","null","Wrong","Feedback","","null","","","","","","","","","","","","","","","","",""
"","call-function","402","285525","0.0-483.0-2.0","tp93v20v","","","","","","","","","","","","","","","","","","","","","","","","","","","","","","","","","",""
"","html-keyboard-response","403","286284","0.0-484.0","tp93v20v","1280","720","","","","","","","","","","","null","+","Fixation - short","","null","","","","","","","","","","","","","","","","",""
"","html-keyboard-response","404","286332","0.0-485.0","tp93v20v","","","","","","","","","","","","","46","hhd","Diagnostic trial","","f","","6","7","10","false","false","false","both pre & post","RIGHT","RIGHT","j","0","true","","","",""
"","call-function","405","286333","0.0-487.0-0.0","tp93v20v","","","","","","","","","","","","","","","","","","","","","","","","","","","","","","","","","",""
"","html-keyboard-response","406","286639","0.0-487.0-1.0","tp93v20v","1280","720","","","","","","","","","","","null","Wrong","Feedback","","null","","","","","","","","","","","","","","","","",""
"","call-function","407","286639","0.0-487.0-2.0","tp93v20v","","","","","","","","","","","","","","","","","","","","","","","","","","","","","","","","","",""
"","html-keyboard-response","408","287404","0.0-488.0","tp93v20v","1280","720","","","","","","","","","","","null","+","Fixation - short","","null","","","","","","","","","","","","","","","","",""
"","html-keyboard-response","409","287916","0.0-489.0","tp93v20v","","","","","","","","","","","","","511","fuc","Diagnostic trial","","f","","6","8","10","false","false","true","both pre & post","LEFT","LEFT","f","1","true","","","",""
"","html-keyboard-response","410","288684","0.0-492.0","tp93v20v","1280","720","","","","","","","","","","","null","+","Fixation - short","","null","","","","","","","","","","","","","","","","",""
"","html-keyboard-response","411","289101","0.0-493.0","tp93v20v","","","","","","","","","","","","","416","fuc","Diagnostic trial","","j","","6","9","10","false","false","false","both pre & post","LEFT","RIGHT","j","1","false","","","",""
"","html-keyboard-response","412","289864","0.0-496.0","tp93v20v","1280","720","","","","","","","","","","","null","+","Fixation - short","","null","","","","","","","","","","","","","","","","",""
"","canvas-keyboard-response","413","291124","0.0-497.0","tp93v20v","","","","","","","","","","","","","null","Cue","Cue","","null","","6","9","","","false","","","","","","","","","","",""
"","html-keyboard-response","414","291885","0.0-498.0","tp93v20v","1280","720","","","","","","","","","","","null","+","Fixation - short","","null","","","","","","","","","","","","","","","","",""
"","html-keyboard-response","415","292311","0.0-499.0","tp93v20v","","","","","","","","","","","","","424","fuc","Diagnostic trial","","f","","6","10","10","true","false","true","both pre & post","LEFT","LEFT","f","1","true","","","",""
"","html-keyboard-response","416","293074","0.0-502.0","tp93v20v","1280","720","","","","","","","","","","","null","+","Fixation - short","","null","","","","","","","","","","","","","","","","",""
"","html-keyboard-response","417","293512","0.0-503.0","tp93v20v","","","","","","","","","","","","","437","hhd","Diagnostic trial","","j","","6","11","10","true","false","false","both pre & post","RIGHT","RIGHT","j","1","true","","","",""
"","html-keyboard-response","418","294285","0.0-506.0","tp93v20v","1280","720","","","","","","","","","","","null","+","Fixation - short","","null","","","","","","","","","","","","","","","","",""
"","html-keyboard-response","419","294778","0.0-507.0","tp93v20v","","","","","","","","","","","","","492","fuc","Diagnostic trial","","f","","6","12","10","true","false","true","both pre & post","LEFT","LEFT","f","1","true","","","",""
"","html-keyboard-response","420","295544","0.0-510.0","tp93v20v","1280","720","","","","","","","","","","","null","+","Fixation - short","","null","","","","","","","","","","","","","","","","",""
"","html-keyboard-response","421","296241","0.0-511.0","tp93v20v","","","","","","","","","","","","","695","fuc","Inducer trial","","f","","6","","","","true","","","","","f","1","","false","LEFT","",""
"","html-keyboard-response","422","297004","0.0-514.0","tp93v20v","1280","720","","","","","","","","","","","null","+","Fixation - short","","null","","","","","","","","","","","","","","","","",""
"","html-keyboard-response","423","297731","0.0-515.0","tp93v20v","","","","","","","","","","","","","725","If ivr press LEFT | If hlb press RIGHT","Inducer instructions",""," ","","7","","","","","","","","","","","","","","",""
"","html-keyboard-response","424","298494","0.0-516.0","tp93v20v","1280","720","","","","","","","","","","","null","+","Fixation - short","","null","","","","","","","","","","","","","","","","",""
"","html-keyboard-response","425","298803","0.0-517.0","tp93v20v","","","","","","","","","","","","","308","ivr","Diagnostic trial","","f","","7","0","8","false","false","true","both pre & post","LEFT","LEFT","f","1","true","","","",""
"","html-keyboard-response","426","299564","0.0-520.0","tp93v20v","1280","720","","","","","","","","","","","null","+","Fixation - short","","null","","","","","","","","","","","","","","","","",""
"","html-keyboard-response","427","299851","0.0-521.0","tp93v20v","","","","","","","","","","","","","285","hlb","Diagnostic trial","","f","","7","1","8","false","false","true","both pre & post","RIGHT","LEFT","f","1","false","","","",""
"","html-keyboard-response","428","300619","0.0-524.0","tp93v20v","1280","720","","","","","","","","","","","null","+","Fixation - short","","null","","","","","","","","","","","","","","","","",""
"","html-keyboard-response","429","300988","0.0-525.0","tp93v20v","","","","","","","","","","","","","368","ivr","Diagnostic trial","","f","","7","2","8","false","false","true","both pre & post","LEFT","LEFT","f","1","true","","","",""
"","html-keyboard-response","430","301745","0.0-528.0","tp93v20v","1280","720","","","","","","","","","","","null","+","Fixation - short","","null","","","","","","","","","","","","","","","","",""
"","html-keyboard-response","431","302092","0.0-529.0","tp93v20v","","","","","","","","","","","","","346","hlb","Diagnostic trial","","f","","7","3","8","false","false","false","both pre & post","RIGHT","RIGHT","j","0","true","","","",""
"","call-function","432","302092","0.0-531.0-0.0","tp93v20v","","","","","","","","","","","","","","","","","","","","","","","","","","","","","","","","","",""
"","html-keyboard-response","433","302404","0.0-531.0-1.0","tp93v20v","1280","720","","","","","","","","","","","null","Wrong","Feedback","","null","","","","","","","","","","","","","","","","",""
"","call-function","434","302405","0.0-531.0-2.0","tp93v20v","","","","","","","","","","","","","","","","","","","","","","","","","","","","","","","","","",""
"","html-keyboard-response","435","303175","0.0-532.0","tp93v20v","1280","720","","","","","","","","","","","null","+","Fixation - short","","null","","","","","","","","","","","","","","","","",""
"","html-keyboard-response","436","303991","0.0-533.0","tp93v20v","","","","","","","","","","","","","815","hlb","Diagnostic trial","","f","","7","4","8","false","false","false","both pre & post","RIGHT","RIGHT","j","0","true","","","",""
"","call-function","437","303992","0.0-535.0-0.0","tp93v20v","","","","","","","","","","","","","","","","","","","","","","","","","","","","","","","","","",""
"","html-keyboard-response","438","304305","0.0-535.0-1.0","tp93v20v","1280","720","","","","","","","","","","","null","Wrong","Feedback","","null","","","","","","","","","","","","","","","","",""
"","call-function","439","304305","0.0-535.0-2.0","tp93v20v","","","","","","","","","","","","","","","","","","","","","","","","","","","","","","","","","",""
"","html-keyboard-response","440","305064","0.0-536.0","tp93v20v","1280","720","","","","","","","","","","","null","+","Fixation - short","","null","","","","","","","","","","","","","","","","",""
"","html-keyboard-response","441","305518","0.0-537.0","tp93v20v","","","","","","","","","","","","","453","hlb","Diagnostic trial","","j","","7","5","8","false","false","false","both pre & post","RIGHT","RIGHT","j","1","true","","","",""
"","html-keyboard-response","442","306274","0.0-540.0","tp93v20v","1280","720","","","","","","","","","","","null","+","Fixation - short","","null","","","","","","","","","","","","","","","","",""
"","html-keyboard-response","443","306608","0.0-541.0","tp93v20v","","","","","","","","","","","","","332","ivr","Diagnostic trial","","j","","7","6","8","false","false","true","both pre & post","LEFT","LEFT","f","0","true","","","",""
"","call-function","444","306609","0.0-543.0-0.0","tp93v20v","","","","","","","","","","","","","","","","","","","","","","","","","","","","","","","","","",""
"","html-keyboard-response","445","306924","0.0-543.0-1.0","tp93v20v","1280","720","","","","","","","","","","","null","Wrong","Feedback","","null","","","","","","","","","","","","","","","","",""
"","call-function","446","306925","0.0-543.0-2.0","tp93v20v","","","","","","","","","","","","","","","","","","","","","","","","","","","","","","","","","",""
"","html-keyboard-response","447","307684","0.0-544.0","tp93v20v","1280","720","","","","","","","","","","","null","+","Fixation - short","","null","","","","","","","","","","","","","","","","",""
"","html-keyboard-response","448","307916","0.0-545.0","tp93v20v","","","","","","","","","","","","","231","hlb","Diagnostic trial","","j","","7","7","8","false","false","false","both pre & post","RIGHT","RIGHT","j","1","true","","","",""
"","html-keyboard-response","449","308675","0.0-548.0","tp93v20v","1280","720","","","","","","","","","","","null","+","Fixation - short","","null","","","","","","","","","","","","","","","","",""
"","canvas-keyboard-response","450","309934","0.0-549.0","tp93v20v","","","","","","","","","","","","","null","Cue","Cue","","null","","7","7","","","false","","","","","","","","","","",""
"","html-keyboard-response","451","310696","0.0-550.0","tp93v20v","1280","720","","","","","","","","","","","null","+","Fixation - short","","null","","","","","","","","","","","","","","","","",""
"","html-keyboard-response","452","311157","0.0-551.0","tp93v20v","","","","","","","","","","","","","460","hlb","Diagnostic trial","","f","","7","8","8","true","false","false","both pre & post","RIGHT","RIGHT","j","0","true","","","",""
"","call-function","453","311158","0.0-553.0-0.0","tp93v20v","","","","","","","","","","","","","","","","","","","","","","","","","","","","","","","","","",""
"","html-keyboard-response","454","311464","0.0-553.0-1.0","tp93v20v","1280","720","","","","","","","","","","","null","Wrong","Feedback","","null","","","","","","","","","","","","","","","","",""
"","call-function","455","311465","0.0-553.0-2.0","tp93v20v","","","","","","","","","","","","","","","","","","","","","","","","","","","","","","","","","",""
"","html-keyboard-response","456","312224","0.0-554.0","tp93v20v","1280","720","","","","","","","","","","","null","+","Fixation - short","","null","","","","","","","","","","","","","","","","",""
"","html-keyboard-response","457","312817","0.0-555.0","tp93v20v","","","","","","","","","","","","","592","hlb","Diagnostic trial","","j","","7","9","8","true","false","false","both pre & post","RIGHT","RIGHT","j","1","true","","","",""
"","html-keyboard-response","458","313584","0.0-558.0","tp93v20v","1280","720","","","","","","","","","","","null","+","Fixation - short","","null","","","","","","","","","","","","","","","","",""
"","html-keyboard-response","459","314144","0.0-559.0","tp93v20v","","","","","","","","","","","","","558","ivr","Diagnostic trial","","j","","7","10","8","true","false","false","both pre & post","LEFT","RIGHT","j","1","false","","","",""
"","html-keyboard-response","460","314904","0.0-562.0","tp93v20v","1280","720","","","","","","","","","","","null","+","Fixation - short","","null","","","","","","","","","","","","","","","","",""
"","html-keyboard-response","461","315397","0.0-563.0","tp93v20v","","","","","","","","","","","","","492","hlb","Inducer trial","","f","","7","","","","true","","","","","j","0","","false","RIGHT","",""
"","call-function","462","315398","0.0-565.0-0.0","tp93v20v","","","","","","","","","","","","","","","","","","","","","","","","","","","","","","","","","",""
"","html-keyboard-response","463","315714","0.0-565.0-1.0","tp93v20v","1280","720","","","","","","","","","","","null","Wrong","Feedback","","null","","","","","","","","","","","","","","","","",""
"","call-function","464","315715","0.0-565.0-2.0","tp93v20v","","","","","","","","","","","","","","","","","","","","","","","","","","","","","","","","","",""
"","html-keyboard-response","465","316485","0.0-566.0","tp93v20v","1280","720","","","","","","","","","","","null","+","Fixation - short","","null","","","","","","","","","","","","","","","","",""
"","html-keyboard-response","466","317174","0.0-567.0","tp93v20v","","","","","","","","","","","","","687","If prg press LEFT | If glp press RIGHT","Inducer instructions",""," ","","8","","","","","","","","","","","","","","",""
"","html-keyboard-response","467","317944","0.0-568.0","tp93v20v","1280","720","","","","","","","","","","","null","+","Fixation - short","","null","","","","","","","","","","","","","","","","",""
"","html-keyboard-response","468","319157","0.0-569.0","tp93v20v","","","","","","","","","","","","","1212","prg","Diagnostic trial","","j","","8","0","7","false","false","false","both pre & post","LEFT","RIGHT","j","1","false","","","",""
"","html-keyboard-response","469","319923","0.0-572.0","tp93v20v","1280","720","","","","","","","","","","","null","+","Fixation - short","","null","","","","","","","","","","","","","","","","",""
"","html-keyboard-response","470","320198","0.0-573.0","tp93v20v","","","","","","","","","","","","","274","glp","Diagnostic trial","","j","","8","1","7","false","false","false","both pre & post","RIGHT","RIGHT","j","1","true","","","",""
"","html-keyboard-response","471","320964","0.0-576.0","tp93v20v","1280","720","","","","","","","","","","","null","+","Fixation - short","","null","","","","","","","","","","","","","","","","",""
"","html-keyboard-response","472","321507","0.0-577.0","tp93v20v","","","","","","","","","","","","","541","glp","Diagnostic trial","","j","","8","2","7","false","false","false","both pre & post","RIGHT","RIGHT","j","1","true","","","",""
"","html-keyboard-response","473","322264","0.0-580.0","tp93v20v","1280","720","","","","","","","","","","","null","+","Fixation - short","","null","","","","","","","","","","","","","","","","",""
"","html-keyboard-response","474","322663","0.0-581.0","tp93v20v","","","","","","","","","","","","","397","prg","Diagnostic trial","","j","","8","3","7","false","false","false","both pre & post","LEFT","RIGHT","j","1","false","","","",""
"","html-keyboard-response","475","323424","0.0-584.0","tp93v20v","1280","720","","","","","","","","","","","null","+","Fixation - short","","null","","","","","","","","","","","","","","","","",""
"","html-keyboard-response","476","323800","0.0-585.0","tp93v20v","","","","","","","","","","","","","375","glp","Diagnostic trial","","j","","8","4","7","false","false","false","both pre & post","RIGHT","RIGHT","j","1","true","","","",""
"","html-keyboard-response","477","324565","0.0-588.0","tp93v20v","1280","720","","","","","","","","","","","null","+","Fixation - short","","null","","","","","","","","","","","","","","","","",""
"","html-keyboard-response","478","324881","0.0-589.0","tp93v20v","","","","","","","","","","","","","315","prg","Diagnostic trial","","j","","8","5","7","false","false","true","both pre & post","LEFT","LEFT","f","0","true","","","",""
"","call-function","479","324881","0.0-591.0-0.0","tp93v20v","","","","","","","","","","","","","","","","","","","","","","","","","","","","","","","","","",""
"","html-keyboard-response","480","325194","0.0-591.0-1.0","tp93v20v","1280","720","","","","","","","","","","","null","Wrong","Feedback","","null","","","","","","","","","","","","","","","","",""
"","call-function","481","325195","0.0-591.0-2.0","tp93v20v","","","","","","","","","","","","","","","","","","","","","","","","","","","","","","","","","",""
"","html-keyboard-response","482","325949","0.0-592.0","tp93v20v","1280","720","","","","","","","","","","","null","+","Fixation - short","","null","","","","","","","","","","","","","","","","",""
