"value","trial_type","trial_index","time_elapsed","internal_node_id","id","width","height","webaudio","browser","browser_version","mobile","os","fullscreen","vsync_rate","webcam","microphone","view_history","rt","stimulus","trial_info","success","response","exp_parameters","inducer_run","diagnostic_run","cue_num","post_cue","inducer_trial","italic","forced_equal_run","correct_inducer_response_side","correct_diag_response_side","correct_response_key","correct_response","congruent","force_equal","correct_indu_response_side","accuracy","interactive"
"","call-function","0","7","0.0-0.0","6uo93rsj","","","","","","","","","","","","","","","","","","","","","","","","","","","","","","","","","",""
"","browser-check","1","997","0.0-1.0","6uo93rsj","1366","607","true","chrome","119.0.0","false","Windows 10","true","61.72","true","true","","","","","","","","","","","","","","","","","","","","","","",""
"","instructions","2","11361","0.0-2.0","6uo93rsj","","","","","","","","","","","","[{""page_index"":0,""viewing_time"":6416},{""page_index"":1,""viewing_time"":2247},{""page_index"":2,""viewing_time"":1699}]","10362","The experiment and consent","The experiment and consent","","","","","","","","","","","","","","","","","","",""
"","fullscreen","3","14330","0.0-3.0","6uo93rsj","","","","","","","","","","","","","1964","","Full screen","true","","","","","","","","","","","","","","","","","",""
"","instructions","4","17337","0.0-4.0","6uo93rsj","","","","","","","","","","","","[{""page_index"":0,""viewing_time"":1692},{""page_index"":1,""viewing_time"":1312}]","3005","Instructions","Basic overview explanation","","","","","","","","","","","","","","","","","","",""
"","html-keyboard-response","5","21351","0.0-5.0","6uo93rsj","","","","","","","","","","","","","2498","If italic press RIGHT | If upright press LEFT","Diagnostic instructions",""," ","{""debug"":false,""skip_instructions"":false,""skip_practice"":false,""save_local_data"":false,""studu_name"":""exp2"",""default_background_colour"":""#cccccc"",""wrong_response_colour"":""#d22d2d"",""instruction_delay"":20000,""trial_duration"":2000,""short_fixation"":750,""long_fixation"":1500,""wrong_response_delay"":300,""too_slow_delay"":300,""instruction_font_size"":""24px"",""general_font_size"":""42px"",""fixation_size"":""48px"",""allowed_responses"":[""f"",""j""],""cue_min_length"":0,""cue_max_length"":4,""tot_post_cue_len"":72,""cue_colour"":""red"",""cue_shape"":""Square"",""cue_size"":70,""cue_duration"":1250,""avg_number_of_cues"":3,""inducer_colour"":""yellow"",""number_of_inducers"":24,""pre_cue_italic_forced_equal"":true,""post_cue_italic_forced_equal"":true,""prac_diagnostic_rounds"":16,""prac_inducer_rounds"":6,""prac_cue_rounds"":16,""prac_post_cue_num"":3}","","","","","","","","","","","","","","","",""
"","html-keyboard-response","6","22114","0.0-6.0","6uo93rsj","1366","768","","","","","","","","","","","null","+","Fixation - short","","null","","","","","","","","","","","","","","","","",""
"","html-keyboard-response","7","24727","0.0-7.0","6uo93rsj","","","","","","","","","","","","","2612","ila","Diagnostic practice","","j","","Diagnostic practice","0","-84","true","false","true","prac equal","RIGHT","RIGHT","j","1","true","","","",""
"","html-keyboard-response","8","25495","0.0-10.0","6uo93rsj","1366","768","","","","","","","","","","","null","+","Fixation - short","","null","","","","","","","","","","","","","","","","",""
"","html-keyboard-response","9","26262","0.0-11.0","6uo93rsj","","","","","","","","","","","","","765","frn","Diagnostic practice","","f","","Diagnostic practice","1","-84","true","false","true","prac equal","LEFT","RIGHT","j","0","false","","","",""
"","call-function","10","26263","0.0-13.0-0.0","6uo93rsj","","","","","","","","","","","","","","","","","","","","","","","","","","","","","","","","","",""
"","html-keyboard-response","11","26574","0.0-13.0-1.0","6uo93rsj","1366","768","","","","","","","","","","","null","Wrong","Feedback","","null","","","","","","","","","","","","","","","","",""
"","call-function","12","26575","0.0-13.0-2.0","6uo93rsj","","","","","","","","","","","","","","","","","","","","","","","","","","","","","","","","","",""
"","html-keyboard-response","13","27328","0.0-14.0","6uo93rsj","1366","768","","","","","","","","","","","null","+","Fixation - short","","null","","","","","","","","","","","","","","","","",""
"","html-keyboard-response","14","27369","0.0-15.0","6uo93rsj","","","","","","","","","","","","","39","frn","Diagnostic practice","","j","","Diagnostic practice","2","-84","true","false","true","prac equal","LEFT","RIGHT","j","1","false","","","",""
"","html-keyboard-response","15","28122","0.0-18.0","6uo93rsj","1366","768","","","","","","","","","","","null","+","Fixation - short","","null","","","","","","","","","","","","","","","","",""
"","html-keyboard-response","16","28206","0.0-19.0","6uo93rsj","","","","","","","","","","","","","82","ila","Diagnostic practice","","j","","Diagnostic practice","3","-84","true","false","true","prac equal","RIGHT","RIGHT","j","1","true","","","",""
"","html-keyboard-response","17","28959","0.0-22.0","6uo93rsj","1366","768","","","","","","","","","","","null","+","Fixation - short","","null","","","","","","","","","","","","","","","","",""
"","html-keyboard-response","18","29052","0.0-23.0","6uo93rsj","","","","","","","","","","","","","92","frn","Diagnostic practice","","j","","Diagnostic practice","4","-84","true","false","false","prac equal","LEFT","LEFT","f","0","true","","","",""
"","call-function","19","29053","0.0-25.0-0.0","6uo93rsj","","","","","","","","","","","","","","","","","","","","","","","","","","","","","","","","","",""
"","html-keyboard-response","20","29356","0.0-25.0-1.0","6uo93rsj","1366","768","","","","","","","","","","","null","Wrong","Feedback","","null","","","","","","","","","","","","","","","","",""
"","call-function","21","29357","0.0-25.0-2.0","6uo93rsj","","","","","","","","","","","","","","","","","","","","","","","","","","","","","","","","","",""
"","html-keyboard-response","22","30109","0.0-26.0","6uo93rsj","1366","768","","","","","","","","","","","null","+","Fixation - short","","null","","","","","","","","","","","","","","","","",""
"","html-keyboard-response","23","30247","0.0-27.0","6uo93rsj","","","","","","","","","","","","","136","ila","Diagnostic practice","","f","","Diagnostic practice","5","-84","true","false","true","prac equal","RIGHT","RIGHT","j","0","true","","","",""
"","call-function","24","30248","0.0-29.0-0.0","6uo93rsj","","","","","","","","","","","","","","","","","","","","","","","","","","","","","","","","","",""
"","html-keyboard-response","25","30555","0.0-29.0-1.0","6uo93rsj","1366","768","","","","","","","","","","","null","Wrong","Feedback","","null","","","","","","","","","","","","","","","","",""
"","call-function","26","30556","0.0-29.0-2.0","6uo93rsj","","","","","","","","","","","","","","","","","","","","","","","","","","","","","","","","","",""
"","html-keyboard-response","27","31309","0.0-30.0","6uo93rsj","1366","768","","","","","","","","","","","null","+","Fixation - short","","null","","","","","","","","","","","","","","","","",""
"","html-keyboard-response","28","31380","0.0-31.0","6uo93rsj","","","","","","","","","","","","","70","frn","Diagnostic practice","","j","","Diagnostic practice","6","-84","true","false","false","prac equal","LEFT","LEFT","f","0","true","","","",""
"","call-function","29","31382","0.0-33.0-0.0","6uo93rsj","","","","","","","","","","","","","","","","","","","","","","","","","","","","","","","","","",""
"","html-keyboard-response","30","31686","0.0-33.0-1.0","6uo93rsj","1366","768","","","","","","","","","","","null","Wrong","Feedback","","null","","","","","","","","","","","","","","","","",""
"","call-function","31","31687","0.0-33.0-2.0","6uo93rsj","","","","","","","","","","","","","","","","","","","","","","","","","","","","","","","","","",""
"","html-keyboard-response","32","32441","0.0-34.0","6uo93rsj","1366","768","","","","","","","","","","","null","+","Fixation - short","","null","","","","","","","","","","","","","","","","",""
"","html-keyboard-response","33","32574","0.0-35.0","6uo93rsj","","","","","","","","","","","","","132","frn","Diagnostic practice","","f","","Diagnostic practice","7","-84","true","false","false","prac equal","LEFT","LEFT","f","1","true","","","",""
"","html-keyboard-response","34","33337","0.0-38.0","6uo93rsj","1366","768","","","","","","","","","","","null","+","Fixation - short","","null","","","","","","","","","","","","","","","","",""
"","html-keyboard-response","35","33386","0.0-39.0","6uo93rsj","","","","","","","","","","","","","48","ila","Diagnostic practice","","f","","Diagnostic practice","8","-84","true","false","false","prac equal","RIGHT","LEFT","f","1","false","","","",""
"","html-keyboard-response","36","34138","0.0-42.0","6uo93rsj","1366","768","","","","","","","","","","","null","+","Fixation - short","","null","","","","","","","","","","","","","","","","",""
"","html-keyboard-response","37","34180","0.0-43.0","6uo93rsj","","","","","","","","","","","","","40","ila","Diagnostic practice","","f","","Diagnostic practice","9","-84","true","false","false","prac equal","RIGHT","LEFT","f","1","false","","","",""
"","html-keyboard-response","38","34938","0.0-46.0","6uo93rsj","1366","768","","","","","","","","","","","null","+","Fixation - short","","null","","","","","","","","","","","","","","","","",""
"","html-keyboard-response","39","35064","0.0-47.0","6uo93rsj","","","","","","","","","","","","","125","ila","Diagnostic practice","","f","","Diagnostic practice","10","-84","true","false","false","prac equal","RIGHT","LEFT","f","1","false","","","",""
"","html-keyboard-response","40","35821","0.0-50.0","6uo93rsj","1366","768","","","","","","","","","","","null","+","Fixation - short","","null","","","","","","","","","","","","","","","","",""
"","html-keyboard-response","41","36019","0.0-51.0","6uo93rsj","","","","","","","","","","","","","197","ila","Diagnostic practice","","j","","Diagnostic practice","11","-84","true","false","false","prac equal","RIGHT","LEFT","f","0","false","","","",""
"","call-function","42","36020","0.0-53.0-0.0","6uo93rsj","","","","","","","","","","","","","","","","","","","","","","","","","","","","","","","","","",""
"","html-keyboard-response","43","36333","0.0-53.0-1.0","6uo93rsj","1366","768","","","","","","","","","","","null","Wrong","Feedback","","null","","","","","","","","","","","","","","","","",""
"","call-function","44","36334","0.0-53.0-2.0","6uo93rsj","","","","","","","","","","","","","","","","","","","","","","","","","","","","","","","","","",""
"","html-keyboard-response","45","37087","0.0-54.0","6uo93rsj","1366","768","","","","","","","","","","","null","+","Fixation - short","","null","","","","","","","","","","","","","","","","",""
"","html-keyboard-response","46","37109","0.0-55.0","6uo93rsj","","","","","","","","","","","","","21","frn","Diagnostic practice","","f","","Diagnostic practice","12","-84","true","false","true","prac equal","LEFT","RIGHT","j","0","false","","","",""
"","call-function","47","37110","0.0-57.0-0.0","6uo93rsj","","","","","","","","","","","","","","","","","","","","","","","","","","","","","","","","","",""
"","html-keyboard-response","48","37424","0.0-57.0-1.0","6uo93rsj","1366","768","","","","","","","","","","","null","Wrong","Feedback","","null","","","","","","","","","","","","","","","","",""
"","call-function","49","37425","0.0-57.0-2.0","6uo93rsj","","","","","","","","","","","","","","","","","","","","","","","","","","","","","","","","","",""
"","html-keyboard-response","50","38185","0.0-58.0","6uo93rsj","1366","768","","","","","","","","","","","null","+","Fixation - short","","null","","","","","","","","","","","","","","","","",""
"","html-keyboard-response","51","38209","0.0-59.0","6uo93rsj","","","","","","","","","","","","","22","ila","Diagnostic practice","","f","","Diagnostic practice","13","-84","true","false","false","prac equal","RIGHT","LEFT","f","1","false","","","",""
"","html-keyboard-response","52","38967","0.0-62.0","6uo93rsj","1366","768","","","","","","","","","","","null","+","Fixation - short","","null","","","","","","","","","","","","","","","","",""
"","html-keyboard-response","53","39172","0.0-63.0","6uo93rsj","","","","","","","","","","","","","203","ila","Diagnostic practice","","j","","Diagnostic practice","14","-84","true","false","true","prac equal","RIGHT","RIGHT","j","1","true","","","",""
"","html-keyboard-response","54","39933","0.0-66.0","6uo93rsj","1366","768","","","","","","","","","","","null","+","Fixation - short","","null","","","","","","","","","","","","","","","","",""
"","html-keyboard-response","55","40027","0.0-67.0","6uo93rsj","","","","","","","","","","","","","92","ila","Diagnostic practice","","f","","Diagnostic practice","15","-84","true","false","true","prac equal","RIGHT","RIGHT","j","0","true","","","",""
"","call-function","56","40027","0.0-69.0-0.0","6uo93rsj","","","","","","","","","","","","","","","","","","","","","","","","","","","","","","","","","",""
"","html-keyboard-response","57","40332","0.0-69.0-1.0","6uo93rsj","1366","768","","","","","","","","","","","null","Wrong","Feedback","","null","","","","","","","","","","","","","","","","",""
"","call-function","58","40332","0.0-69.0-2.0","6uo93rsj","","","","","","","","","","","","","","","","","","","","","","","","","","","","","","","","","",""
"","html-keyboard-response","59","41084","0.0-70.0","6uo93rsj","1366","768","","","","","","","","","","","null","+","Fixation - short","","null","","","","","","","","","","","","","","","","",""
"","instructions","60","44668","0.0-71.0","6uo93rsj","","","","","","","","","","","","[{""page_index"":0,""viewing_time"":3582}]","3583","Instructions","Final experiment explanation","","","","","","","","","","","","","","","","","","",""
"","html-keyboard-response","61","48058","0.0-72.0","6uo93rsj","","","","","","","","","","","","","1878","If glp press RIGHT | If eeu press LEFT","Inducer practice",""," ","","Practice","","","","","","","","","","","","","","",""
"","html-keyboard-response","62","48819","0.0-73.0","6uo93rsj","1366","768","","","","","","","","","","","null","+","Fixation - short","","null","","","","","","","","","","","","","","","","",""
"","html-keyboard-response","63","49120","0.0-74.0","6uo93rsj","","","","","","","","","","","","","300","glp","Inducer practice","","j","","Practice","","","","true","","","","","j","1","","true","RIGHT","",""
"","html-keyboard-response","64","49883","0.0-77.0","6uo93rsj","1366","768","","","","","","","","","","","null","+","Fixation - short","","null","","","","","","","","","","","","","","","","",""
"","html-keyboard-response","65","50660","0.0-78.0","6uo93rsj","","","","","","","","","","","","","776","If kue press RIGHT | If lpn press LEFT","Inducer practice",""," ","","Practice","","","","","","","","","","","","","","",""
"","html-keyboard-response","66","51415","0.0-79.0","6uo93rsj","1366","768","","","","","","","","","","","null","+","Fixation - short","","null","","","","","","","","","","","","","","","","",""
"","html-keyboard-response","67","51875","0.0-80.0","6uo93rsj","","","","","","","","","","","","","459","kue","Inducer practice","","f","","Practice","","","","true","","","","","j","0","","true","RIGHT","",""
"","call-function","68","51876","0.0-82.0-0.0","6uo93rsj","","","","","","","","","","","","","","","","","","","","","","","","","","","","","","","","","",""
"","html-keyboard-response","69","52179","0.0-82.0-1.0","6uo93rsj","1366","768","","","","","","","","","","","null","Wrong","Feedback","","null","","","","","","","","","","","","","","","","",""
"","call-function","70","52180","0.0-82.0-2.0","6uo93rsj","","","","","","","","","","","","","","","","","","","","","","","","","","","","","","","","","",""
"","html-keyboard-response","71","52932","0.0-83.0","6uo93rsj","1366","768","","","","","","","","","","","null","+","Fixation - short","","null","","","","","","","","","","","","","","","","",""
"","html-keyboard-response","72","54397","0.0-84.0","6uo93rsj","","","","","","","","","","","","","1463","If imm press RIGHT | If amb press LEFT","Inducer practice",""," ","","Practice","","","","","","","","","","","","","","",""
"","html-keyboard-response","73","55161","0.0-85.0","6uo93rsj","1366","768","","","","","","","","","","","null","+","Fixation - short","","null","","","","","","","","","","","","","","","","",""
"","html-keyboard-response","74","55886","0.0-86.0","6uo93rsj","","","","","","","","","","","","","724","amb","Inducer practice","","f","","Practice","","","","true","","","","","f","1","","true","LEFT","",""
"","html-keyboard-response","75","56652","0.0-89.0","6uo93rsj","1366","768","","","","","","","","","","","null","+","Fixation - short","","null","","","","","","","","","","","","","","","","",""
"","html-keyboard-response","76","57309","0.0-90.0","6uo93rsj","","","","","","","","","","","","","655","If crf press RIGHT | If ydi press LEFT","Inducer practice",""," ","","Practice","","","","","","","","","","","","","","",""
"","html-keyboard-response","77","58076","0.0-91.0","6uo93rsj","1366","768","","","","","","","","","","","null","+","Fixation - short","","null","","","","","","","","","","","","","","","","",""
"","html-keyboard-response","78","58787","0.0-92.0","6uo93rsj","","","","","","","","","","","","","710","ydi","Inducer practice","","f","","Practice","","","","true","","","","","f","1","","true","LEFT","",""
"","html-keyboard-response","79","59550","0.0-95.0","6uo93rsj","1366","768","","","","","","","","","","","null","+","Fixation - short","","null","","","","","","","","","","","","","","","","",""
"","html-keyboard-response","80","59741","0.0-96.0","6uo93rsj","","","","","","","","","","","","","190","If faq press RIGHT | If csp press LEFT","Inducer practice",""," ","","Practice","","","","","","","","","","","","","","",""
"","html-keyboard-response","81","60507","0.0-97.0","6uo93rsj","1366","768","","","","","","","","","","","null","+","Fixation - short","","null","","","","","","","","","","","","","","","","",""
"","html-keyboard-response","82","61147","0.0-98.0","6uo93rsj","","","","","","","","","","","","","638","csp","Inducer practice","","j","","Practice","","","","true","","","","","f","0","","true","LEFT","",""
"","call-function","83","61147","0.0-100.0-0.0","6uo93rsj","","","","","","","","","","","","","","","","","","","","","","","","","","","","","","","","","",""
"","html-keyboard-response","84","61455","0.0-100.0-1.0","6uo93rsj","1366","768","","","","","","","","","","","null","Wrong","Feedback","","null","","","","","","","","","","","","","","","","",""
"","call-function","85","61456","0.0-100.0-2.0","6uo93rsj","","","","","","","","","","","","","","","","","","","","","","","","","","","","","","","","","",""
"","html-keyboard-response","86","62208","0.0-101.0","6uo93rsj","1366","768","","","","","","","","","","","null","+","Fixation - short","","null","","","","","","","","","","","","","","","","",""
"","html-keyboard-response","87","63153","0.0-102.0","6uo93rsj","","","","","","","","","","","","","944","If aor press RIGHT | If chy press LEFT","Inducer practice",""," ","","Practice","","","","","","","","","","","","","","",""
"","html-keyboard-response","88","63913","0.0-103.0","6uo93rsj","1366","768","","","","","","","","","","","null","+","Fixation - short","","null","","","","","","","","","","","","","","","","",""
"","html-keyboard-response","89","64577","0.0-104.0","6uo93rsj","","","","","","","","","","","","","662","aor","Inducer practice","","j","","Practice","","","","true","","","","","j","1","","true","RIGHT","",""
"","html-keyboard-response","90","65337","0.0-107.0","6uo93rsj","1366","768","","","","","","","","","","","null","+","Fixation - short","","null","","","","","","","","","","","","","","","","",""
"","instructions","91","67808","0.0-108.0","6uo93rsj","","","","","","","","","","","","[{""page_index"":0,""viewing_time"":2470}]","2470","Instructions","Final experiment explanation","","","","","","","","","","","","","","","","","","",""
"","html-keyboard-response","92","71607","0.0-109.0","6uo93rsj","","","","","","","","","","","","","2289","If cta press RIGHT | If pph press LEFT","Cue practice",""," ","","Practice","","","","","","","","","","","","","","",""
"","html-keyboard-response","93","72366","0.0-110.0","6uo93rsj","1366","768","","","","","","","","","","","null","+","Fixation - short","","null","","","","","","","","","","","","","","","","",""
"","html-keyboard-response","94","72636","0.0-111.0","6uo93rsj","","","","","","","","","","","","","269","pph","Cue practice","","j","","Practice","0","13","false","false","false","both pre & post","LEFT","LEFT","f","0","true","","","",""
"","call-function","95","72637","0.0-113.0-0.0","6uo93rsj","","","","","","","","","","","","","","","","","","","","","","","","","","","","","","","","","",""
"","html-keyboard-response","96","72945","0.0-113.0-1.0","6uo93rsj","1366","768","","","","","","","","","","","null","Wrong","Feedback","","null","","","","","","","","","","","","","","","","",""
"","call-function","97","72946","0.0-113.0-2.0","6uo93rsj","","","","","","","","","","","","","","","","","","","","","","","","","","","","","","","","","",""
"","html-keyboard-response","98","73700","0.0-114.0","6uo93rsj","1366","768","","","","","","","","","","","null","+","Fixation - short","","null","","","","","","","","","","","","","","","","",""
"","html-keyboard-response","99","73849","0.0-115.0","6uo93rsj","","","","","","","","","","","","","147","cta","Cue practice","","f","","Practice","1","13","false","false","true","both pre & post","RIGHT","RIGHT","j","0","true","","","",""
"","call-function","100","73849","0.0-117.0-0.0","6uo93rsj","","","","","","","","","","","","","","","","","","","","","","","","","","","","","","","","","",""
"","html-keyboard-response","101","74161","0.0-117.0-1.0","6uo93rsj","1366","768","","","","","","","","","","","null","Wrong","Feedback","","null","","","","","","","","","","","","","","","","",""
"","call-function","102","74162","0.0-117.0-2.0","6uo93rsj","","","","","","","","","","","","","","","","","","","","","","","","","","","","","","","","","",""
"","html-keyboard-response","103","74915","0.0-118.0","6uo93rsj","1366","768","","","","","","","","","","","null","+","Fixation - short","","null","","","","","","","","","","","","","","","","",""
"","html-keyboard-response","104","75003","0.0-119.0","6uo93rsj","","","","","","","","","","","","","87","cta","Cue practice","","j","","Practice","2","13","false","false","true","both pre & post","RIGHT","RIGHT","j","1","true","","","",""
"","html-keyboard-response","105","75762","0.0-122.0","6uo93rsj","1366","768","","","","","","","","","","","null","+","Fixation - short","","null","","","","","","","","","","","","","","","","",""
"","html-keyboard-response","106","75782","0.0-123.0","6uo93rsj","","","","","","","","","","","","","19","pph","Cue practice","","j","","Practice","3","13","false","false","true","both pre & post","LEFT","RIGHT","j","1","false","","","",""
"","html-keyboard-response","107","76545","0.0-126.0","6uo93rsj","1366","768","","","","","","","","","","","null","+","Fixation - short","","null","","","","","","","","","","","","","","","","",""
"","html-keyboard-response","108","76729","0.0-127.0","6uo93rsj","","","","","","","","","","","","","183","pph","Cue practice","","f","","Practice","4","13","false","false","true","both pre & post","LEFT","RIGHT","j","0","false","","","",""
"","call-function","109","76730","0.0-129.0-0.0","6uo93rsj","","","","","","","","","","","","","","","","","","","","","","","","","","","","","","","","","",""
"","html-keyboard-response","110","77042","0.0-129.0-1.0","6uo93rsj","1366","768","","","","","","","","","","","null","Wrong","Feedback","","null","","","","","","","","","","","","","","","","",""
"","call-function","111","77043","0.0-129.0-2.0","6uo93rsj","","","","","","","","","","","","","","","","","","","","","","","","","","","","","","","","","",""
"","html-keyboard-response","112","77796","0.0-130.0","6uo93rsj","1366","768","","","","","","","","","","","null","+","Fixation - short","","null","","","","","","","","","","","","","","","","",""
"","html-keyboard-response","113","77889","0.0-131.0","6uo93rsj","","","","","","","","","","","","","92","cta","Cue practice","","j","","Practice","5","13","false","false","true","both pre & post","RIGHT","RIGHT","j","1","true","","","",""
"","html-keyboard-response","114","78644","0.0-134.0","6uo93rsj","1366","768","","","","","","","","","","","null","+","Fixation - short","","null","","","","","","","","","","","","","","","","",""
"","html-keyboard-response","115","78718","0.0-135.0","6uo93rsj","","","","","","","","","","","","","72","pph","Cue practice","","j","","Practice","6","13","false","false","false","both pre & post","LEFT","LEFT","f","0","true","","","",""
"","call-function","116","78719","0.0-137.0-0.0","6uo93rsj","","","","","","","","","","","","","","","","","","","","","","","","","","","","","","","","","",""
"","html-keyboard-response","117","79024","0.0-137.0-1.0","6uo93rsj","1366","768","","","","","","","","","","","null","Wrong","Feedback","","null","","","","","","","","","","","","","","","","",""
"","call-function","118","79025","0.0-137.0-2.0","6uo93rsj","","","","","","","","","","","","","","","","","","","","","","","","","","","","","","","","","",""
"","html-keyboard-response","119","79778","0.0-138.0","6uo93rsj","1366","768","","","","","","","","","","","null","+","Fixation - short","","null","","","","","","","","","","","","","","","","",""
"","html-keyboard-response","120","79785","0.0-139.0","6uo93rsj","","","","","","","","","","","","","6","cta","Cue practice","","j","","Practice","7","13","false","false","false","both pre & post","RIGHT","LEFT","f","0","false","","","",""
"","call-function","121","79787","0.0-141.0-0.0","6uo93rsj","","","","","","","","","","","","","","","","","","","","","","","","","","","","","","","","","",""
"","html-keyboard-response","122","80091","0.0-141.0-1.0","6uo93rsj","1366","768","","","","","","","","","","","null","Wrong","Feedback","","null","","","","","","","","","","","","","","","","",""
"","call-function","123","80092","0.0-141.0-2.0","6uo93rsj","","","","","","","","","","","","","","","","","","","","","","","","","","","","","","","","","",""
"","html-keyboard-response","124","80844","0.0-142.0","6uo93rsj","1366","768","","","","","","","","","","","null","+","Fixation - short","","null","","","","","","","","","","","","","","","","",""
"","html-keyboard-response","125","80920","0.0-143.0","6uo93rsj","","","","","","","","","","","","","75","pph","Cue practice","","f","","Practice","8","13","false","false","false","both pre & post","LEFT","LEFT","f","1","true","","","",""
"","html-keyboard-response","126","81678","0.0-146.0","6uo93rsj","1366","768","","","","","","","","","","","null","+","Fixation - short","","null","","","","","","","","","","","","","","","","",""
"","html-keyboard-response","127","81833","0.0-147.0","6uo93rsj","","","","","","","","","","","","","153","cta","Cue practice","","f","","Practice","9","13","false","false","true","both pre & post","RIGHT","RIGHT","j","0","true","","","",""
"","call-function","128","81834","0.0-149.0-0.0","6uo93rsj","","","","","","","","","","","","","","","","","","","","","","","","","","","","","","","","","",""
"","html-keyboard-response","129","82139","0.0-149.0-1.0","6uo93rsj","1366","768","","","","","","","","","","","null","Wrong","Feedback","","null","","","","","","","","","","","","","","","","",""
"","call-function","130","82140","0.0-149.0-2.0","6uo93rsj","","","","","","","","","","","","","","","","","","","","","","","","","","","","","","","","","",""
"","html-keyboard-response","131","82892","0.0-150.0","6uo93rsj","1366","768","","","","","","","","","","","null","+","Fixation - short","","null","","","","","","","","","","","","","","","","",""
"","html-keyboard-response","132","82991","0.0-151.0","6uo93rsj","","","","","","","","","","","","","98","cta","Cue practice","","j","","Practice","10","13","false","false","false","both pre & post","RIGHT","LEFT","f","0","false","","","",""
"","call-function","133","82992","0.0-153.0-0.0","6uo93rsj","","","","","","","","","","","","","","","","","","","","","","","","","","","","","","","","","",""
"","html-keyboard-response","134","83306","0.0-153.0-1.0","6uo93rsj","1366","768","","","","","","","","","","","null","Wrong","Feedback","","null","","","","","","","","","","","","","","","","",""
"","call-function","135","83307","0.0-153.0-2.0","6uo93rsj","","","","","","","","","","","","","","","","","","","","","","","","","","","","","","","","","",""
"","html-keyboard-response","136","84073","0.0-154.0","6uo93rsj","1366","768","","","","","","","","","","","null","+","Fixation - short","","null","","","","","","","","","","","","","","","","",""
"","html-keyboard-response","137","84186","0.0-155.0","6uo93rsj","","","","","","","","","","","","","111","cta","Cue practice","","j","","Practice","11","13","false","false","false","both pre & post","RIGHT","LEFT","f","0","false","","","",""
"","call-function","138","84187","0.0-157.0-0.0","6uo93rsj","","","","","","","","","","","","","","","","","","","","","","","","","","","","","","","","","",""
"","html-keyboard-response","139","84503","0.0-157.0-1.0","6uo93rsj","1366","768","","","","","","","","","","","null","Wrong","Feedback","","null","","","","","","","","","","","","","","","","",""
"","call-function","140","84504","0.0-157.0-2.0","6uo93rsj","","","","","","","","","","","","","","","","","","","","","","","","","","","","","","","","","",""
"","html-keyboard-response","141","85257","0.0-158.0","6uo93rsj","1366","768","","","","","","","","","","","null","+","Fixation - short","","null","","","","","","","","","","","","","","","","",""
"","html-keyboard-response","142","85353","0.0-159.0","6uo93rsj","","","","","","","","","","","","","95","cta","Cue practice","","f","","Practice","12","13","false","false","true","both pre & post","RIGHT","RIGHT","j","0","true","","","",""
"","call-function","143","85354","0.0-161.0-0.0","6uo93rsj","","","","","","","","","","","","","","","","","","","","","","","","","","","","","","","","","",""
"","html-keyboard-response","144","85656","0.0-161.0-1.0","6uo93rsj","1366","768","","","","","","","","","","","null","Wrong","Feedback","","null","","","","","","","","","","","","","","","","",""
"","call-function","145","85657","0.0-161.0-2.0","6uo93rsj","","","","","","","","","","","","","","","","","","","","","","","","","","","","","","","","","",""
"","html-keyboard-response","146","86421","0.0-162.0","6uo93rsj","1366","768","","","","","","","","","","","null","+","Fixation - short","","null","","","","","","","","","","","","","","","","",""
"","canvas-keyboard-response","147","87679","0.0-163.0","6uo93rsj","","","","","","","","","","","","","null","Cue","Cue","","null","","Practice","12","","","false","","","","","","","","","","",""
"","html-keyboard-response","148","88436","0.0-164.0","6uo93rsj","1366","768","","","","","","","","","","","null","+","Fixation - short","","null","","","","","","","","","","","","","","","","",""
"","html-keyboard-response","149","88603","0.0-165.0","6uo93rsj","","","","","","","","","","","","","165","pph","Cue practice","","f","","Practice","13","13","true","false","true","both pre & post","LEFT","RIGHT","j","0","false","","","",""
"","call-function","150","88603","0.0-167.0-0.0","6uo93rsj","","","","","","","","","","","","","","","","","","","","","","","","","","","","","","","","","",""
"","html-keyboard-response","151","88916","0.0-167.0-1.0","6uo93rsj","1366","768","","","","","","","","","","","null","Wrong","Feedback","","null","","","","","","","","","","","","","","","","",""
"","call-function","152","88917","0.0-167.0-2.0","6uo93rsj","","","","","","","","","","","","","","","","","","","","","","","","","","","","","","","","","",""
"","html-keyboard-response","153","89670","0.0-168.0","6uo93rsj","1366","768","","","","","","","","","","","null","+","Fixation - short","","null","","","","","","","","","","","","","","","","",""
"","html-keyboard-response","154","89912","0.0-169.0","6uo93rsj","","","","","","","","","","","","","240","pph","Cue practice","","j","","Practice","14","13","true","false","false","both pre & post","LEFT","LEFT","f","0","true","","","",""
"","call-function","155","89912","0.0-171.0-0.0","6uo93rsj","","","","","","","","","","","","","","","","","","","","","","","","","","","","","","","","","",""
"","html-keyboard-response","156","90217","0.0-171.0-1.0","6uo93rsj","1366","768","","","","","","","","","","","null","Wrong","Feedback","","null","","","","","","","","","","","","","","","","",""
"","call-function","157","90217","0.0-171.0-2.0","6uo93rsj","","","","","","","","","","","","","","","","","","","","","","","","","","","","","","","","","",""
"","html-keyboard-response","158","90969","0.0-172.0","6uo93rsj","1366","768","","","","","","","","","","","null","+","Fixation - short","","null","","","","","","","","","","","","","","","","",""
"","html-keyboard-response","159","91183","0.0-173.0","6uo93rsj","","","","","","","","","","","","","213","pph","Cue practice","","j","","Practice","15","13","true","false","true","both pre & post","LEFT","RIGHT","j","1","false","","","",""
"","html-keyboard-response","160","91944","0.0-176.0","6uo93rsj","1366","768","","","","","","","","","","","null","+","Fixation - short","","null","","","","","","","","","","","","","","","","",""
"","html-keyboard-response","161","92071","0.0-177.0","6uo93rsj","","","","","","","","","","","","","125","pph","Inducer practice","","j","","Practice","","","","true","","","","","f","0","","false","LEFT","",""
"","call-function","162","92074","0.0-179.0-0.0","6uo93rsj","","","","","","","","","","","","","","","","","","","","","","","","","","","","","","","","","",""
"","html-keyboard-response","163","92382","0.0-179.0-1.0","6uo93rsj","1366","768","","","","","","","","","","","null","Wrong","Feedback","","null","","","","","","","","","","","","","","","","",""
"","call-function","164","92383","0.0-179.0-2.0","6uo93rsj","","","","","","","","","","","","","","","","","","","","","","","","","","","","","","","","","",""
"","html-keyboard-response","165","93136","0.0-180.0","6uo93rsj","1366","768","","","","","","","","","","","null","+","Fixation - short","","null","","","","","","","","","","","","","","","","",""
"","instructions","166","95171","0.0-181.0","6uo93rsj","","","","","","","","","","","","[{""page_index"":0,""viewing_time"":2033}]","2033","End practice","End of practice","","","","","","","","","","","","","","","","","","",""
"","html-keyboard-response","167","98195","0.0-182.0","6uo93rsj","1366","768","","","","","","","","","","","null","+","Fixation - long","","null","","","","","","","","","","","","","","","","",""
"","html-keyboard-response","168","98358","0.0-183.0","6uo93rsj","","","","","","","","","","","","","161","If jsf press RIGHT | If mts press LEFT","Inducer instructions",""," ","","0","","","","","","","","","","","","","","",""
"","html-keyboard-response","169","99121","0.0-184.0","6uo93rsj","1366","768","","","","","","","","","","","null","+","Fixation - short","","null","","","","","","","","","","","","","","","","",""
"","html-keyboard-response","170","99409","0.0-185.0","6uo93rsj","","","","","","","","","","","","","288","mts","Diagnostic trial","","j","","0","0","5","false","false","false","both pre & post","LEFT","LEFT","f","0","true","","","",""
"","call-function","171","99410","0.0-187.0-0.0","6uo93rsj","","","","","","","","","","","","","","","","","","","","","","","","","","","","","","","","","",""
"","html-keyboard-response","172","99724","0.0-187.0-1.0","6uo93rsj","1366","768","","","","","","","","","","","null","Wrong","Feedback","","null","","","","","","","","","","","","","","","","",""
"","call-function","173","99725","0.0-187.0-2.0","6uo93rsj","","","","","","","","","","","","","","","","","","","","","","","","","","","","","","","","","",""
"","html-keyboard-response","174","100479","0.0-188.0","6uo93rsj","1366","768","","","","","","","","","","","null","+","Fixation - short","","null","","","","","","","","","","","","","","","","",""
"","html-keyboard-response","175","100587","0.0-189.0","6uo93rsj","","","","","","","","","","","","","107","mts","Diagnostic trial","","f","","0","1","5","false","false","false","both pre & post","LEFT","LEFT","f","1","true","","","",""
"","html-keyboard-response","176","101343","0.0-192.0","6uo93rsj","1366","768","","","","","","","","","","","null","+","Fixation - short","","null","","","","","","","","","","","","","","","","",""
"","html-keyboard-response","177","101573","0.0-193.0","6uo93rsj","","","","","","","","","","","","","228","jsf","Diagnostic trial","","f","","0","2","5","false","false","false","both pre & post","RIGHT","LEFT","f","1","false","","","",""
"","html-keyboard-response","178","102326","0.0-196.0","6uo93rsj","1366","768","","","","","","","","","","","null","+","Fixation - short","","null","","","","","","","","","","","","","","","","",""
"","html-keyboard-response","179","102421","0.0-197.0","6uo93rsj","","","","","","","","","","","","","93","mts","Diagnostic trial","","f","","0","3","5","false","false","false","both pre & post","LEFT","LEFT","f","1","true","","","",""
"","html-keyboard-response","180","103176","0.0-200.0","6uo93rsj","1366","768","","","","","","","","","","","null","+","Fixation - short","","null","","","","","","","","","","","","","","","","",""
"","html-keyboard-response","181","103217","0.0-201.0","6uo93rsj","","","","","","","","","","","","","40","mts","Diagnostic trial","","f","","0","4","5","false","false","false","both pre & post","LEFT","LEFT","f","1","true","","","",""
"","html-keyboard-response","182","103974","0.0-204.0","6uo93rsj","1366","768","","","","","","","","","","","null","+","Fixation - short","","null","","","","","","","","","","","","","","","","",""
"","canvas-keyboard-response","183","105232","0.0-205.0","6uo93rsj","","","","","","","","","","","","","null","Cue","Cue","","null","","0","4","","","false","","","","","","","","","","",""
"","html-keyboard-response","184","105990","0.0-206.0","6uo93rsj","1366","768","","","","","","","","","","","null","+","Fixation - short","","null","","","","","","","","","","","","","","","","",""
"","html-keyboard-response","185","106014","0.0-207.0","6uo93rsj","","","","","","","","","","","","","22","mts","Diagnostic trial","","j","","0","5","5","true","false","false","both pre & post","LEFT","LEFT","f","0","true","","","",""
"","call-function","186","106014","0.0-209.0-0.0","6uo93rsj","","","","","","","","","","","","","","","","","","","","","","","","","","","","","","","","","",""
"","html-keyboard-response","187","106322","0.0-209.0-1.0","6uo93rsj","1366","768","","","","","","","","","","","null","Wrong","Feedback","","null","","","","","","","","","","","","","","","","",""
"","call-function","188","106323","0.0-209.0-2.0","6uo93rsj","","","","","","","","","","","","","","","","","","","","","","","","","","","","","","","","","",""
"","html-keyboard-response","189","107075","0.0-210.0","6uo93rsj","1366","768","","","","","","","","","","","null","+","Fixation - short","","null","","","","","","","","","","","","","","","","",""
"","html-keyboard-response","190","107236","0.0-211.0","6uo93rsj","","","","","","","","","","","","","160","jsf","Diagnostic trial","","j","","0","6","5","true","false","true","both pre & post","RIGHT","RIGHT","j","1","true","","","",""
"","html-keyboard-response","191","107988","0.0-214.0","6uo93rsj","1366","768","","","","","","","","","","","null","+","Fixation - short","","null","","","","","","","","","","","","","","","","",""
"","html-keyboard-response","192","108101","0.0-215.0","6uo93rsj","","","","","","","","","","","","","111","mts","Diagnostic trial","","f","","0","7","5","true","false","true","both pre & post","LEFT","RIGHT","j","0","false","","","",""
"","call-function","193","108102","0.0-217.0-0.0","6uo93rsj","","","","","","","","","","","","","","","","","","","","","","","","","","","","","","","","","",""
"","html-keyboard-response","194","108418","0.0-217.0-1.0","6uo93rsj","1366","768","","","","","","","","","","","null","Wrong","Feedback","","null","","","","","","","","","","","","","","","","",""
"","call-function","195","108419","0.0-217.0-2.0","6uo93rsj","","","","","","","","","","","","","","","","","","","","","","","","","","","","","","","","","",""
"","html-keyboard-response","196","109173","0.0-218.0","6uo93rsj","1366","768","","","","","","","","","","","null","+","Fixation - short","","null","","","","","","","","","","","","","","","","",""
"","html-keyboard-response","197","109313","0.0-219.0","6uo93rsj","","","","","","","","","","","","","139","mts","Inducer trial","","f","","0","","","","true","","","","","f","1","","false","LEFT","",""
"","html-keyboard-response","198","110078","0.0-222.0","6uo93rsj","1366","768","","","","","","","","","","","null","+","Fixation - short","","null","","","","","","","","","","","","","","","","",""
"","html-keyboard-response","199","110900","0.0-223.0","6uo93rsj","","","","","","","","","","","","","821","If psl press RIGHT | If adj press LEFT","Inducer instructions",""," ","","1","","","","","","","","","","","","","","",""
"","html-keyboard-response","200","111652","0.0-224.0","6uo93rsj","1366","768","","","","","","","","","","","null","+","Fixation - short","","null","","","","","","","","","","","","","","","","",""
"","html-keyboard-response","201","111743","0.0-225.0","6uo93rsj","","","","","","","","","","","","","90","psl","Diagnostic trial","","j","","1","0","10","false","false","true","both pre & post","RIGHT","RIGHT","j","1","true","","","",""
"","html-keyboard-response","202","112500","0.0-228.0","6uo93rsj","1366","768","","","","","","","","","","","null","+","Fixation - short","","null","","","","","","","","","","","","","","","","",""
"","html-keyboard-response","203","112540","0.0-229.0","6uo93rsj","","","","","","","","","","","","","38","adj","Diagnostic trial","","j","","1","1","10","false","false","true","both pre & post","LEFT","RIGHT","j","1","false","","","",""
"","html-keyboard-response","204","113301","0.0-232.0","6uo93rsj","1366","768","","","","","","","","","","","null","+","Fixation - short","","null","","","","","","","","","","","","","","","","",""
"","html-keyboard-response","205","113319","0.0-233.0","6uo93rsj","","","","","","","","","","","","","17","adj","Diagnostic trial","","j","","1","2","10","false","false","false","both pre & post","LEFT","LEFT","f","0","true","","","",""
"","call-function","206","113320","0.0-235.0-0.0","6uo93rsj","","","","","","","","","","","","","","","","","","","","","","","","","","","","","","","","","",""
"","html-keyboard-response","207","113631","0.0-235.0-1.0","6uo93rsj","1366","768","","","","","","","","","","","null","Wrong","Feedback","","null","","","","","","","","","","","","","","","","",""
"","call-function","208","113632","0.0-235.0-2.0","6uo93rsj","","","","","","","","","","","","","","","","","","","","","","","","","","","","","","","","","",""
"","html-keyboard-response","209","114384","0.0-236.0","6uo93rsj","1366","768","","","","","","","","","","","null","+","Fixation - short","","null","","","","","","","","","","","","","","","","",""
"","html-keyboard-response","210","114401","0.0-237.0","6uo93rsj","","","","","","","","","","","","","16","adj","Diagnostic trial","","f","","1","3","10","false","false","true","both pre & post","LEFT","RIGHT","j","0","false","","","",""
"","call-function","211","114402","0.0-239.0-0.0","6uo93rsj","","","","","","","","","","","","","","","","","","","","","","","","","","","","","","","","","",""
"","html-keyboard-response","212","114713","0.0-239.0-1.0","6uo93rsj","1366","768","","","","","","","","","","","null","Wrong","Feedback","","null","","","","","","","","","","","","","","","","",""
"","call-function","213","114714","0.0-239.0-2.0","6uo93rsj","","","","","","","","","","","","","","","","","","","","","","","","","","","","","","","","","",""
"","html-keyboard-response","214","115467","0.0-240.0","6uo93rsj","1366","768","","","","","","","","","","","null","+","Fixation - short","","null","","","","","","","","","","","","","","","","",""
"","html-keyboard-response","215","115646","0.0-241.0","6uo93rsj","","","","","","","","","","","","","177","adj","Diagnostic trial","","f","","1","4","10","false","false","true","both pre & post","LEFT","RIGHT","j","0","false","","","",""
"","call-function","216","115647","0.0-243.0-0.0","6uo93rsj","","","","","","","","","","","","","","","","","","","","","","","","","","","","","","","","","",""
"","html-keyboard-response","217","115948","0.0-243.0-1.0","6uo93rsj","1366","768","","","","","","","","","","","null","Wrong","Feedback","","null","","","","","","","","","","","","","","","","",""
"","call-function","218","115949","0.0-243.0-2.0","6uo93rsj","","","","","","","","","","","","","","","","","","","","","","","","","","","","","","","","","",""
"","html-keyboard-response","219","116715","0.0-244.0","6uo93rsj","1366","768","","","","","","","","","","","null","+","Fixation - short","","null","","","","","","","","","","","","","","","","",""
"","html-keyboard-response","220","116828","0.0-245.0","6uo93rsj","","","","","","","","","","","","","111","psl","Diagnostic trial","","j","","1","5","10","false","false","false","both pre & post","RIGHT","LEFT","f","0","false","","","",""
"","call-function","221","116829","0.0-247.0-0.0","6uo93rsj","","","","","","","","","","","","","","","","","","","","","","","","","","","","","","","","","",""
"","html-keyboard-response","222","117144","0.0-247.0-1.0","6uo93rsj","1366","768","","","","","","","","","","","null","Wrong","Feedback","","null","","","","","","","","","","","","","","","","",""
"","call-function","223","117145","0.0-247.0-2.0","6uo93rsj","","","","","","","","","","","","","","","","","","","","","","","","","","","","","","","","","",""
"","html-keyboard-response","224","117898","0.0-248.0","6uo93rsj","1366","768","","","","","","","","","","","null","+","Fixation - short","","null","","","","","","","","","","","","","","","","",""
"","html-keyboard-response","225","118022","0.0-249.0","6uo93rsj","","","","","","","","","","","","","123","adj","Diagnostic trial","","j","","1","6","10","false","false","false","both pre & post","LEFT","LEFT","f","0","true","","","",""
"","call-function","226","118023","0.0-251.0-0.0","6uo93rsj","","","","","","","","","","","","","","","","","","","","","","","","","","","","","","","","","",""
"","html-keyboard-response","227","118325","0.0-251.0-1.0","6uo93rsj","1366","768","","","","","","","","","","","null","Wrong","Feedback","","null","","","","","","","","","","","","","","","","",""
"","call-function","228","118326","0.0-251.0-2.0","6uo93rsj","","","","","","","","","","","","","","","","","","","","","","","","","","","","","","","","","",""
"","html-keyboard-response","229","119082","0.0-252.0","6uo93rsj","1366","768","","","","","","","","","","","null","+","Fixation - short","","null","","","","","","","","","","","","","","","","",""
"","html-keyboard-response","230","119135","0.0-253.0","6uo93rsj","","","","","","","","","","","","","52","adj","Diagnostic trial","","f","","1","7","10","false","false","true","both pre & post","LEFT","RIGHT","j","0","false","","","",""
"","call-function","231","119136","0.0-255.0-0.0","6uo93rsj","","","","","","","","","","","","","","","","","","","","","","","","","","","","","","","","","",""
"","html-keyboard-response","232","119443","0.0-255.0-1.0","6uo93rsj","1366","768","","","","","","","","","","","null","Wrong","Feedback","","null","","","","","","","","","","","","","","","","",""
"","call-function","233","119443","0.0-255.0-2.0","6uo93rsj","","","","","","","","","","","","","","","","","","","","","","","","","","","","","","","","","",""
"","html-keyboard-response","234","120196","0.0-256.0","6uo93rsj","1366","768","","","","","","","","","","","null","+","Fixation - short","","null","","","","","","","","","","","","","","","","",""
"","html-keyboard-response","235","120209","0.0-257.0","6uo93rsj","","","","","","","","","","","","","11","adj","Diagnostic trial","","f","","1","8","10","false","false","true","both pre & post","LEFT","RIGHT","j","0","false","","","",""
"","call-function","236","120211","0.0-259.0-0.0","6uo93rsj","","","","","","","","","","","","","","","","","","","","","","","","","","","","","","","","","",""
"","html-keyboard-response","237","120525","0.0-259.0-1.0","6uo93rsj","1366","768","","","","","","","","","","","null","Wrong","Feedback","","null","","","","","","","","","","","","","","","","",""
"","call-function","238","120526","0.0-259.0-2.0","6uo93rsj","","","","","","","","","","","","","","","","","","","","","","","","","","","","","","","","","",""
"","html-keyboard-response","239","121279","0.0-260.0","6uo93rsj","1366","768","","","","","","","","","","","null","+","Fixation - short","","null","","","","","","","","","","","","","","","","",""
"","html-keyboard-response","240","121346","0.0-261.0","6uo93rsj","","","","","","","","","","","","","66","psl","Diagnostic trial","","j","","1","9","10","false","false","true","both pre & post","RIGHT","RIGHT","j","1","true","","","",""
"","html-keyboard-response","241","122110","0.0-264.0","6uo93rsj","1366","768","","","","","","","","","","","null","+","Fixation - short","","null","","","","","","","","","","","","","","","","",""
"","canvas-keyboard-response","242","123368","0.0-265.0","6uo93rsj","","","","","","","","","","","","","null","Cue","Cue","","null","","1","9","","","false","","","","","","","","","","",""
"","html-keyboard-response","243","124134","0.0-266.0","6uo93rsj","1366","768","","","","","","","","","","","null","+","Fixation - short","","null","","","","","","","","","","","","","","","","",""
"","html-keyboard-response","244","124255","0.0-267.0","6uo93rsj","","","","","","","","","","","","","119","psl","Diagnostic trial","","j","","1","10","10","true","false","true","both pre & post","RIGHT","RIGHT","j","1","true","","","",""
"","html-keyboard-response","245","125009","0.0-270.0","6uo93rsj","1366","768","","","","","","","","","","","null","+","Fixation - short","","null","","","","","","","","","","","","","","","","",""
"","html-keyboard-response","246","125063","0.0-271.0","6uo93rsj","","","","","","","","","","","","","53","adj","Inducer trial","","j","","1","","","","true","","","","","f","0","","false","LEFT","",""
"","call-function","247","125064","0.0-273.0-0.0","6uo93rsj","","","","","","","","","","","","","","","","","","","","","","","","","","","","","","","","","",""
"","html-keyboard-response","248","125373","0.0-273.0-1.0","6uo93rsj","1366","768","","","","","","","","","","","null","Wrong","Feedback","","null","","","","","","","","","","","","","","","","",""
"","call-function","249","125374","0.0-273.0-2.0","6uo93rsj","","","","","","","","","","","","","","","","","","","","","","","","","","","","","","","","","",""
"","html-keyboard-response","250","126125","0.0-274.0","6uo93rsj","1366","768","","","","","","","","","","","null","+","Fixation - short","","null","","","","","","","","","","","","","","","","",""
"","html-keyboard-response","251","127241","0.0-275.0","6uo93rsj","","","","","","","","","","","","","1114","If mda press RIGHT | If sdw press LEFT","Inducer instructions",""," ","","2","","","","","","","","","","","","","","",""
"","html-keyboard-response","252","128005","0.0-276.0","6uo93rsj","1366","768","","","","","","","","","","","null","+","Fixation - short","","null","","","","","","","","","","","","","","","","",""
"","html-keyboard-response","253","128136","0.0-277.0","6uo93rsj","","","","","","","","","","","","","129","sdw","Diagnostic trial","","j","","2","0","5","false","false","false","both pre & post","LEFT","LEFT","f","0","true","","","",""
"","call-function","254","128137","0.0-279.0-0.0","6uo93rsj","","","","","","","","","","","","","","","","","","","","","","","","","","","","","","","","","",""
"","html-keyboard-response","255","128444","0.0-279.0-1.0","6uo93rsj","1366","768","","","","","","","","","","","null","Wrong","Feedback","","null","","","","","","","","","","","","","","","","",""
"","call-function","256","128445","0.0-279.0-2.0","6uo93rsj","","","","","","","","","","","","","","","","","","","","","","","","","","","","","","","","","",""
"","html-keyboard-response","257","129205","0.0-280.0","6uo93rsj","1366","768","","","","","","","","","","","null","+","Fixation - short","","null","","","","","","","","","","","","","","","","",""
"","html-keyboard-response","258","129403","0.0-281.0","6uo93rsj","","","","","","","","","","","","","197","mda","Diagnostic trial","","f","","2","1","5","false","false","false","both pre & post","RIGHT","LEFT","f","1","false","","","",""
"","html-keyboard-response","259","130170","0.0-284.0","6uo93rsj","1366","768","","","","","","","","","","","null","+","Fixation - short","","null","","","","","","","","","","","","","","","","",""
"","html-keyboard-response","260","130286","0.0-285.0","6uo93rsj","","","","","","","","","","","","","115","mda","Diagnostic trial","","f","","2","2","5","false","false","true","both pre & post","RIGHT","RIGHT","j","0","true","","","",""
"","call-function","261","130287","0.0-287.0-0.0","6uo93rsj","","","","","","","","","","","","","","","","","","","","","","","","","","","","","","","","","",""
"","html-keyboard-response","262","130601","0.0-287.0-1.0","6uo93rsj","1366","768","","","","","","","","","","","null","Wrong","Feedback","","null","","","","","","","","","","","","","","","","",""
"","call-function","263","130602","0.0-287.0-2.0","6uo93rsj","","","","","","","","","","","","","","","","","","","","","","","","","","","","","","","","","",""
"","html-keyboard-response","264","131355","0.0-288.0","6uo93rsj","1366","768","","","","","","","","","","","null","+","Fixation - short","","null","","","","","","","","","","","","","","","","",""
"","html-keyboard-response","265","131453","0.0-289.0","6uo93rsj","","","","","","","","","","","","","97","sdw","Diagnostic trial","","f","","2","3","5","false","false","true","both pre & post","LEFT","RIGHT","j","0","false","","","",""
"","call-function","266","131454","0.0-291.0-0.0","6uo93rsj","","","","","","","","","","","","","","","","","","","","","","","","","","","","","","","","","",""
"","html-keyboard-response","267","131767","0.0-291.0-1.0","6uo93rsj","1366","768","","","","","","","","","","","null","Wrong","Feedback","","null","","","","","","","","","","","","","","","","",""
"","call-function","268","131767","0.0-291.0-2.0","6uo93rsj","","","","","","","","","","","","","","","","","","","","","","","","","","","","","","","","","",""
"","html-keyboard-response","269","132529","0.0-292.0","6uo93rsj","1366","768","","","","","","","","","","","null","+","Fixation - short","","null","","","","","","","","","","","","","","","","",""
"","html-keyboard-response","270","132680","0.0-293.0","6uo93rsj","","","","","","","","","","","","","150","sdw","Diagnostic trial","","f","","2","4","5","false","false","false","both pre & post","LEFT","LEFT","f","1","true","","","",""
"","html-keyboard-response","271","133443","0.0-296.0","6uo93rsj","1366","768","","","","","","","","","","","null","+","Fixation - short","","null","","","","","","","","","","","","","","","","",""
"","canvas-keyboard-response","272","134700","0.0-297.0","6uo93rsj","","","","","","","","","","","","","null","Cue","Cue","","null","","2","4","","","false","","","","","","","","","","",""
"","html-keyboard-response","273","135466","0.0-298.0","6uo93rsj","1366","768","","","","","","","","","","","null","+","Fixation - short","","null","","","","","","","","","","","","","","","","",""
"","html-keyboard-response","274","135502","0.0-299.0","6uo93rsj","","","","","","","","","","","","","34","sdw","Diagnostic trial","","j","","2","5","5","true","false","true","both pre & post","LEFT","RIGHT","j","1","false","","","",""
"","html-keyboard-response","275","136266","0.0-302.0","6uo93rsj","1366","768","","","","","","","","","","","null","+","Fixation - short","","null","","","","","","","","","","","","","","","","",""
"","html-keyboard-response","276","136358","0.0-303.0","6uo93rsj","","","","","","","","","","","","","91","mda","Diagnostic trial","","j","","2","6","5","true","false","false","both pre & post","RIGHT","LEFT","f","0","false","","","",""
"","call-function","277","136359","0.0-305.0-0.0","6uo93rsj","","","","","","","","","","","","","","","","","","","","","","","","","","","","","","","","","",""
"","html-keyboard-response","278","136664","0.0-305.0-1.0","6uo93rsj","1366","768","","","","","","","","","","","null","Wrong","Feedback","","null","","","","","","","","","","","","","","","","",""
"","call-function","279","136665","0.0-305.0-2.0","6uo93rsj","","","","","","","","","","","","","","","","","","","","","","","","","","","","","","","","","",""
"","html-keyboard-response","280","137417","0.0-306.0","6uo93rsj","1366","768","","","","","","","","","","","null","+","Fixation - short","","null","","","","","","","","","","","","","","","","",""
"","html-keyboard-response","281","137582","0.0-307.0","6uo93rsj","","","","","","","","","","","","","164","mda","Diagnostic trial","","j","","2","7","5","true","false","true","both pre & post","RIGHT","RIGHT","j","1","true","","","",""
"","html-keyboard-response","282","138335","0.0-310.0","6uo93rsj","1366","768","","","","","","","","","","","null","+","Fixation - short","","null","","","","","","","","","","","","","","","","",""
"","html-keyboard-response","283","138546","0.0-311.0","6uo93rsj","","","","","","","","","","","","","210","sdw","Diagnostic trial","","j","","2","8","5","true","false","true","both pre & post","LEFT","RIGHT","j","1","false","","","",""
"","html-keyboard-response","284","139313","0.0-314.0","6uo93rsj","1366","768","","","","","","","","","","","null","+","Fixation - short","","null","","","","","","","","","","","","","","","","",""
"","html-keyboard-response","285","139488","0.0-315.0","6uo93rsj","","","","","","","","","","","","","173","sdw","Inducer trial","","j","","2","","","","true","","","","","f","0","","false","LEFT","",""
"","call-function","286","139488","0.0-317.0-0.0","6uo93rsj","","","","","","","","","","","","","","","","","","","","","","","","","","","","","","","","","",""
"","html-keyboard-response","287","139797","0.0-317.0-1.0","6uo93rsj","1366","768","","","","","","","","","","","null","Wrong","Feedback","","null","","","","","","","","","","","","","","","","",""
"","call-function","288","139798","0.0-317.0-2.0","6uo93rsj","","","","","","","","","","","","","","","","","","","","","","","","","","","","","","","","","",""
"","html-keyboard-response","289","140564","0.0-318.0","6uo93rsj","1366","768","","","","","","","","","","","null","+","Fixation - short","","null","","","","","","","","","","","","","","","","",""
"","html-keyboard-response","290","157969","0.0-319.0","6uo93rsj","","","","","","","","","","","","","17404","If vib press RIGHT | If pbz press LEFT","Inducer instructions",""," ","","3","","","","","","","","","","","","","","",""
"","html-keyboard-response","291","158732","0.0-320.0","6uo93rsj","1366","768","","","","","","","","","","","null","+","Fixation - short","","null","","","","","","","","","","","","","","","","",""
"","html-keyboard-response","292","158890","0.0-321.0","6uo93rsj","","","","","","","","","","","","","157","pbz","Diagnostic trial","","j","","3","0","6","false","false","true","both pre & post","LEFT","RIGHT","j","1","false","","","",""
"","html-keyboard-response","293","159648","0.0-324.0","6uo93rsj","1366","768","","","","","","","","","","","null","+","Fixation - short","","null","","","","","","","","","","","","","","","","",""
"","html-keyboard-response","294","159749","0.0-325.0","6uo93rsj","","","","","","","","","","","","","100","vib","Diagnostic trial","","f","","3","1","6","false","false","true","both pre & post","RIGHT","RIGHT","j","0","true","","","",""
"","call-function","295","159750","0.0-327.0-0.0","6uo93rsj","","","","","","","","","","","","","","","","","","","","","","","","","","","","","","","","","",""
"","html-keyboard-response","296","160061","0.0-327.0-1.0","6uo93rsj","1366","768","","","","","","","","","","","null","Wrong","Feedback","","null","","","","","","","","","","","","","","","","",""
"","call-function","297","160062","0.0-327.0-2.0","6uo93rsj","","","","","","","","","","","","","","","","","","","","","","","","","","","","","","","","","",""
"","html-keyboard-response","298","160816","0.0-328.0","6uo93rsj","1366","768","","","","","","","","","","","null","+","Fixation - short","","null","","","","","","","","","","","","","","","","",""
"","html-keyboard-response","299","160958","0.0-329.0","6uo93rsj","","","","","","","","","","","","","141","pbz","Diagnostic trial","","j","","3","2","6","false","false","false","both pre & post","LEFT","LEFT","f","0","true","","","",""
"","call-function","300","160959","0.0-331.0-0.0","6uo93rsj","","","","","","","","","","","","","","","","","","","","","","","","","","","","","","","","","",""
"","html-keyboard-response","301","161262","0.0-331.0-1.0","6uo93rsj","1366","768","","","","","","","","","","","null","Wrong","Feedback","","null","","","","","","","","","","","","","","","","",""
"","call-function","302","161263","0.0-331.0-2.0","6uo93rsj","","","","","","","","","","","","","","","","","","","","","","","","","","","","","","","","","",""
"","html-keyboard-response","303","162030","0.0-332.0","6uo93rsj","1366","768","","","","","","","","","","","null","+","Fixation - short","","null","","","","","","","","","","","","","","","","",""
"","html-keyboard-response","304","162155","0.0-333.0","6uo93rsj","","","","","","","","","","","","","122","pbz","Diagnostic trial","","j","","3","3","6","false","false","true","both pre & post","LEFT","RIGHT","j","1","false","","","",""
"","html-keyboard-response","305","162913","0.0-336.0","6uo93rsj","1366","768","","","","","","","","","","","null","+","Fixation - short","","null","","","","","","","","","","","","","","","","",""
"","html-keyboard-response","306","163080","0.0-337.0","6uo93rsj","","","","","","","","","","","","","166","pbz","Diagnostic trial","","j","","3","4","6","false","false","false","both pre & post","LEFT","LEFT","f","0","true","","","",""
"","call-function","307","163081","0.0-339.0-0.0","6uo93rsj","","","","","","","","","","","","","","","","","","","","","","","","","","","","","","","","","",""
"","html-keyboard-response","308","163398","0.0-339.0-1.0","6uo93rsj","1366","768","","","","","","","","","","","null","Wrong","Feedback","","null","","","","","","","","","","","","","","","","",""
"","call-function","309","163399","0.0-339.0-2.0","6uo93rsj","","","","","","","","","","","","","","","","","","","","","","","","","","","","","","","","","",""
"","html-keyboard-response","310","164162","0.0-340.0","6uo93rsj","1366","768","","","","","","","","","","","null","+","Fixation - short","","null","","","","","","","","","","","","","","","","",""
"","html-keyboard-response","311","164229","0.0-341.0","6uo93rsj","","","","","","","","","","","","","66","pbz","Diagnostic trial","","j","","3","5","6","false","false","true","both pre & post","LEFT","RIGHT","j","1","false","","","",""
"","html-keyboard-response","312","164986","0.0-344.0","6uo93rsj","1366","768","","","","","","","","","","","null","+","Fixation - short","","null","","","","","","","","","","","","","","","","",""
"","canvas-keyboard-response","313","166242","0.0-345.0","6uo93rsj","","","","","","","","","","","","","null","Cue","Cue","","null","","3","5","","","false","","","","","","","","","","",""
"","html-keyboard-response","314","167008","0.0-346.0","6uo93rsj","1366","768","","","","","","","","","","","null","+","Fixation - short","","null","","","","","","","","","","","","","","","","",""
"","html-keyboard-response","315","167122","0.0-347.0","6uo93rsj","","","","","","","","","","","","","112","pbz","Diagnostic trial","","j","","3","6","6","true","false","false","both pre & post","LEFT","LEFT","f","0","true","","","",""
"","call-function","316","167123","0.0-349.0-0.0","6uo93rsj","","","","","","","","","","","","","","","","","","","","","","","","","","","","","","","","","",""
"","html-keyboard-response","317","167436","0.0-349.0-1.0","6uo93rsj","1366","768","","","","","","","","","","","null","Wrong","Feedback","","null","","","","","","","","","","","","","","","","",""
"","call-function","318","167436","0.0-349.0-2.0","6uo93rsj","","","","","","","","","","","","","","","","","","","","","","","","","","","","","","","","","",""
"","html-keyboard-response","319","168193","0.0-350.0","6uo93rsj","1366","768","","","","","","","","","","","null","+","Fixation - short","","null","","","","","","","","","","","","","","","","",""
"","html-keyboard-response","320","168222","0.0-351.0","6uo93rsj","","","","","","","","","","","","","25","vib","Diagnostic trial","","j","","3","7","6","true","false","true","both pre & post","RIGHT","RIGHT","j","1","true","","","",""
"","html-keyboard-response","321","168983","0.0-354.0","6uo93rsj","1366","768","","","","","","","","","","","null","+","Fixation - short","","null","","","","","","","","","","","","","","","","",""
"","html-keyboard-response","322","169119","0.0-355.0","6uo93rsj","","","","","","","","","","","","","134","vib","Inducer trial","","j","","3","","","","true","","","","","j","1","","false","RIGHT","",""
"","html-keyboard-response","323","169877","0.0-358.0","6uo93rsj","1366","768","","","","","","","","","","","null","+","Fixation - short","","null","","","","","","","","","","","","","","","","",""
"","html-keyboard-response","324","170656","0.0-359.0","6uo93rsj","","","","","","","","","","","","","777","If ivr press RIGHT | If gfm press LEFT","Inducer instructions",""," ","","4","","","","","","","","","","","","","","",""
"","html-keyboard-response","325","171414","0.0-360.0","6uo93rsj","1366","768","","","","","","","","","","","null","+","Fixation - short","","null","","","","","","","","","","","","","","","","",""
"","html-keyboard-response","326","171445","0.0-361.0","6uo93rsj","","","","","","","","","","","","","29","gfm","Diagnostic trial","","j","","4","0","11","false","false","true","both pre & post","LEFT","RIGHT","j","1","false","","","",""
"","html-keyboard-response","327","172209","0.0-364.0","6uo93rsj","1366","768","","","","","","","","","","","null","+","Fixation - short","","null","","","","","","","","","","","","","","","","",""
"","html-keyboard-response","328","172246","0.0-365.0","6uo93rsj","","","","","","","","","","","","","37","ivr","Diagnostic trial","","j","","4","1","11","false","false","true","both pre & post","RIGHT","RIGHT","j","1","true","","","",""
"","html-keyboard-response","329","173005","0.0-368.0","6uo93rsj","1366","768","","","","","","","","","","","null","+","Fixation - short","","null","","","","","","","","","","","","","","","","",""
"","html-keyboard-response","330","173191","0.0-369.0","6uo93rsj","","","","","","","","","","","","","184","ivr","Diagnostic trial","","f","","4","2","11","false","false","true","both pre & post","RIGHT","RIGHT","j","0","true","","","",""
"","call-function","331","173191","0.0-371.0-0.0","6uo93rsj","","","","","","","","","","","","","","","","","","","","","","","","","","","","","","","","","",""
"","html-keyboard-response","332","173501","0.0-371.0-1.0","6uo93rsj","1366","768","","","","","","","","","","","null","Wrong","Feedback","","null","","","","","","","","","","","","","","","","",""
"","call-function","333","173502","0.0-371.0-2.0","6uo93rsj","","","","","","","","","","","","","","","","","","","","","","","","","","","","","","","","","",""
"","html-keyboard-response","334","174256","0.0-372.0","6uo93rsj","1366","768","","","","","","","","","","","null","+","Fixation - short","","null","","","","","","","","","","","","","","","","",""
"","html-keyboard-response","335","174355","0.0-373.0","6uo93rsj","","","","","","","","","","","","","98","gfm","Diagnostic trial","","j","","4","3","11","false","false","false","both pre & post","LEFT","LEFT","f","0","true","","","",""
"","call-function","336","174356","0.0-375.0-0.0","6uo93rsj","","","","","","","","","","","","","","","","","","","","","","","","","","","","","","","","","",""
"","html-keyboard-response","337","174668","0.0-375.0-1.0","6uo93rsj","1366","768","","","","","","","","","","","null","Wrong","Feedback","","null","","","","","","","","","","","","","","","","",""
"","call-function","338","174669","0.0-375.0-2.0","6uo93rsj","","","","","","","","","","","","","","","","","","","","","","","","","","","","","","","","","",""
"","html-keyboard-response","339","175421","0.0-376.0","6uo93rsj","1366","768","","","","","","","","","","","null","+","Fixation - short","","null","","","","","","","","","","","","","","","","",""
"","html-keyboard-response","340","175439","0.0-377.0","6uo93rsj","","","","","","","","","","","","","17","ivr","Diagnostic trial","","j","","4","4","11","false","false","false","both pre & post","RIGHT","LEFT","f","0","false","","","",""
"","call-function","341","175440","0.0-379.0-0.0","6uo93rsj","","","","","","","","","","","","","","","","","","","","","","","","","","","","","","","","","",""
"","html-keyboard-response","342","175750","0.0-379.0-1.0","6uo93rsj","1366","768","","","","","","","","","","","null","Wrong","Feedback","","null","","","","","","","","","","","","","","","","",""
"","call-function","343","175751","0.0-379.0-2.0","6uo93rsj","","","","","","","","","","","","","","","","","","","","","","","","","","","","","","","","","",""
"","html-keyboard-response","344","176511","0.0-380.0","6uo93rsj","1366","768","","","","","","","","","","","null","+","Fixation - short","","null","","","","","","","","","","","","","","","","",""
"","html-keyboard-response","345","176517","0.0-381.0","6uo93rsj","","","","","","","","","","","","","5","ivr","Diagnostic trial","","j","","4","5","11","false","false","true","both pre & post","RIGHT","RIGHT","j","1","true","","","",""
"","html-keyboard-response","346","177278","0.0-384.0","6uo93rsj","1366","768","","","","","","","","","","","null","+","Fixation - short","","null","","","","","","","","","","","","","","","","",""
"","html-keyboard-response","347","177374","0.0-385.0","6uo93rsj","","","","","","","","","","","","","95","gfm","Diagnostic trial","","j","","4","6","11","false","false","true","both pre & post","LEFT","RIGHT","j","1","false","","","",""
"","html-keyboard-response","348","178134","0.0-388.0","6uo93rsj","1366","768","","","","","","","","","","","null","+","Fixation - short","","null","","","","","","","","","","","","","","","","",""
"","html-keyboard-response","349","178140","0.0-389.0","6uo93rsj","","","","","","","","","","","","","5","ivr","Diagnostic trial","","j","","4","7","11","false","false","false","both pre & post","RIGHT","LEFT","f","0","false","","","",""
"","call-function","350","178141","0.0-391.0-0.0","6uo93rsj","","","","","","","","","","","","","","","","","","","","","","","","","","","","","","","","","",""
"","html-keyboard-response","351","178449","0.0-391.0-1.0","6uo93rsj","1366","768","","","","","","","","","","","null","Wrong","Feedback","","null","","","","","","","","","","","","","","","","",""
"","call-function","352","178450","0.0-391.0-2.0","6uo93rsj","","","","","","","","","","","","","","","","","","","","","","","","","","","","","","","","","",""
"","html-keyboard-response","353","179201","0.0-392.0","6uo93rsj","1366","768","","","","","","","","","","","null","+","Fixation - short","","null","","","","","","","","","","","","","","","","",""
"","html-keyboard-response","354","179371","0.0-393.0","6uo93rsj","","","","","","","","","","","","","168","ivr","Diagnostic trial","","f","","4","8","11","false","false","false","both pre & post","RIGHT","LEFT","f","1","false","","","",""
"","html-keyboard-response","355","180132","0.0-396.0","6uo93rsj","1366","768","","","","","","","","","","","null","+","Fixation - short","","null","","","","","","","","","","","","","","","","",""
"","html-keyboard-response","356","180185","0.0-397.0","6uo93rsj","","","","","","","","","","","","","52","gfm","Diagnostic trial","","f","","4","9","11","false","false","false","both pre & post","LEFT","LEFT","f","1","true","","","",""
"","html-keyboard-response","357","180940","0.0-400.0","6uo93rsj","1366","768","","","","","","","","","","","null","+","Fixation - short","","null","","","","","","","","","","","","","","","","",""
"","html-keyboard-response","358","181018","0.0-401.0","6uo93rsj","","","","","","","","","","","","","76","ivr","Diagnostic trial","","f","","4","10","11","false","false","false","both pre & post","RIGHT","LEFT","f","1","false","","","",""
"","html-keyboard-response","359","181773","0.0-404.0","6uo93rsj","1366","768","","","","","","","","","","","null","+","Fixation - short","","null","","","","","","","","","","","","","","","","",""
"","canvas-keyboard-response","360","183027","0.0-405.0","6uo93rsj","","","","","","","","","","","","","null","Cue","Cue","","null","","4","10","","","false","","","","","","","","","","",""
"","html-keyboard-response","361","183781","0.0-406.0","6uo93rsj","1366","768","","","","","","","","","","","null","+","Fixation - short","","null","","","","","","","","","","","","","","","","",""
"","html-keyboard-response","362","183972","0.0-407.0","6uo93rsj","","","","","","","","","","","","","189","gfm","Diagnostic trial","","j","","4","11","11","true","false","true","both pre & post","LEFT","RIGHT","j","1","false","","","",""
"","html-keyboard-response","363","184731","0.0-410.0","6uo93rsj","1366","768","","","","","","","","","","","null","+","Fixation - short","","null","","","","","","","","","","","","","","","","",""
"","html-keyboard-response","364","184889","0.0-411.0","6uo93rsj","","","","","","","","","","","","","155","ivr","Diagnostic trial","","f","","4","12","11","true","false","true","both pre & post","RIGHT","RIGHT","j","0","true","","","",""
"","call-function","365","184890","0.0-413.0-0.0","6uo93rsj","","","","","","","","","","","","","","","","","","","","","","","","","","","","","","","","","",""
"","html-keyboard-response","366","185195","0.0-413.0-1.0","6uo93rsj","1366","768","","","","","","","","","","","null","Wrong","Feedback","","null","","","","","","","","","","","","","","","","",""
"","call-function","367","185196","0.0-413.0-2.0","6uo93rsj","","","","","","","","","","","","","","","","","","","","","","","","","","","","","","","","","",""
"","html-keyboard-response","368","185955","0.0-414.0","6uo93rsj","1366","768","","","","","","","","","","","null","+","Fixation - short","","null","","","","","","","","","","","","","","","","",""
"","html-keyboard-response","369","186071","0.0-415.0","6uo93rsj","","","","","","","","","","","","","113","ivr","Diagnostic trial","","f","","4","13","11","true","false","false","both pre & post","RIGHT","LEFT","f","1","false","","","",""
"","html-keyboard-response","370","186829","0.0-418.0","6uo93rsj","1366","768","","","","","","","","","","","null","+","Fixation - short","","null","","","","","","","","","","","","","","","","",""
"","html-keyboard-response","371","186996","0.0-419.0","6uo93rsj","","","","","","","","","","","","","165","ivr","Diagnostic trial","","f","","4","14","11","true","false","false","both pre & post","RIGHT","LEFT","f","1","false","","","",""
"","html-keyboard-response","372","187761","0.0-422.0","6uo93rsj","1366","768","","","","","","","","","","","null","+","Fixation - short","","null","","","","","","","","","","","","","","","","",""
"","html-keyboard-response","373","187844","0.0-423.0","6uo93rsj","","","","","","","","","","","","","80","ivr","Inducer trial","","f","","4","","","","true","","","","","j","0","","false","RIGHT","",""
"","call-function","374","187845","0.0-425.0-0.0","6uo93rsj","","","","","","","","","","","","","","","","","","","","","","","","","","","","","","","","","",""
"","html-keyboard-response","375","188158","0.0-425.0-1.0","6uo93rsj","1366","768","","","","","","","","","","","null","Wrong","Feedback","","null","","","","","","","","","","","","","","","","",""
"","call-function","376","188159","0.0-425.0-2.0","6uo93rsj","","","","","","","","","","","","","","","","","","","","","","","","","","","","","","","","","",""
"","html-keyboard-response","377","188911","0.0-426.0","6uo93rsj","1366","768","","","","","","","","","","","null","+","Fixation - short","","null","","","","","","","","","","","","","","","","",""
"","html-keyboard-response","378","189610","0.0-427.0","6uo93rsj","","","","","","","","","","","","","697","If prg press RIGHT | If jil press LEFT","Inducer instructions",""," ","","5","","","","","","","","","","","","","","",""
"","html-keyboard-response","379","190376","0.0-428.0","6uo93rsj","1366","768","","","","","","","","","","","null","+","Fixation - short","","null","","","","","","","","","","","","","","","","",""
"","html-keyboard-response","380","190391","0.0-429.0","6uo93rsj","","","","","","","","","","","","","13","prg","Diagnostic trial","","j","","5","0","8","false","false","true","both pre & post","RIGHT","RIGHT","j","1","true","","","",""
"","html-keyboard-response","381","191158","0.0-432.0","6uo93rsj","1366","768","","","","","","","","","","","null","+","Fixation - short","","null","","","","","","","","","","","","","","","","",""
"","html-keyboard-response","382","191221","0.0-433.0","6uo93rsj","","","","","","","","","","","","","61","jil","Diagnostic trial","","j","","5","1","8","false","false","false","both pre & post","LEFT","LEFT","f","0","true","","","",""
"","call-function","383","191223","0.0-435.0-0.0","6uo93rsj","","","","","","","","","","","","","","","","","","","","","","","","","","","","","","","","","",""
"","html-keyboard-response","384","191540","0.0-435.0-1.0","6uo93rsj","1366","768","","","","","","","","","","","null","Wrong","Feedback","","null","","","","","","","","","","","","","","","","",""
"","call-function","385","191541","0.0-435.0-2.0","6uo93rsj","","","","","","","","","","","","","","","","","","","","","","","","","","","","","","","","","",""
"","html-keyboard-response","386","192309","0.0-436.0","6uo93rsj","1366","768","","","","","","","","","","","null","+","Fixation - short","","null","","","","","","","","","","","","","","","","",""
"","html-keyboard-response","387","192468","0.0-437.0","6uo93rsj","","","","","","","","","","","","","157","prg","Diagnostic trial","","f","","5","2","8","false","false","true","both pre & post","RIGHT","RIGHT","j","0","true","","","",""
"","call-function","388","192470","0.0-439.0-0.0","6uo93rsj","","","","","","","","","","","","","","","","","","","","","","","","","","","","","","","","","",""
"","html-keyboard-response","389","192772","0.0-439.0-1.0","6uo93rsj","1366","768","","","","","","","","","","","null","Wrong","Feedback","","null","","","","","","","","","","","","","","","","",""
"","call-function","390","192773","0.0-439.0-2.0","6uo93rsj","","","","","","","","","","","","","","","","","","","","","","","","","","","","","","","","","",""
"","html-keyboard-response","391","193541","0.0-440.0","6uo93rsj","1366","768","","","","","","","","","","","null","+","Fixation - short","","null","","","","","","","","","","","","","","","","",""
"","html-keyboard-response","392","193544","0.0-441.0","6uo93rsj","","","","","","","","","","","","","1","jil","Diagnostic trial","","f","","5","3","8","false","false","false","both pre & post","LEFT","LEFT","f","1","true","","","",""
"","html-keyboard-response","393","194299","0.0-444.0","6uo93rsj","1366","768","","","","","","","","","","","null","+","Fixation - short","","null","","","","","","","","","","","","","","","","",""
"","html-keyboard-response","394","194396","0.0-445.0","6uo93rsj","","","","","","","","","","","","","95","prg","Diagnostic trial","","f","","5","4","8","false","false","true","both pre & post","RIGHT","RIGHT","j","0","true","","","",""
"","call-function","395","194398","0.0-447.0-0.0","6uo93rsj","","","","","","","","","","","","","","","","","","","","","","","","","","","","","","","","","",""
"","html-keyboard-response","396","194705","0.0-447.0-1.0","6uo93rsj","1366","768","","","","","","","","","","","null","Wrong","Feedback","","null","","","","","","","","","","","","","","","","",""
"","call-function","397","194706","0.0-447.0-2.0","6uo93rsj","","","","","","","","","","","","","","","","","","","","","","","","","","","","","","","","","",""
"","html-keyboard-response","398","195473","0.0-448.0","6uo93rsj","1366","768","","","","","","","","","","","null","+","Fixation - short","","null","","","","","","","","","","","","","","","","",""
"","html-keyboard-response","399","195617","0.0-449.0","6uo93rsj","","","","","","","","","","","","","142","prg","Diagnostic trial","","j","","5","5","8","false","false","true","both pre & post","RIGHT","RIGHT","j","1","true","","","",""
"","html-keyboard-response","400","196380","0.0-452.0","6uo93rsj","1366","768","","","","","","","","","","","null","+","Fixation - short","","null","","","","","","","","","","","","","","","","",""
"","html-keyboard-response","401","196465","0.0-453.0","6uo93rsj","","","","","","","","","","","","","83","prg","Diagnostic trial","","j","","5","6","8","false","false","true","both pre & post","RIGHT","RIGHT","j","1","true","","","",""
"","html-keyboard-response","402","197221","0.0-456.0","6uo93rsj","1366","768","","","","","","","","","","","null","+","Fixation - short","","null","","","","","","","","","","","","","","","","",""
"","html-keyboard-response","403","197358","0.0-457.0","6uo93rsj","","","","","","","","","","","","","135","jil","Diagnostic trial","","j","","5","7","8","false","false","false","both pre & post","LEFT","LEFT","f","0","true","","","",""
"","call-function","404","197360","0.0-459.0-0.0","6uo93rsj","","","","","","","","","","","","","","","","","","","","","","","","","","","","","","","","","",""
"","html-keyboard-response","405","197669","0.0-459.0-1.0","6uo93rsj","1366","768","","","","","","","","","","","null","Wrong","Feedback","","null","","","","","","","","","","","","","","","","",""
"","call-function","406","197671","0.0-459.0-2.0","6uo93rsj","","","","","","","","","","","","","","","","","","","","","","","","","","","","","","","","","",""
"","html-keyboard-response","407","198423","0.0-460.0","6uo93rsj","1366","768","","","","","","","","","","","null","+","Fixation - short","","null","","","","","","","","","","","","","","","","",""
"","canvas-keyboard-response","408","199677","0.0-461.0","6uo93rsj","","","","","","","","","","","","","null","Cue","Cue","","null","","5","7","","","false","","","","","","","","","","",""
"","html-keyboard-response","409","200436","0.0-462.0","6uo93rsj","1366","768","","","","","","","","","","","null","+","Fixation - short","","null","","","","","","","","","","","","","","","","",""
"","html-keyboard-response","410","200551","0.0-463.0","6uo93rsj","","","","","","","","","","","","","113","prg","Diagnostic trial","","j","","5","8","8","true","false","true","both pre & post","RIGHT","RIGHT","j","1","true","","","",""
"","html-keyboard-response","411","201309","0.0-466.0","6uo93rsj","1366","768","","","","","","","","","","","null","+","Fixation - short","","null","","","","","","","","","","","","","","","","",""
"","html-keyboard-response","412","201423","0.0-467.0","6uo93rsj","","","","","","","","","","","","","112","prg","Diagnostic trial","","j","","5","9","8","true","false","true","both pre & post","RIGHT","RIGHT","j","1","true","","","",""
"","html-keyboard-response","413","202183","0.0-470.0","6uo93rsj","1366","768","","","","","","","","","","","null","+","Fixation - short","","null","","","","","","","","","","","","","","","","",""
"","html-keyboard-response","414","202292","0.0-471.0","6uo93rsj","","","","","","","","","","","","","108","prg","Inducer trial","","f","","5","","","","true","","","","","j","0","","false","RIGHT","",""
"","call-function","415","202293","0.0-473.0-0.0","6uo93rsj","","","","","","","","","","","","","","","","","","","","","","","","","","","","","","","","","",""
"","html-keyboard-response","416","202597","0.0-473.0-1.0","6uo93rsj","1366","768","","","","","","","","","","","null","Wrong","Feedback","","null","","","","","","","","","","","","","","","","",""
"","call-function","417","202598","0.0-473.0-2.0","6uo93rsj","","","","","","","","","","","","","","","","","","","","","","","","","","","","","","","","","",""
"","html-keyboard-response","418","203350","0.0-474.0","6uo93rsj","1366","768","","","","","","","","","","","null","+","Fixation - short","","null","","","","","","","","","","","","","","","","",""
"","html-keyboard-response","419","203981","0.0-475.0","6uo93rsj","","","","","","","","","","","","","630","If dnc press RIGHT | If lct press LEFT","Inducer instructions",""," ","","6","","","","","","","","","","","","","","",""
"","html-keyboard-response","420","204746","0.0-476.0","6uo93rsj","1366","768","","","","","","","","","","","null","+","Fixation - short","","null","","","","","","","","","","","","","","","","",""
"","html-keyboard-response","421","204837","0.0-477.0","6uo93rsj","","","","","","","","","","","","","89","dnc","Diagnostic trial","","f","","6","0","5","false","false","true","both pre & post","RIGHT","RIGHT","j","0","true","","","",""
"","call-function","422","204837","0.0-479.0-0.0","6uo93rsj","","","","","","","","","","","","","","","","","","","","","","","","","","","","","","","","","",""
"","html-keyboard-response","423","205144","0.0-479.0-1.0","6uo93rsj","1366","768","","","","","","","","","","","null","Wrong","Feedback","","null","","","","","","","","","","","","","","","","",""
"","call-function","424","205145","0.0-479.0-2.0","6uo93rsj","","","","","","","","","","","","","","","","","","","","","","","","","","","","","","","","","",""
"","html-keyboard-response","425","205898","0.0-480.0","6uo93rsj","1366","768","","","","","","","","","","","null","+","Fixation - short","","null","","","","","","","","","","","","","","","","",""
"","html-keyboard-response","426","205980","0.0-481.0","6uo93rsj","","","","","","","","","","","","","81","lct","Diagnostic trial","","j","","6","1","5","false","false","true","both pre & post","LEFT","RIGHT","j","1","false","","","",""
"","html-keyboard-response","427","206737","0.0-484.0","6uo93rsj","1366","768","","","","","","","","","","","null","+","Fixation - short","","null","","","","","","","","","","","","","","","","",""
"","html-keyboard-response","428","206846","0.0-485.0","6uo93rsj","","","","","","","","","","","","","108","lct","Diagnostic trial","","j","","6","2","5","false","false","false","both pre & post","LEFT","LEFT","f","0","true","","","",""
"","call-function","429","206847","0.0-487.0-0.0","6uo93rsj","","","","","","","","","","","","","","","","","","","","","","","","","","","","","","","","","",""
"","html-keyboard-response","430","207159","0.0-487.0-1.0","6uo93rsj","1366","768","","","","","","","","","","","null","Wrong","Feedback","","null","","","","","","","","","","","","","","","","",""
"","call-function","431","207160","0.0-487.0-2.0","6uo93rsj","","","","","","","","","","","","","","","","","","","","","","","","","","","","","","","","","",""
"","html-keyboard-response","432","207913","0.0-488.0","6uo93rsj","1366","768","","","","","","","","","","","null","+","Fixation - short","","null","","","","","","","","","","","","","","","","",""
"","html-keyboard-response","433","207990","0.0-489.0","6uo93rsj","","","","","","","","","","","","","76","dnc","Diagnostic trial","","j","","6","3","5","false","false","true","both pre & post","RIGHT","RIGHT","j","1","true","","","",""
"","html-keyboard-response","434","208753","0.0-492.0","6uo93rsj","1366","768","","","","","","","","","","","null","+","Fixation - short","","null","","","","","","","","","","","","","","","","",""
"","html-keyboard-response","435","208902","0.0-493.0","6uo93rsj","","","","","","","","","","","","","147","dnc","Diagnostic trial","","f","","6","4","5","false","false","true","both pre & post","RIGHT","RIGHT","j","0","true","","","",""
"","call-function","436","208902","0.0-495.0-0.0","6uo93rsj","","","","","","","","","","","","","","","","","","","","","","","","","","","","","","","","","",""
"","html-keyboard-response","437","209208","0.0-495.0-1.0","6uo93rsj","1366","768","","","","","","","","","","","null","Wrong","Feedback","","null","","","","","","","","","","","","","","","","",""
"","call-function","438","209209","0.0-495.0-2.0","6uo93rsj","","","","","","","","","","","","","","","","","","","","","","","","","","","","","","","","","",""
"","html-keyboard-response","439","209969","0.0-496.0","6uo93rsj","1366","768","","","","","","","","","","","null","+","Fixation - short","","null","","","","","","","","","","","","","","","","",""
"","canvas-keyboard-response","440","211226","0.0-497.0","6uo93rsj","","","","","","","","","","","","","null","Cue","Cue","","null","","6","4","","","false","","","","","","","","","","",""
"","html-keyboard-response","441","211983","0.0-498.0","6uo93rsj","1366","768","","","","","","","","","","","null","+","Fixation - short","","null","","","","","","","","","","","","","","","","",""
"","html-keyboard-response","442","212211","0.0-499.0","6uo93rsj","","","","","","","","","","","","","227","dnc","Diagnostic trial","","f","","6","5","5","true","false","false","both pre & post","RIGHT","LEFT","f","1","false","","","",""
"","html-keyboard-response","443","212966","0.0-502.0","6uo93rsj","1366","768","","","","","","","","","","","null","+","Fixation - short","","null","","","","","","","","","","","","","","","","",""
"","html-keyboard-response","444","213060","0.0-503.0","6uo93rsj","","","","","","","","","","","","","93","lct","Diagnostic trial","","j","","6","6","5","true","false","false","both pre & post","LEFT","LEFT","f","0","true","","","",""
"","call-function","445","213060","0.0-505.0-0.0","6uo93rsj","","","","","","","","","","","","","","","","","","","","","","","","","","","","","","","","","",""
"","html-keyboard-response","446","213371","0.0-505.0-1.0","6uo93rsj","1366","768","","","","","","","","","","","null","Wrong","Feedback","","null","","","","","","","","","","","","","","","","",""
"","call-function","447","213372","0.0-505.0-2.0","6uo93rsj","","","","","","","","","","","","","","","","","","","","","","","","","","","","","","","","","",""
"","html-keyboard-response","448","214124","0.0-506.0","6uo93rsj","1366","768","","","","","","","","","","","null","+","Fixation - short","","null","","","","","","","","","","","","","","","","",""
"","html-keyboard-response","449","214132","0.0-507.0","6uo93rsj","","","","","","","","","","","","","5","lct","Inducer trial","","f","","6","","","","true","","","","","f","1","","false","LEFT","",""
"","html-keyboard-response","450","214897","0.0-510.0","6uo93rsj","1366","768","","","","","","","","","","","null","+","Fixation - short","","null","","","","","","","","","","","","","","","","",""
"","html-keyboard-response","451","215490","0.0-511.0","6uo93rsj","","","","","","","","","","","","","591","If pcm press RIGHT | If feg press LEFT","Inducer instructions",""," ","","7","","","","","","","","","","","","","","",""
"","html-keyboard-response","452","216254","0.0-512.0","6uo93rsj","1366","768","","","","","","","","","","","null","+","Fixation - short","","null","","","","","","","","","","","","","","","","",""
"","html-keyboard-response","453","216301","0.0-513.0","6uo93rsj","","","","","","","","","","","","","46","pcm","Diagnostic trial","","j","","7","0","11","false","false","true","both pre & post","RIGHT","RIGHT","j","1","true","","","",""
"","html-keyboard-response","454","217055","0.0-516.0","6uo93rsj","1366","768","","","","","","","","","","","null","+","Fixation - short","","null","","","","","","","","","","","","","","","","",""
"","html-keyboard-response","455","217127","0.0-517.0","6uo93rsj","","","","","","","","","","","","","71","pcm","Diagnostic trial","","j","","7","1","11","false","false","false","both pre & post","RIGHT","LEFT","f","0","false","","","",""
"","call-function","456","217128","0.0-519.0-0.0","6uo93rsj","","","","","","","","","","","","","","","","","","","","","","","","","","","","","","","","","",""
"","html-keyboard-response","457","217435","0.0-519.0-1.0","6uo93rsj","1366","768","","","","","","","","","","","null","Wrong","Feedback","","null","","","","","","","","","","","","","","","","",""
"","call-function","458","217435","0.0-519.0-2.0","6uo93rsj","","","","","","","","","","","","","","","","","","","","","","","","","","","","","","","","","",""
"","html-keyboard-response","459","218188","0.0-520.0","6uo93rsj","1366","768","","","","","","","","","","","null","+","Fixation - short","","null","","","","","","","","","","","","","","","","",""
"","html-keyboard-response","460","218362","0.0-521.0","6uo93rsj","","","","","","","","","","","","","172","feg","Diagnostic trial","","f","","7","2","11","false","false","false","both pre & post","LEFT","LEFT","f","1","true","","","",""
"","html-keyboard-response","461","219126","0.0-524.0","6uo93rsj","1366","768","","","","","","","","","","","null","+","Fixation - short","","null","","","","","","","","","","","","","","","","",""
"","html-keyboard-response","462","219243","0.0-525.0","6uo93rsj","","","","","","","","","","","","","116","pcm","Diagnostic trial","","f","","7","3","11","false","false","true","both pre & post","RIGHT","RIGHT","j","0","true","","","",""
"","call-function","463","219244","0.0-527.0-0.0","6uo93rsj","","","","","","","","","","","","","","","","","","","","","","","","","","","","","","","","","",""
"","html-keyboard-response","464","219550","0.0-527.0-1.0","6uo93rsj","1366","768","","","","","","","","","","","null","Wrong","Feedback","","null","","","","","","","","","","","","","","","","",""
"","call-function","465","219551","0.0-527.0-2.0","6uo93rsj","","","","","","","","","","","","","","","","","","","","","","","","","","","","","","","","","",""
"","html-keyboard-response","466","220319","0.0-528.0","6uo93rsj","1366","768","","","","","","","","","","","null","+","Fixation - short","","null","","","","","","","","","","","","","","","","",""
"","html-keyboard-response","467","220342","0.0-529.0","6uo93rsj","","","","","","","","","","","","","22","feg","Diagnostic trial","","j","","7","4","11","false","false","true","both pre & post","LEFT","RIGHT","j","1","false","","","",""
"","html-keyboard-response","468","221095","0.0-532.0","6uo93rsj","1366","768","","","","","","","","","","","null","+","Fixation - short","","null","","","","","","","","","","","","","","","","",""
"","html-keyboard-response","469","221700","0.0-533.0","6uo93rsj","","","","","","","","","","","","","603","pcm","Diagnostic trial","","j","","7","5","11","false","false","true","both pre & post","RIGHT","RIGHT","j","1","true","","","",""
"","html-keyboard-response","470","222466","0.0-536.0","6uo93rsj","1366","768","","","","","","","","","","","null","+","Fixation - short","","null","","","","","","","","","","","","","","","","",""
"","html-keyboard-response","471","222818","0.0-537.0","6uo93rsj","","","","","","","","","","","","","350","pcm","Diagnostic trial","","j","","7","6","11","false","false","false","both pre & post","RIGHT","LEFT","f","0","false","","","",""
"","call-function","472","222819","0.0-539.0-0.0","6uo93rsj","","","","","","","","","","","","","","","","","","","","","","","","","","","","","","","","","",""
"","html-keyboard-response","473","223121","0.0-539.0-1.0","6uo93rsj","1366","768","","","","","","","","","","","null","Wrong","Feedback","","null","","","","","","","","","","","","","","","","",""
"","call-function","474","223122","0.0-539.0-2.0","6uo93rsj","","","","","","","","","","","","","","","","","","","","","","","","","","","","","","","","","",""
"","html-keyboard-response","475","223882","0.0-540.0","6uo93rsj","1366","768","","","","","","","","","","","null","+","Fixation - short","","null","","","","","","","","","","","","","","","","",""
"","html-keyboard-response","476","223970","0.0-541.0","6uo93rsj","","","","","","","","","","","","","87","pcm","Diagnostic trial","","f","","7","7","11","false","false","false","both pre & post","RIGHT","LEFT","f","1","false","","","",""
"","html-keyboard-response","477","224723","0.0-544.0","6uo93rsj","1366","768","","","","","","","","","","","null","+","Fixation - short","","null","","","","","","","","","","","","","","","","",""
"","html-keyboard-response","478","224780","0.0-545.0","6uo93rsj","","","","","","","","","","","","","55","pcm","Diagnostic trial","","f","","7","8","11","false","false","false","both pre & post","RIGHT","LEFT","f","1","false","","","",""
"","html-keyboard-response","479","225531","0.0-548.0","6uo93rsj","1366","768","","","","","","","","","","","null","+","Fixation - short","","null","","","","","","","","","","","","","","","","",""
"","html-keyboard-response","480","225541","0.0-549.0","6uo93rsj","","","","","","","","","","","","","8","feg","Diagnostic trial","","j","","7","9","11","false","false","true","both pre & post","LEFT","RIGHT","j","1","false","","","",""
"","html-keyboard-response","481","226305","0.0-552.0","6uo93rsj","1366","768","","","","","","","","","","","null","+","Fixation - short","","null","","","","","","","","","","","","","","","","",""
"","html-keyboard-response","482","226478","0.0-553.0","6uo93rsj","","","","","","","","","","","","","171","pcm","Diagnostic trial","","j","","7","10","11","false","false","true","both pre & post","RIGHT","RIGHT","j","1","true","","","",""
"","html-keyboard-response","483","227230","0.0-556.0","6uo93rsj","1366","768","","","","","","","","","","","null","+","Fixation - short","","null","","","","","","","","","","","","","","","","",""
"","canvas-keyboard-response","484","228487","0.0-557.0","6uo93rsj","","","","","","","","","","","","","null","Cue","Cue","","null","","7","10","","","false","","","","","","","","","","",""
"","html-keyboard-response","485","229245","0.0-558.0","6uo93rsj","1366","768","","","","","","","","","","","null","+","Fixation - short","","null","","","","","","","","","","","","","","","","",""
"","html-keyboard-response","486","229488","0.0-559.0","6uo93rsj","","","","","","","","","","","","","242","feg","Diagnostic trial","","f","","7","11","11","true","false","false","both pre & post","LEFT","LEFT","f","1","true","","","",""
"","html-keyboard-response","487","230244","0.0-562.0","6uo93rsj","1366","768","","","","","","","","","","","null","+","Fixation - short","","null","","","","","","","","","","","","","","","","",""
