"value","trial_type","trial_index","time_elapsed","internal_node_id","id","width","height","webaudio","browser","browser_version","mobile","os","fullscreen","vsync_rate","webcam","microphone","view_history","rt","stimulus","trial_info","success","response","exp_parameters","inducer_run","diagnostic_run","cue_num","post_cue","inducer_trial","italic","forced_equal_run","correct_inducer_response_side","correct_diag_response_side","correct_response_key","correct_response","congruent","force_equal","correct_indu_response_side","accuracy","interactive"
"","call-function","0","2","0.0-0.0","bglkg64e","","","","","","","","","","","","","","","","","","","","","","","","","","","","","","","","","",""
"","browser-check","1","1032","0.0-1.0","bglkg64e","1536","730","true","chrome","123.0.0","false","Windows 10","true","58.95","true","true","","","","","","","","","","","","","","","","","","","","","","",""
"","instructions","2","177650","0.0-2.0","bglkg64e","","","","","","","","","","","","[{""page_index"":0,""viewing_time"":39684},{""page_index"":1,""viewing_time"":128148},{""page_index"":2,""viewing_time"":8784}]","176618","The experiment and consent","The experiment and consent","","","","","","","","","","","","","","","","","","",""
"","fullscreen","3","184741","0.0-3.0","bglkg64e","","","","","","","","","","","","","6080","","Full screen","true","","","","","","","","","","","","","","","","","",""
"","instructions","4","223946","0.0-4.0","bglkg64e","","","","","","","","","","","","[{""page_index"":0,""viewing_time"":22335},{""page_index"":1,""viewing_time"":16867}]","39203","Instructions","Basic overview explanation","","","","","","","","","","","","","","","","","","",""
"","html-keyboard-response","5","237842","0.0-5.0","bglkg64e","","","","","","","","","","","","","12387","If italic press LEFT | If upright press RIGHT","Diagnostic instructions",""," ","{""debug"":false,""skip_instructions"":false,""skip_practice"":false,""save_local_data"":false,""studu_name"":""exp2"",""default_background_colour"":""#cccccc"",""wrong_response_colour"":""#d22d2d"",""instruction_delay"":20000,""trial_duration"":2000,""short_fixation"":750,""long_fixation"":1500,""wrong_response_delay"":300,""too_slow_delay"":300,""instruction_font_size"":""24px"",""general_font_size"":""42px"",""fixation_size"":""48px"",""allowed_responses"":[""f"",""j""],""cue_min_length"":0,""cue_max_length"":4,""tot_post_cue_len"":72,""cue_colour"":""red"",""cue_shape"":""Square"",""cue_size"":70,""cue_duration"":1250,""avg_number_of_cues"":3,""inducer_colour"":""blue"",""number_of_inducers"":24,""pre_cue_italic_forced_equal"":true,""post_cue_italic_forced_equal"":true,""prac_diagnostic_rounds"":16,""prac_inducer_rounds"":6,""prac_cue_rounds"":16,""prac_post_cue_num"":3}","","","","","","","","","","","","","","","",""
"","html-keyboard-response","6","238600","0.0-6.0","bglkg64e","1536","864","","","","","","","","","","","null","+","Fixation - short","","null","","","","","","","","","","","","","","","","",""
"","html-keyboard-response","7","239591","0.0-7.0","bglkg64e","","","","","","","","","","","","","989","pmf","Diagnostic practice","","j","","Diagnostic practice","0","-84","true","false","false","prac equal","RIGHT","RIGHT","j","1","true","","","",""
"","html-keyboard-response","8","240347","0.0-10.0","bglkg64e","1536","864","","","","","","","","","","","null","+","Fixation - short","","null","","","","","","","","","","","","","","","","",""
"","html-keyboard-response","9","240956","0.0-11.0","bglkg64e","","","","","","","","","","","","","608","rbc","Diagnostic practice","","f","","Diagnostic practice","1","-84","true","false","true","prac equal","LEFT","LEFT","f","1","true","","","",""
"","html-keyboard-response","10","241717","0.0-14.0","bglkg64e","1536","864","","","","","","","","","","","null","+","Fixation - short","","null","","","","","","","","","","","","","","","","",""
"","html-keyboard-response","11","242334","0.0-15.0","bglkg64e","","","","","","","","","","","","","615","rbc","Diagnostic practice","","j","","Diagnostic practice","2","-84","true","false","false","prac equal","LEFT","RIGHT","j","1","false","","","",""
"","html-keyboard-response","12","243086","0.0-18.0","bglkg64e","1536","864","","","","","","","","","","","null","+","Fixation - short","","null","","","","","","","","","","","","","","","","",""
"","html-keyboard-response","13","243523","0.0-19.0","bglkg64e","","","","","","","","","","","","","436","rbc","Diagnostic practice","","j","","Diagnostic practice","3","-84","true","false","false","prac equal","LEFT","RIGHT","j","1","false","","","",""
"","html-keyboard-response","14","244289","0.0-22.0","bglkg64e","1536","864","","","","","","","","","","","null","+","Fixation - short","","null","","","","","","","","","","","","","","","","",""
"","html-keyboard-response","15","244805","0.0-23.0","bglkg64e","","","","","","","","","","","","","515","pmf","Diagnostic practice","","j","","Diagnostic practice","4","-84","true","false","false","prac equal","RIGHT","RIGHT","j","1","true","","","",""
"","html-keyboard-response","16","245558","0.0-26.0","bglkg64e","1536","864","","","","","","","","","","","null","+","Fixation - short","","null","","","","","","","","","","","","","","","","",""
"","html-keyboard-response","17","245982","0.0-27.0","bglkg64e","","","","","","","","","","","","","423","rbc","Diagnostic practice","","f","","Diagnostic practice","5","-84","true","false","true","prac equal","LEFT","LEFT","f","1","true","","","",""
"","html-keyboard-response","18","246734","0.0-30.0","bglkg64e","1536","864","","","","","","","","","","","null","+","Fixation - short","","null","","","","","","","","","","","","","","","","",""
"","html-keyboard-response","19","247162","0.0-31.0","bglkg64e","","","","","","","","","","","","","426","rbc","Diagnostic practice","","j","","Diagnostic practice","6","-84","true","false","false","prac equal","LEFT","RIGHT","j","1","false","","","",""
"","html-keyboard-response","20","247921","0.0-34.0","bglkg64e","1536","864","","","","","","","","","","","null","+","Fixation - short","","null","","","","","","","","","","","","","","","","",""
"","html-keyboard-response","21","248385","0.0-35.0","bglkg64e","","","","","","","","","","","","","464","pmf","Diagnostic practice","","f","","Diagnostic practice","7","-84","true","false","true","prac equal","RIGHT","LEFT","f","1","false","","","",""
"","html-keyboard-response","22","249137","0.0-38.0","bglkg64e","1536","864","","","","","","","","","","","null","+","Fixation - short","","null","","","","","","","","","","","","","","","","",""
"","html-keyboard-response","23","249560","0.0-39.0","bglkg64e","","","","","","","","","","","","","421","pmf","Diagnostic practice","","f","","Diagnostic practice","8","-84","true","false","true","prac equal","RIGHT","LEFT","f","1","false","","","",""
"","html-keyboard-response","24","250314","0.0-42.0","bglkg64e","1536","864","","","","","","","","","","","null","+","Fixation - short","","null","","","","","","","","","","","","","","","","",""
"","html-keyboard-response","25","250731","0.0-43.0","bglkg64e","","","","","","","","","","","","","417","pmf","Diagnostic practice","","f","","Diagnostic practice","9","-84","true","false","true","prac equal","RIGHT","LEFT","f","1","false","","","",""
"","html-keyboard-response","26","251485","0.0-46.0","bglkg64e","1536","864","","","","","","","","","","","null","+","Fixation - short","","null","","","","","","","","","","","","","","","","",""
"","html-keyboard-response","27","252096","0.0-47.0","bglkg64e","","","","","","","","","","","","","610","pmf","Diagnostic practice","","f","","Diagnostic practice","10","-84","true","false","true","prac equal","RIGHT","LEFT","f","1","false","","","",""
"","html-keyboard-response","28","252856","0.0-50.0","bglkg64e","1536","864","","","","","","","","","","","null","+","Fixation - short","","null","","","","","","","","","","","","","","","","",""
"","html-keyboard-response","29","253303","0.0-51.0","bglkg64e","","","","","","","","","","","","","446","pmf","Diagnostic practice","","f","","Diagnostic practice","11","-84","true","false","true","prac equal","RIGHT","LEFT","f","1","false","","","",""
"","html-keyboard-response","30","254060","0.0-54.0","bglkg64e","1536","864","","","","","","","","","","","null","+","Fixation - short","","null","","","","","","","","","","","","","","","","",""
"","html-keyboard-response","31","254591","0.0-55.0","bglkg64e","","","","","","","","","","","","","530","rbc","Diagnostic practice","","f","","Diagnostic practice","12","-84","true","false","true","prac equal","LEFT","LEFT","f","1","true","","","",""
"","html-keyboard-response","32","255350","0.0-58.0","bglkg64e","1536","864","","","","","","","","","","","null","+","Fixation - short","","null","","","","","","","","","","","","","","","","",""
"","html-keyboard-response","33","255947","0.0-59.0","bglkg64e","","","","","","","","","","","","","595","rbc","Diagnostic practice","","j","","Diagnostic practice","13","-84","true","false","false","prac equal","LEFT","RIGHT","j","1","false","","","",""
"","html-keyboard-response","34","256713","0.0-62.0","bglkg64e","1536","864","","","","","","","","","","","null","+","Fixation - short","","null","","","","","","","","","","","","","","","","",""
"","html-keyboard-response","35","257238","0.0-63.0","bglkg64e","","","","","","","","","","","","","523","pmf","Diagnostic practice","","j","","Diagnostic practice","14","-84","true","false","false","prac equal","RIGHT","RIGHT","j","1","true","","","",""
"","html-keyboard-response","36","257998","0.0-66.0","bglkg64e","1536","864","","","","","","","","","","","null","+","Fixation - short","","null","","","","","","","","","","","","","","","","",""
"","html-keyboard-response","37","258515","0.0-67.0","bglkg64e","","","","","","","","","","","","","516","rbc","Diagnostic practice","","j","","Diagnostic practice","15","-84","true","false","false","prac equal","LEFT","RIGHT","j","1","false","","","",""
"","html-keyboard-response","38","259282","0.0-70.0","bglkg64e","1536","864","","","","","","","","","","","null","+","Fixation - short","","null","","","","","","","","","","","","","","","","",""
"","instructions","39","283054","0.0-71.0","bglkg64e","","","","","","","","","","","","[{""page_index"":0,""viewing_time"":23769}]","23770","Instructions","Final experiment explanation","","","","","","","","","","","","","","","","","","",""
"","html-keyboard-response","40","289894","0.0-72.0","bglkg64e","","","","","","","","","","","","","5323","If dpa press LEFT | If vsc press RIGHT","Inducer practice",""," ","","Practice","","","","","","","","","","","","","","",""
"","html-keyboard-response","41","290659","0.0-73.0","bglkg64e","1536","864","","","","","","","","","","","null","+","Fixation - short","","null","","","","","","","","","","","","","","","","",""
"","html-keyboard-response","42","291290","0.0-74.0","bglkg64e","","","","","","","","","","","","","630","vsc","Inducer practice","","j","","Practice","","","","true","","","","","j","1","","true","RIGHT","",""
"","html-keyboard-response","43","292053","0.0-77.0","bglkg64e","1536","864","","","","","","","","","","","null","+","Fixation - short","","null","","","","","","","","","","","","","","","","",""
"","html-keyboard-response","44","298760","0.0-78.0","bglkg64e","","","","","","","","","","","","","6706","If edc press LEFT | If vbt press RIGHT","Inducer practice",""," ","","Practice","","","","","","","","","","","","","","",""
"","html-keyboard-response","45","299522","0.0-79.0","bglkg64e","1536","864","","","","","","","","","","","null","+","Fixation - short","","null","","","","","","","","","","","","","","","","",""
"","html-keyboard-response","46","300011","0.0-80.0","bglkg64e","","","","","","","","","","","","","488","edc","Inducer practice","","f","","Practice","","","","true","","","","","f","1","","true","LEFT","",""
"","html-keyboard-response","47","300763","0.0-83.0","bglkg64e","1536","864","","","","","","","","","","","null","+","Fixation - short","","null","","","","","","","","","","","","","","","","",""
"","html-keyboard-response","48","308642","0.0-84.0","bglkg64e","","","","","","","","","","","","","7877","If hhd press LEFT | If gfm press RIGHT","Inducer practice",""," ","","Practice","","","","","","","","","","","","","","",""
"","html-keyboard-response","49","309405","0.0-85.0","bglkg64e","1536","864","","","","","","","","","","","null","+","Fixation - short","","null","","","","","","","","","","","","","","","","",""
"","html-keyboard-response","50","310429","0.0-86.0","bglkg64e","","","","","","","","","","","","","1022","hhd","Inducer practice","","f","","Practice","","","","true","","","","","f","1","","true","LEFT","",""
"","html-keyboard-response","51","311184","0.0-89.0","bglkg64e","1536","864","","","","","","","","","","","null","+","Fixation - short","","null","","","","","","","","","","","","","","","","",""
"","html-keyboard-response","52","315368","0.0-90.0","bglkg64e","","","","","","","","","","","","","4183","If zpl press LEFT | If quy press RIGHT","Inducer practice",""," ","","Practice","","","","","","","","","","","","","","",""
"","html-keyboard-response","53","316125","0.0-91.0","bglkg64e","1536","864","","","","","","","","","","","null","+","Fixation - short","","null","","","","","","","","","","","","","","","","",""
"","html-keyboard-response","54","316730","0.0-92.0","bglkg64e","","","","","","","","","","","","","604","quy","Inducer practice","","j","","Practice","","","","true","","","","","j","1","","true","RIGHT","",""
"","html-keyboard-response","55","317481","0.0-95.0","bglkg64e","1536","864","","","","","","","","","","","null","+","Fixation - short","","null","","","","","","","","","","","","","","","","",""
"","html-keyboard-response","56","322658","0.0-96.0","bglkg64e","","","","","","","","","","","","","5176","If ttm press LEFT | If hfs press RIGHT","Inducer practice",""," ","","Practice","","","","","","","","","","","","","","",""
"","html-keyboard-response","57","323420","0.0-97.0","bglkg64e","1536","864","","","","","","","","","","","null","+","Fixation - short","","null","","","","","","","","","","","","","","","","",""
"","html-keyboard-response","58","324190","0.0-98.0","bglkg64e","","","","","","","","","","","","","769","hfs","Inducer practice","","j","","Practice","","","","true","","","","","j","1","","true","RIGHT","",""
"","html-keyboard-response","59","324945","0.0-101.0","bglkg64e","1536","864","","","","","","","","","","","null","+","Fixation - short","","null","","","","","","","","","","","","","","","","",""
"","html-keyboard-response","60","331151","0.0-102.0","bglkg64e","","","","","","","","","","","","","6206","If jft press LEFT | If idy press RIGHT","Inducer practice",""," ","","Practice","","","","","","","","","","","","","","",""
"","html-keyboard-response","61","331903","0.0-103.0","bglkg64e","1536","864","","","","","","","","","","","null","+","Fixation - short","","null","","","","","","","","","","","","","","","","",""
"","html-keyboard-response","62","332623","0.0-104.0","bglkg64e","","","","","","","","","","","","","719","jft","Inducer practice","","f","","Practice","","","","true","","","","","f","1","","true","LEFT","",""
"","html-keyboard-response","63","333384","0.0-107.0","bglkg64e","1536","864","","","","","","","","","","","null","+","Fixation - short","","null","","","","","","","","","","","","","","","","",""
"","instructions","64","368802","0.0-108.0","bglkg64e","","","","","","","","","","","","[{""page_index"":0,""viewing_time"":35416}]","35416","Instructions","Final experiment explanation","","","","","","","","","","","","","","","","","","",""
"","html-keyboard-response","65","374755","0.0-109.0","bglkg64e","","","","","","","","","","","","","4444","If wab press LEFT | If jlm press RIGHT","Cue practice",""," ","","Practice","","","","","","","","","","","","","","",""
"","html-keyboard-response","66","375516","0.0-110.0","bglkg64e","1536","864","","","","","","","","","","","null","+","Fixation - short","","null","","","","","","","","","","","","","","","","",""
"","html-keyboard-response","67","376282","0.0-111.0","bglkg64e","","","","","","","","","","","","","764","jlm","Cue practice","","j","","Practice","0","13","false","false","true","both pre & post","RIGHT","LEFT","f","0","false","","","",""
"","call-function","68","376283","0.0-113.0-0.0","bglkg64e","","","","","","","","","","","","","","","","","","","","","","","","","","","","","","","","","",""
"","html-keyboard-response","69","376601","0.0-113.0-1.0","bglkg64e","1536","864","","","","","","","","","","","null","Wrong","Feedback","","null","","","","","","","","","","","","","","","","",""
"","call-function","70","376602","0.0-113.0-2.0","bglkg64e","","","","","","","","","","","","","","","","","","","","","","","","","","","","","","","","","",""
"","html-keyboard-response","71","377365","0.0-114.0","bglkg64e","1536","864","","","","","","","","","","","null","+","Fixation - short","","null","","","","","","","","","","","","","","","","",""
"","html-keyboard-response","72","378724","0.0-115.0","bglkg64e","","","","","","","","","","","","","1358","jlm","Cue practice","","j","","Practice","1","13","false","false","false","both pre & post","RIGHT","RIGHT","j","1","true","","","",""
"","html-keyboard-response","73","379479","0.0-118.0","bglkg64e","1536","864","","","","","","","","","","","null","+","Fixation - short","","null","","","","","","","","","","","","","","","","",""
"","html-keyboard-response","74","381042","0.0-119.0","bglkg64e","","","","","","","","","","","","","1562","jlm","Cue practice","","j","","Practice","2","13","false","false","true","both pre & post","RIGHT","LEFT","f","0","false","","","",""
"","call-function","75","381042","0.0-121.0-0.0","bglkg64e","","","","","","","","","","","","","","","","","","","","","","","","","","","","","","","","","",""
"","html-keyboard-response","76","381356","0.0-121.0-1.0","bglkg64e","1536","864","","","","","","","","","","","null","Wrong","Feedback","","null","","","","","","","","","","","","","","","","",""
"","call-function","77","381357","0.0-121.0-2.0","bglkg64e","","","","","","","","","","","","","","","","","","","","","","","","","","","","","","","","","",""
"","html-keyboard-response","78","382115","0.0-122.0","bglkg64e","1536","864","","","","","","","","","","","null","+","Fixation - short","","null","","","","","","","","","","","","","","","","",""
"","html-keyboard-response","79","383260","0.0-123.0","bglkg64e","","","","","","","","","","","","","1144","wab","Cue practice","","f","","Practice","3","13","false","false","true","both pre & post","LEFT","LEFT","f","1","true","","","",""
"","html-keyboard-response","80","384019","0.0-126.0","bglkg64e","1536","864","","","","","","","","","","","null","+","Fixation - short","","null","","","","","","","","","","","","","","","","",""
"","html-keyboard-response","81","385078","0.0-127.0","bglkg64e","","","","","","","","","","","","","1057","wab","Cue practice","","j","","Practice","4","13","false","false","false","both pre & post","LEFT","RIGHT","j","1","false","","","",""
"","html-keyboard-response","82","385837","0.0-130.0","bglkg64e","1536","864","","","","","","","","","","","null","+","Fixation - short","","null","","","","","","","","","","","","","","","","",""
"","html-keyboard-response","83","387019","0.0-131.0","bglkg64e","","","","","","","","","","","","","1180","jlm","Cue practice","","f","","Practice","5","13","false","false","true","both pre & post","RIGHT","LEFT","f","1","false","","","",""
"","html-keyboard-response","84","387772","0.0-134.0","bglkg64e","1536","864","","","","","","","","","","","null","+","Fixation - short","","null","","","","","","","","","","","","","","","","",""
"","html-keyboard-response","85","389427","0.0-135.0","bglkg64e","","","","","","","","","","","","","1654","wab","Cue practice","","j","","Practice","6","13","false","false","false","both pre & post","LEFT","RIGHT","j","1","false","","","",""
"","html-keyboard-response","86","390187","0.0-138.0","bglkg64e","1536","864","","","","","","","","","","","null","+","Fixation - short","","null","","","","","","","","","","","","","","","","",""
"","html-keyboard-response","87","391114","0.0-139.0","bglkg64e","","","","","","","","","","","","","926","wab","Cue practice","","f","","Practice","7","13","false","false","true","both pre & post","LEFT","LEFT","f","1","true","","","",""
"","html-keyboard-response","88","391877","0.0-142.0","bglkg64e","1536","864","","","","","","","","","","","null","+","Fixation - short","","null","","","","","","","","","","","","","","","","",""
"","html-keyboard-response","89","392886","0.0-143.0","bglkg64e","","","","","","","","","","","","","1007","jlm","Cue practice","","f","","Practice","8","13","false","false","true","both pre & post","RIGHT","LEFT","f","1","false","","","",""
"","html-keyboard-response","90","393653","0.0-146.0","bglkg64e","1536","864","","","","","","","","","","","null","+","Fixation - short","","null","","","","","","","","","","","","","","","","",""
"","html-keyboard-response","91","394097","0.0-147.0","bglkg64e","","","","","","","","","","","","","443","wab","Cue practice","","j","","Practice","9","13","false","false","false","both pre & post","LEFT","RIGHT","j","1","false","","","",""
"","html-keyboard-response","92","394853","0.0-150.0","bglkg64e","1536","864","","","","","","","","","","","null","+","Fixation - short","","null","","","","","","","","","","","","","","","","",""
"","html-keyboard-response","93","395944","0.0-151.0","bglkg64e","","","","","","","","","","","","","1090","jlm","Cue practice","","f","","Practice","10","13","false","false","false","both pre & post","RIGHT","RIGHT","j","0","true","","","",""
"","call-function","94","395944","0.0-153.0-0.0","bglkg64e","","","","","","","","","","","","","","","","","","","","","","","","","","","","","","","","","",""
"","html-keyboard-response","95","396247","0.0-153.0-1.0","bglkg64e","1536","864","","","","","","","","","","","null","Wrong","Feedback","","null","","","","","","","","","","","","","","","","",""
"","call-function","96","396248","0.0-153.0-2.0","bglkg64e","","","","","","","","","","","","","","","","","","","","","","","","","","","","","","","","","",""
"","html-keyboard-response","97","397000","0.0-154.0","bglkg64e","1536","864","","","","","","","","","","","null","+","Fixation - short","","null","","","","","","","","","","","","","","","","",""
"","html-keyboard-response","98","397540","0.0-155.0","bglkg64e","","","","","","","","","","","","","539","wab","Cue practice","","j","","Practice","11","13","false","false","false","both pre & post","LEFT","RIGHT","j","1","false","","","",""
"","html-keyboard-response","99","398307","0.0-158.0","bglkg64e","1536","864","","","","","","","","","","","null","+","Fixation - short","","null","","","","","","","","","","","","","","","","",""
"","html-keyboard-response","100","398843","0.0-159.0","bglkg64e","","","","","","","","","","","","","535","wab","Cue practice","","f","","Practice","12","13","false","false","true","both pre & post","LEFT","LEFT","f","1","true","","","",""
"","html-keyboard-response","101","399596","0.0-162.0","bglkg64e","1536","864","","","","","","","","","","","null","+","Fixation - short","","null","","","","","","","","","","","","","","","","",""
"","canvas-keyboard-response","102","400853","0.0-163.0","bglkg64e","","","","","","","","","","","","","null","Cue","Cue","","null","","Practice","12","","","false","","","","","","","","","","",""
"","html-keyboard-response","103","401613","0.0-164.0","bglkg64e","1536","864","","","","","","","","","","","null","+","Fixation - short","","null","","","","","","","","","","","","","","","","",""
"","html-keyboard-response","104","402767","0.0-165.0","bglkg64e","","","","","","","","","","","","","1153","jlm","Cue practice","","f","","Practice","13","13","true","false","true","both pre & post","RIGHT","LEFT","f","1","false","","","",""
"","html-keyboard-response","105","403520","0.0-168.0","bglkg64e","1536","864","","","","","","","","","","","null","+","Fixation - short","","null","","","","","","","","","","","","","","","","",""
"","html-keyboard-response","106","405031","0.0-169.0","bglkg64e","","","","","","","","","","","","","1510","wab","Cue practice","","j","","Practice","14","13","true","false","true","both pre & post","LEFT","LEFT","f","0","true","","","",""
"","call-function","107","405031","0.0-171.0-0.0","bglkg64e","","","","","","","","","","","","","","","","","","","","","","","","","","","","","","","","","",""
"","html-keyboard-response","108","405333","0.0-171.0-1.0","bglkg64e","1536","864","","","","","","","","","","","null","Wrong","Feedback","","null","","","","","","","","","","","","","","","","",""
"","call-function","109","405334","0.0-171.0-2.0","bglkg64e","","","","","","","","","","","","","","","","","","","","","","","","","","","","","","","","","",""
"","html-keyboard-response","110","406093","0.0-172.0","bglkg64e","1536","864","","","","","","","","","","","null","+","Fixation - short","","null","","","","","","","","","","","","","","","","",""
"","html-keyboard-response","111","406968","0.0-173.0","bglkg64e","","","","","","","","","","","","","875","jlm","Cue practice","","j","","Practice","15","13","true","false","false","both pre & post","RIGHT","RIGHT","j","1","true","","","",""
"","html-keyboard-response","112","407729","0.0-176.0","bglkg64e","1536","864","","","","","","","","","","","null","+","Fixation - short","","null","","","","","","","","","","","","","","","","",""
"","html-keyboard-response","113","409422","0.0-177.0","bglkg64e","","","","","","","","","","","","","1691","wab","Inducer practice","","f","","Practice","","","","true","","","","","f","1","","false","LEFT","",""
"","html-keyboard-response","114","410175","0.0-180.0","bglkg64e","1536","864","","","","","","","","","","","null","+","Fixation - short","","null","","","","","","","","","","","","","","","","",""
"","instructions","115","417044","0.0-181.0","bglkg64e","","","","","","","","","","","","[{""page_index"":0,""viewing_time"":6867}]","6868","End practice","End of practice","","","","","","","","","","","","","","","","","","",""
"","html-keyboard-response","116","420076","0.0-182.0","bglkg64e","1536","864","","","","","","","","","","","null","+","Fixation - long","","null","","","","","","","","","","","","","","","","",""
"","html-keyboard-response","117","422988","0.0-183.0","bglkg64e","","","","","","","","","","","","","2911","If ofa press LEFT | If ecl press RIGHT","Inducer instructions",""," ","","0","","","","","","","","","","","","","","",""
"","html-keyboard-response","118","423746","0.0-184.0","bglkg64e","1536","864","","","","","","","","","","","null","+","Fixation - short","","null","","","","","","","","","","","","","","","","",""
"","html-keyboard-response","119","424571","0.0-185.0","bglkg64e","","","","","","","","","","","","","823","ofa","Diagnostic trial","","f","","0","0","7","false","false","true","both pre & post","LEFT","LEFT","f","1","true","","","",""
"","html-keyboard-response","120","425329","0.0-188.0","bglkg64e","1536","864","","","","","","","","","","","null","+","Fixation - short","","null","","","","","","","","","","","","","","","","",""
"","html-keyboard-response","121","425872","0.0-189.0","bglkg64e","","","","","","","","","","","","","542","ofa","Diagnostic trial","","j","","0","1","7","false","false","false","both pre & post","LEFT","RIGHT","j","1","false","","","",""
"","html-keyboard-response","122","426626","0.0-192.0","bglkg64e","1536","864","","","","","","","","","","","null","+","Fixation - short","","null","","","","","","","","","","","","","","","","",""
"","html-keyboard-response","123","427534","0.0-193.0","bglkg64e","","","","","","","","","","","","","907","ecl","Diagnostic trial","","f","","0","2","7","false","false","true","both pre & post","RIGHT","LEFT","f","1","false","","","",""
"","html-keyboard-response","124","428293","0.0-196.0","bglkg64e","1536","864","","","","","","","","","","","null","+","Fixation - short","","null","","","","","","","","","","","","","","","","",""
"","html-keyboard-response","125","428885","0.0-197.0","bglkg64e","","","","","","","","","","","","","591","ecl","Diagnostic trial","","f","","0","3","7","false","false","true","both pre & post","RIGHT","LEFT","f","1","false","","","",""
"","html-keyboard-response","126","429642","0.0-200.0","bglkg64e","1536","864","","","","","","","","","","","null","+","Fixation - short","","null","","","","","","","","","","","","","","","","",""
"","html-keyboard-response","127","430302","0.0-201.0","bglkg64e","","","","","","","","","","","","","659","ofa","Diagnostic trial","","f","","0","4","7","false","false","true","both pre & post","LEFT","LEFT","f","1","true","","","",""
"","html-keyboard-response","128","431057","0.0-204.0","bglkg64e","1536","864","","","","","","","","","","","null","+","Fixation - short","","null","","","","","","","","","","","","","","","","",""
"","html-keyboard-response","129","431794","0.0-205.0","bglkg64e","","","","","","","","","","","","","736","ofa","Diagnostic trial","","j","","0","5","7","false","false","false","both pre & post","LEFT","RIGHT","j","1","false","","","",""
"","html-keyboard-response","130","432550","0.0-208.0","bglkg64e","1536","864","","","","","","","","","","","null","+","Fixation - short","","null","","","","","","","","","","","","","","","","",""
"","html-keyboard-response","131","433217","0.0-209.0","bglkg64e","","","","","","","","","","","","","666","ecl","Diagnostic trial","","j","","0","6","7","false","false","false","both pre & post","RIGHT","RIGHT","j","1","true","","","",""
"","html-keyboard-response","132","433974","0.0-212.0","bglkg64e","1536","864","","","","","","","","","","","null","+","Fixation - short","","null","","","","","","","","","","","","","","","","",""
"","canvas-keyboard-response","133","435233","0.0-213.0","bglkg64e","","","","","","","","","","","","","null","Cue","Cue","","null","","0","6","","","false","","","","","","","","","","",""
"","html-keyboard-response","134","435994","0.0-214.0","bglkg64e","1536","864","","","","","","","","","","","null","+","Fixation - short","","null","","","","","","","","","","","","","","","","",""
"","html-keyboard-response","135","438000","0.0-215.0","bglkg64e","","","","","","","","","","","","","null","ecl","Inducer trial","","null","","0","","","","true","","","","","j","NaN","","false","RIGHT","",""
"","call-function","136","438001","0.0-216.0-0.0","bglkg64e","","","","","","","","","","","","","","","","","","","","","","","","","","","","","","","","","",""
"","html-keyboard-response","137","438306","0.0-216.0-1.0","bglkg64e","1536","864","","","","","","","","","","","null","Slow","Feedback","","null","","","","","","","","","","","","","","","","",""
"","call-function","138","438307","0.0-216.0-2.0","bglkg64e","","","","","","","","","","","","","","","","","","","","","","","","","","","","","","","","","",""
"","html-keyboard-response","139","439065","0.0-218.0","bglkg64e","1536","864","","","","","","","","","","","null","+","Fixation - short","","null","","","","","","","","","","","","","","","","",""
"","html-keyboard-response","140","443210","0.0-219.0","bglkg64e","","","","","","","","","","","","","4144","If hlb press LEFT | If ndm press RIGHT","Inducer instructions",""," ","","1","","","","","","","","","","","","","","",""
"","html-keyboard-response","141","443969","0.0-220.0","bglkg64e","1536","864","","","","","","","","","","","null","+","Fixation - short","","null","","","","","","","","","","","","","","","","",""
"","html-keyboard-response","142","444831","0.0-221.0","bglkg64e","","","","","","","","","","","","","861","hlb","Diagnostic trial","","f","","1","0","10","false","false","true","both pre & post","LEFT","LEFT","f","1","true","","","",""
"","html-keyboard-response","143","445584","0.0-224.0","bglkg64e","1536","864","","","","","","","","","","","null","+","Fixation - short","","null","","","","","","","","","","","","","","","","",""
"","html-keyboard-response","144","446104","0.0-225.0","bglkg64e","","","","","","","","","","","","","519","hlb","Diagnostic trial","","j","","1","1","10","false","false","false","both pre & post","LEFT","RIGHT","j","1","false","","","",""
"","html-keyboard-response","145","446864","0.0-228.0","bglkg64e","1536","864","","","","","","","","","","","null","+","Fixation - short","","null","","","","","","","","","","","","","","","","",""
"","html-keyboard-response","146","447460","0.0-229.0","bglkg64e","","","","","","","","","","","","","594","hlb","Diagnostic trial","","j","","1","2","10","false","false","false","both pre & post","LEFT","RIGHT","j","1","false","","","",""
"","html-keyboard-response","147","448216","0.0-232.0","bglkg64e","1536","864","","","","","","","","","","","null","+","Fixation - short","","null","","","","","","","","","","","","","","","","",""
"","html-keyboard-response","148","448764","0.0-233.0","bglkg64e","","","","","","","","","","","","","546","ndm","Diagnostic trial","","j","","1","3","10","false","false","false","both pre & post","RIGHT","RIGHT","j","1","true","","","",""
"","html-keyboard-response","149","449519","0.0-236.0","bglkg64e","1536","864","","","","","","","","","","","null","+","Fixation - short","","null","","","","","","","","","","","","","","","","",""
"","html-keyboard-response","150","449989","0.0-237.0","bglkg64e","","","","","","","","","","","","","468","hlb","Diagnostic trial","","j","","1","4","10","false","false","false","both pre & post","LEFT","RIGHT","j","1","false","","","",""
"","html-keyboard-response","151","450742","0.0-240.0","bglkg64e","1536","864","","","","","","","","","","","null","+","Fixation - short","","null","","","","","","","","","","","","","","","","",""
"","html-keyboard-response","152","451200","0.0-241.0","bglkg64e","","","","","","","","","","","","","457","ndm","Diagnostic trial","","f","","1","5","10","false","false","true","both pre & post","RIGHT","LEFT","f","1","false","","","",""
"","html-keyboard-response","153","451960","0.0-244.0","bglkg64e","1536","864","","","","","","","","","","","null","+","Fixation - short","","null","","","","","","","","","","","","","","","","",""
"","html-keyboard-response","154","453033","0.0-245.0","bglkg64e","","","","","","","","","","","","","1072","ndm","Diagnostic trial","","f","","1","6","10","false","false","true","both pre & post","RIGHT","LEFT","f","1","false","","","",""
"","html-keyboard-response","155","453790","0.0-248.0","bglkg64e","1536","864","","","","","","","","","","","null","+","Fixation - short","","null","","","","","","","","","","","","","","","","",""
"","html-keyboard-response","156","454495","0.0-249.0","bglkg64e","","","","","","","","","","","","","703","hlb","Diagnostic trial","","j","","1","7","10","false","false","false","both pre & post","LEFT","RIGHT","j","1","false","","","",""
"","html-keyboard-response","157","455256","0.0-252.0","bglkg64e","1536","864","","","","","","","","","","","null","+","Fixation - short","","null","","","","","","","","","","","","","","","","",""
"","html-keyboard-response","158","456006","0.0-253.0","bglkg64e","","","","","","","","","","","","","749","ndm","Diagnostic trial","","f","","1","8","10","false","false","true","both pre & post","RIGHT","LEFT","f","1","false","","","",""
"","html-keyboard-response","159","456762","0.0-256.0","bglkg64e","1536","864","","","","","","","","","","","null","+","Fixation - short","","null","","","","","","","","","","","","","","","","",""
"","html-keyboard-response","160","457589","0.0-257.0","bglkg64e","","","","","","","","","","","","","826","ndm","Diagnostic trial","","f","","1","9","10","false","false","true","both pre & post","RIGHT","LEFT","f","1","false","","","",""
"","html-keyboard-response","161","458342","0.0-260.0","bglkg64e","1536","864","","","","","","","","","","","null","+","Fixation - short","","null","","","","","","","","","","","","","","","","",""
"","canvas-keyboard-response","162","459596","0.0-261.0","bglkg64e","","","","","","","","","","","","","null","Cue","Cue","","null","","1","9","","","false","","","","","","","","","","",""
"","html-keyboard-response","163","460358","0.0-262.0","bglkg64e","1536","864","","","","","","","","","","","null","+","Fixation - short","","null","","","","","","","","","","","","","","","","",""
"","html-keyboard-response","164","460917","0.0-263.0","bglkg64e","","","","","","","","","","","","","558","ndm","Diagnostic trial","","j","","1","10","10","true","false","false","both pre & post","RIGHT","RIGHT","j","1","true","","","",""
"","html-keyboard-response","165","461677","0.0-266.0","bglkg64e","1536","864","","","","","","","","","","","null","+","Fixation - short","","null","","","","","","","","","","","","","","","","",""
"","html-keyboard-response","166","462298","0.0-267.0","bglkg64e","","","","","","","","","","","","","619","ndm","Inducer trial","","j","","1","","","","true","","","","","j","1","","false","RIGHT","",""
"","html-keyboard-response","167","463055","0.0-270.0","bglkg64e","1536","864","","","","","","","","","","","null","+","Fixation - short","","null","","","","","","","","","","","","","","","","",""
"","html-keyboard-response","168","467175","0.0-271.0","bglkg64e","","","","","","","","","","","","","4118","If dij press LEFT | If iei press RIGHT","Inducer instructions",""," ","","2","","","","","","","","","","","","","","",""
"","html-keyboard-response","169","467929","0.0-272.0","bglkg64e","1536","864","","","","","","","","","","","null","+","Fixation - short","","null","","","","","","","","","","","","","","","","",""
"","html-keyboard-response","170","468686","0.0-273.0","bglkg64e","","","","","","","","","","","","","756","iei","Diagnostic trial","","f","","2","0","5","false","false","true","both pre & post","RIGHT","LEFT","f","1","false","","","",""
"","html-keyboard-response","171","469447","0.0-276.0","bglkg64e","1536","864","","","","","","","","","","","null","+","Fixation - short","","null","","","","","","","","","","","","","","","","",""
"","html-keyboard-response","172","470267","0.0-277.0","bglkg64e","","","","","","","","","","","","","818","iei","Diagnostic trial","","f","","2","1","5","false","false","true","both pre & post","RIGHT","LEFT","f","1","false","","","",""
"","html-keyboard-response","173","471018","0.0-280.0","bglkg64e","1536","864","","","","","","","","","","","null","+","Fixation - short","","null","","","","","","","","","","","","","","","","",""
"","html-keyboard-response","174","471443","0.0-281.0","bglkg64e","","","","","","","","","","","","","423","dij","Diagnostic trial","","f","","2","2","5","false","false","true","both pre & post","LEFT","LEFT","f","1","true","","","",""
"","html-keyboard-response","175","472209","0.0-284.0","bglkg64e","1536","864","","","","","","","","","","","null","+","Fixation - short","","null","","","","","","","","","","","","","","","","",""
"","html-keyboard-response","176","472651","0.0-285.0","bglkg64e","","","","","","","","","","","","","441","dij","Diagnostic trial","","f","","2","3","5","false","false","true","both pre & post","LEFT","LEFT","f","1","true","","","",""
"","html-keyboard-response","177","473403","0.0-288.0","bglkg64e","1536","864","","","","","","","","","","","null","+","Fixation - short","","null","","","","","","","","","","","","","","","","",""
"","html-keyboard-response","178","473921","0.0-289.0","bglkg64e","","","","","","","","","","","","","517","iei","Diagnostic trial","","f","","2","4","5","false","false","true","both pre & post","RIGHT","LEFT","f","1","false","","","",""
"","html-keyboard-response","179","474674","0.0-292.0","bglkg64e","1536","864","","","","","","","","","","","null","+","Fixation - short","","null","","","","","","","","","","","","","","","","",""
"","canvas-keyboard-response","180","475928","0.0-293.0","bglkg64e","","","","","","","","","","","","","null","Cue","Cue","","null","","2","4","","","false","","","","","","","","","","",""
"","html-keyboard-response","181","476690","0.0-294.0","bglkg64e","1536","864","","","","","","","","","","","null","+","Fixation - short","","null","","","","","","","","","","","","","","","","",""
"","html-keyboard-response","182","477170","0.0-295.0","bglkg64e","","","","","","","","","","","","","478","iei","Diagnostic trial","","f","","2","5","5","true","false","true","both pre & post","RIGHT","LEFT","f","1","false","","","",""
"","html-keyboard-response","183","477923","0.0-298.0","bglkg64e","1536","864","","","","","","","","","","","null","+","Fixation - short","","null","","","","","","","","","","","","","","","","",""
"","html-keyboard-response","184","478857","0.0-299.0","bglkg64e","","","","","","","","","","","","","932","iei","Diagnostic trial","","f","","2","6","5","true","false","true","both pre & post","RIGHT","LEFT","f","1","false","","","",""
"","html-keyboard-response","185","479616","0.0-302.0","bglkg64e","1536","864","","","","","","","","","","","null","+","Fixation - short","","null","","","","","","","","","","","","","","","","",""
"","html-keyboard-response","186","480555","0.0-303.0","bglkg64e","","","","","","","","","","","","","938","iei","Diagnostic trial","","f","","2","7","5","true","false","true","both pre & post","RIGHT","LEFT","f","1","false","","","",""
"","html-keyboard-response","187","481314","0.0-306.0","bglkg64e","1536","864","","","","","","","","","","","null","+","Fixation - short","","null","","","","","","","","","","","","","","","","",""
"","html-keyboard-response","188","482066","0.0-307.0","bglkg64e","","","","","","","","","","","","","751","dij","Diagnostic trial","","f","","2","8","5","true","false","true","both pre & post","LEFT","LEFT","f","1","true","","","",""
"","html-keyboard-response","189","482819","0.0-310.0","bglkg64e","1536","864","","","","","","","","","","","null","+","Fixation - short","","null","","","","","","","","","","","","","","","","",""
"","html-keyboard-response","190","483868","0.0-311.0","bglkg64e","","","","","","","","","","","","","1048","dij","Inducer trial","","f","","2","","","","true","","","","","f","1","","false","LEFT","",""
"","html-keyboard-response","191","484635","0.0-314.0","bglkg64e","1536","864","","","","","","","","","","","null","+","Fixation - short","","null","","","","","","","","","","","","","","","","",""
"","html-keyboard-response","192","487297","0.0-315.0","bglkg64e","","","","","","","","","","","","","2660","If frn press LEFT | If amb press RIGHT","Inducer instructions",""," ","","3","","","","","","","","","","","","","","",""
"","html-keyboard-response","193","488052","0.0-316.0","bglkg64e","1536","864","","","","","","","","","","","null","+","Fixation - short","","null","","","","","","","","","","","","","","","","",""
"","html-keyboard-response","194","489039","0.0-317.0","bglkg64e","","","","","","","","","","","","","986","amb","Diagnostic trial","","j","","3","0","4","false","false","false","both pre & post","RIGHT","RIGHT","j","1","true","","","",""
"","html-keyboard-response","195","489806","0.0-320.0","bglkg64e","1536","864","","","","","","","","","","","null","+","Fixation - short","","null","","","","","","","","","","","","","","","","",""
"","html-keyboard-response","196","490392","0.0-321.0","bglkg64e","","","","","","","","","","","","","584","frn","Diagnostic trial","","f","","3","1","4","false","false","true","both pre & post","LEFT","LEFT","f","1","true","","","",""
"","html-keyboard-response","197","491151","0.0-324.0","bglkg64e","1536","864","","","","","","","","","","","null","+","Fixation - short","","null","","","","","","","","","","","","","","","","",""
"","html-keyboard-response","198","491674","0.0-325.0","bglkg64e","","","","","","","","","","","","","522","amb","Diagnostic trial","","f","","3","2","4","false","false","true","both pre & post","RIGHT","LEFT","f","1","false","","","",""
"","html-keyboard-response","199","492426","0.0-328.0","bglkg64e","1536","864","","","","","","","","","","","null","+","Fixation - short","","null","","","","","","","","","","","","","","","","",""
"","html-keyboard-response","200","493036","0.0-329.0","bglkg64e","","","","","","","","","","","","","608","amb","Diagnostic trial","","j","","3","3","4","false","false","false","both pre & post","RIGHT","RIGHT","j","1","true","","","",""
"","html-keyboard-response","201","493793","0.0-332.0","bglkg64e","1536","864","","","","","","","","","","","null","+","Fixation - short","","null","","","","","","","","","","","","","","","","",""
"","canvas-keyboard-response","202","495059","0.0-333.0","bglkg64e","","","","","","","","","","","","","null","Cue","Cue","","null","","3","3","","","false","","","","","","","","","","",""
"","html-keyboard-response","203","495821","0.0-334.0","bglkg64e","1536","864","","","","","","","","","","","null","+","Fixation - short","","null","","","","","","","","","","","","","","","","",""
"","html-keyboard-response","204","496471","0.0-335.0","bglkg64e","","","","","","","","","","","","","648","frn","Diagnostic trial","","f","","3","4","4","true","false","true","both pre & post","LEFT","LEFT","f","1","true","","","",""
"","html-keyboard-response","205","497236","0.0-338.0","bglkg64e","1536","864","","","","","","","","","","","null","+","Fixation - short","","null","","","","","","","","","","","","","","","","",""
"","html-keyboard-response","206","498028","0.0-339.0","bglkg64e","","","","","","","","","","","","","790","frn","Diagnostic trial","","f","","3","5","4","true","false","true","both pre & post","LEFT","LEFT","f","1","true","","","",""
"","html-keyboard-response","207","498781","0.0-342.0","bglkg64e","1536","864","","","","","","","","","","","null","+","Fixation - short","","null","","","","","","","","","","","","","","","","",""
"","html-keyboard-response","208","499470","0.0-343.0","bglkg64e","","","","","","","","","","","","","688","frn","Diagnostic trial","","f","","3","6","4","true","false","true","both pre & post","LEFT","LEFT","f","1","true","","","",""
"","html-keyboard-response","209","500223","0.0-346.0","bglkg64e","1536","864","","","","","","","","","","","null","+","Fixation - short","","null","","","","","","","","","","","","","","","","",""
"","html-keyboard-response","210","501057","0.0-347.0","bglkg64e","","","","","","","","","","","","","833","frn","Diagnostic trial","","j","","3","7","4","true","false","false","both pre & post","LEFT","RIGHT","j","1","false","","","",""
"","html-keyboard-response","211","501817","0.0-350.0","bglkg64e","1536","864","","","","","","","","","","","null","+","Fixation - short","","null","","","","","","","","","","","","","","","","",""
"","html-keyboard-response","212","503168","0.0-351.0","bglkg64e","","","","","","","","","","","","","1350","amb","Inducer trial","","j","","3","","","","true","","","","","j","1","","false","RIGHT","",""
"","html-keyboard-response","213","503922","0.0-354.0","bglkg64e","1536","864","","","","","","","","","","","null","+","Fixation - short","","null","","","","","","","","","","","","","","","","",""
"","html-keyboard-response","214","508981","0.0-355.0","bglkg64e","","","","","","","","","","","","","5058","If crf press LEFT | If saj press RIGHT","Inducer instructions",""," ","","4","","","","","","","","","","","","","","",""
"","html-keyboard-response","215","509732","0.0-356.0","bglkg64e","1536","864","","","","","","","","","","","null","+","Fixation - short","","null","","","","","","","","","","","","","","","","",""
"","html-keyboard-response","216","510227","0.0-357.0","bglkg64e","","","","","","","","","","","","","493","crf","Diagnostic trial","","j","","4","0","5","false","false","false","both pre & post","LEFT","RIGHT","j","1","false","","","",""
"","html-keyboard-response","217","510993","0.0-360.0","bglkg64e","1536","864","","","","","","","","","","","null","+","Fixation - short","","null","","","","","","","","","","","","","","","","",""
"","html-keyboard-response","218","511508","0.0-361.0","bglkg64e","","","","","","","","","","","","","514","crf","Diagnostic trial","","f","","4","1","5","false","false","true","both pre & post","LEFT","LEFT","f","1","true","","","",""
"","html-keyboard-response","219","512267","0.0-364.0","bglkg64e","1536","864","","","","","","","","","","","null","+","Fixation - short","","null","","","","","","","","","","","","","","","","",""
"","html-keyboard-response","220","512976","0.0-365.0","bglkg64e","","","","","","","","","","","","","708","saj","Diagnostic trial","","f","","4","2","5","false","false","true","both pre & post","RIGHT","LEFT","f","1","false","","","",""
"","html-keyboard-response","221","513732","0.0-368.0","bglkg64e","1536","864","","","","","","","","","","","null","+","Fixation - short","","null","","","","","","","","","","","","","","","","",""
"","html-keyboard-response","222","514549","0.0-369.0","bglkg64e","","","","","","","","","","","","","816","saj","Diagnostic trial","","f","","4","3","5","false","false","true","both pre & post","RIGHT","LEFT","f","1","false","","","",""
"","html-keyboard-response","223","515303","0.0-372.0","bglkg64e","1536","864","","","","","","","","","","","null","+","Fixation - short","","null","","","","","","","","","","","","","","","","",""
"","html-keyboard-response","224","515905","0.0-373.0","bglkg64e","","","","","","","","","","","","","601","saj","Diagnostic trial","","f","","4","4","5","false","false","true","both pre & post","RIGHT","LEFT","f","1","false","","","",""
"","html-keyboard-response","225","516657","0.0-376.0","bglkg64e","1536","864","","","","","","","","","","","null","+","Fixation - short","","null","","","","","","","","","","","","","","","","",""
"","canvas-keyboard-response","226","517910","0.0-377.0","bglkg64e","","","","","","","","","","","","","null","Cue","Cue","","null","","4","4","","","false","","","","","","","","","","",""
"","html-keyboard-response","227","518673","0.0-378.0","bglkg64e","1536","864","","","","","","","","","","","null","+","Fixation - short","","null","","","","","","","","","","","","","","","","",""
"","html-keyboard-response","228","519198","0.0-379.0","bglkg64e","","","","","","","","","","","","","524","crf","Diagnostic trial","","j","","4","5","5","true","false","false","both pre & post","LEFT","RIGHT","j","1","false","","","",""
"","html-keyboard-response","229","519955","0.0-382.0","bglkg64e","1536","864","","","","","","","","","","","null","+","Fixation - short","","null","","","","","","","","","","","","","","","","",""
"","html-keyboard-response","230","520619","0.0-383.0","bglkg64e","","","","","","","","","","","","","663","crf","Diagnostic trial","","f","","4","6","5","true","false","true","both pre & post","LEFT","LEFT","f","1","true","","","",""
"","html-keyboard-response","231","521375","0.0-386.0","bglkg64e","1536","864","","","","","","","","","","","null","+","Fixation - short","","null","","","","","","","","","","","","","","","","",""
"","html-keyboard-response","232","522076","0.0-387.0","bglkg64e","","","","","","","","","","","","","699","crf","Diagnostic trial","","j","","4","7","5","true","false","false","both pre & post","LEFT","RIGHT","j","1","false","","","",""
"","html-keyboard-response","233","522828","0.0-390.0","bglkg64e","1536","864","","","","","","","","","","","null","+","Fixation - short","","null","","","","","","","","","","","","","","","","",""
"","html-keyboard-response","234","523785","0.0-391.0","bglkg64e","","","","","","","","","","","","","956","saj","Diagnostic trial","","j","","4","8","5","true","false","false","both pre & post","RIGHT","RIGHT","j","1","true","","","",""
"","html-keyboard-response","235","524539","0.0-394.0","bglkg64e","1536","864","","","","","","","","","","","null","+","Fixation - short","","null","","","","","","","","","","","","","","","","",""
"","html-keyboard-response","236","525381","0.0-395.0","bglkg64e","","","","","","","","","","","","","841","crf","Inducer trial","","f","","4","","","","true","","","","","f","1","","false","LEFT","",""
"","html-keyboard-response","237","526140","0.0-398.0","bglkg64e","1536","864","","","","","","","","","","","null","+","Fixation - short","","null","","","","","","","","","","","","","","","","",""
"","html-keyboard-response","238","529475","0.0-399.0","bglkg64e","","","","","","","","","","","","","3333","If goj press LEFT | If dnc press RIGHT","Inducer instructions",""," ","","5","","","","","","","","","","","","","","",""
"","html-keyboard-response","239","530240","0.0-400.0","bglkg64e","1536","864","","","","","","","","","","","null","+","Fixation - short","","null","","","","","","","","","","","","","","","","",""
"","html-keyboard-response","240","530823","0.0-401.0","bglkg64e","","","","","","","","","","","","","583","goj","Diagnostic trial","","j","","5","0","4","false","false","false","both pre & post","LEFT","RIGHT","j","1","false","","","",""
"","html-keyboard-response","241","531578","0.0-404.0","bglkg64e","1536","864","","","","","","","","","","","null","+","Fixation - short","","null","","","","","","","","","","","","","","","","",""
"","html-keyboard-response","242","532114","0.0-405.0","bglkg64e","","","","","","","","","","","","","535","dnc","Diagnostic trial","","f","","5","1","4","false","false","true","both pre & post","RIGHT","LEFT","f","1","false","","","",""
"","html-keyboard-response","243","532869","0.0-408.0","bglkg64e","1536","864","","","","","","","","","","","null","+","Fixation - short","","null","","","","","","","","","","","","","","","","",""
"","html-keyboard-response","244","533647","0.0-409.0","bglkg64e","","","","","","","","","","","","","777","goj","Diagnostic trial","","f","","5","2","4","false","false","true","both pre & post","LEFT","LEFT","f","1","true","","","",""
"","html-keyboard-response","245","534402","0.0-412.0","bglkg64e","1536","864","","","","","","","","","","","null","+","Fixation - short","","null","","","","","","","","","","","","","","","","",""
"","html-keyboard-response","246","534868","0.0-413.0","bglkg64e","","","","","","","","","","","","","465","goj","Diagnostic trial","","f","","5","3","4","false","false","false","both pre & post","LEFT","RIGHT","j","0","false","","","",""
"","call-function","247","534869","0.0-415.0-0.0","bglkg64e","","","","","","","","","","","","","","","","","","","","","","","","","","","","","","","","","",""
"","html-keyboard-response","248","535182","0.0-415.0-1.0","bglkg64e","1536","864","","","","","","","","","","","null","Wrong","Feedback","","null","","","","","","","","","","","","","","","","",""
"","call-function","249","535183","0.0-415.0-2.0","bglkg64e","","","","","","","","","","","","","","","","","","","","","","","","","","","","","","","","","",""
"","html-keyboard-response","250","535938","0.0-416.0","bglkg64e","1536","864","","","","","","","","","","","null","+","Fixation - short","","null","","","","","","","","","","","","","","","","",""
"","canvas-keyboard-response","251","537198","0.0-417.0","bglkg64e","","","","","","","","","","","","","null","Cue","Cue","","null","","5","3","","","false","","","","","","","","","","",""
"","html-keyboard-response","252","537957","0.0-418.0","bglkg64e","1536","864","","","","","","","","","","","null","+","Fixation - short","","null","","","","","","","","","","","","","","","","",""
"","html-keyboard-response","253","538366","0.0-419.0","bglkg64e","","","","","","","","","","","","","408","goj","Diagnostic trial","","j","","5","4","4","true","false","false","both pre & post","LEFT","RIGHT","j","1","false","","","",""
"","html-keyboard-response","254","539121","0.0-422.0","bglkg64e","1536","864","","","","","","","","","","","null","+","Fixation - short","","null","","","","","","","","","","","","","","","","",""
"","html-keyboard-response","255","539687","0.0-423.0","bglkg64e","","","","","","","","","","","","","564","dnc","Diagnostic trial","","j","","5","5","4","true","false","false","both pre & post","RIGHT","RIGHT","j","1","true","","","",""
"","html-keyboard-response","256","540442","0.0-426.0","bglkg64e","1536","864","","","","","","","","","","","null","+","Fixation - short","","null","","","","","","","","","","","","","","","","",""
"","html-keyboard-response","257","541229","0.0-427.0","bglkg64e","","","","","","","","","","","","","786","dnc","Inducer trial","","j","","5","","","","true","","","","","j","1","","false","RIGHT","",""
"","html-keyboard-response","258","541993","0.0-430.0","bglkg64e","1536","864","","","","","","","","","","","null","+","Fixation - short","","null","","","","","","","","","","","","","","","","",""
"","html-keyboard-response","259","543727","0.0-431.0","bglkg64e","","","","","","","","","","","","","1732","If bms press LEFT | If asn press RIGHT","Inducer instructions",""," ","","6","","","","","","","","","","","","","","",""
"","html-keyboard-response","260","544479","0.0-432.0","bglkg64e","1536","864","","","","","","","","","","","null","+","Fixation - short","","null","","","","","","","","","","","","","","","","",""
"","html-keyboard-response","261","545224","0.0-433.0","bglkg64e","","","","","","","","","","","","","743","bms","Diagnostic trial","","f","","6","0","4","false","false","true","both pre & post","LEFT","LEFT","f","1","true","","","",""
"","html-keyboard-response","262","545983","0.0-436.0","bglkg64e","1536","864","","","","","","","","","","","null","+","Fixation - short","","null","","","","","","","","","","","","","","","","",""
"","html-keyboard-response","263","546481","0.0-437.0","bglkg64e","","","","","","","","","","","","","497","asn","Diagnostic trial","","j","","6","1","4","false","false","false","both pre & post","RIGHT","RIGHT","j","1","true","","","",""
"","html-keyboard-response","264","547240","0.0-440.0","bglkg64e","1536","864","","","","","","","","","","","null","+","Fixation - short","","null","","","","","","","","","","","","","","","","",""
"","html-keyboard-response","265","547778","0.0-441.0","bglkg64e","","","","","","","","","","","","","536","bms","Diagnostic trial","","j","","6","2","4","false","false","false","both pre & post","LEFT","RIGHT","j","1","false","","","",""
"","html-keyboard-response","266","548545","0.0-444.0","bglkg64e","1536","864","","","","","","","","","","","null","+","Fixation - short","","null","","","","","","","","","","","","","","","","",""
"","html-keyboard-response","267","549020","0.0-445.0","bglkg64e","","","","","","","","","","","","","474","bms","Diagnostic trial","","j","","6","3","4","false","false","false","both pre & post","LEFT","RIGHT","j","1","false","","","",""
"","html-keyboard-response","268","549786","0.0-448.0","bglkg64e","1536","864","","","","","","","","","","","null","+","Fixation - short","","null","","","","","","","","","","","","","","","","",""
"","canvas-keyboard-response","269","551041","0.0-449.0","bglkg64e","","","","","","","","","","","","","null","Cue","Cue","","null","","6","3","","","false","","","","","","","","","","",""
"","html-keyboard-response","270","551796","0.0-450.0","bglkg64e","1536","864","","","","","","","","","","","null","+","Fixation - short","","null","","","","","","","","","","","","","","","","",""
"","html-keyboard-response","271","552234","0.0-451.0","bglkg64e","","","","","","","","","","","","","437","asn","Diagnostic trial","","j","","6","4","4","true","false","false","both pre & post","RIGHT","RIGHT","j","1","true","","","",""
"","html-keyboard-response","272","552992","0.0-454.0","bglkg64e","1536","864","","","","","","","","","","","null","+","Fixation - short","","null","","","","","","","","","","","","","","","","",""
"","html-keyboard-response","273","553559","0.0-455.0","bglkg64e","","","","","","","","","","","","","566","asn","Diagnostic trial","","f","","6","5","4","true","false","true","both pre & post","RIGHT","LEFT","f","1","false","","","",""
"","html-keyboard-response","274","554313","0.0-458.0","bglkg64e","1536","864","","","","","","","","","","","null","+","Fixation - short","","null","","","","","","","","","","","","","","","","",""
"","html-keyboard-response","275","555127","0.0-459.0","bglkg64e","","","","","","","","","","","","","812","bms","Inducer trial","","f","","6","","","","true","","","","","f","1","","false","LEFT","",""
"","html-keyboard-response","276","555891","0.0-462.0","bglkg64e","1536","864","","","","","","","","","","","null","+","Fixation - short","","null","","","","","","","","","","","","","","","","",""
"","html-keyboard-response","277","562165","0.0-463.0","bglkg64e","","","","","","","","","","","","","6273","If pph press LEFT | If pxv press RIGHT","Inducer instructions",""," ","","7","","","","","","","","","","","","","","",""
"","html-keyboard-response","278","562920","0.0-464.0","bglkg64e","1536","864","","","","","","","","","","","null","+","Fixation - short","","null","","","","","","","","","","","","","","","","",""
"","html-keyboard-response","279","563563","0.0-465.0","bglkg64e","","","","","","","","","","","","","641","pph","Diagnostic trial","","f","","7","0","9","false","false","true","both pre & post","LEFT","LEFT","f","1","true","","","",""
"","html-keyboard-response","280","564315","0.0-468.0","bglkg64e","1536","864","","","","","","","","","","","null","+","Fixation - short","","null","","","","","","","","","","","","","","","","",""
"","html-keyboard-response","281","564823","0.0-469.0","bglkg64e","","","","","","","","","","","","","507","pph","Diagnostic trial","","j","","7","1","9","false","false","false","both pre & post","LEFT","RIGHT","j","1","false","","","",""
"","html-keyboard-response","282","565577","0.0-472.0","bglkg64e","1536","864","","","","","","","","","","","null","+","Fixation - short","","null","","","","","","","","","","","","","","","","",""
"","html-keyboard-response","283","566256","0.0-473.0","bglkg64e","","","","","","","","","","","","","678","pxv","Diagnostic trial","","f","","7","2","9","false","false","true","both pre & post","RIGHT","LEFT","f","1","false","","","",""
"","html-keyboard-response","284","567022","0.0-476.0","bglkg64e","1536","864","","","","","","","","","","","null","+","Fixation - short","","null","","","","","","","","","","","","","","","","",""
"","html-keyboard-response","285","568352","0.0-477.0","bglkg64e","","","","","","","","","","","","","1328","pph","Diagnostic trial","","f","","7","3","9","false","false","true","both pre & post","LEFT","LEFT","f","1","true","","","",""
"","html-keyboard-response","286","569105","0.0-480.0","bglkg64e","1536","864","","","","","","","","","","","null","+","Fixation - short","","null","","","","","","","","","","","","","","","","",""
"","html-keyboard-response","287","570049","0.0-481.0","bglkg64e","","","","","","","","","","","","","942","pph","Diagnostic trial","","j","","7","4","9","false","false","false","both pre & post","LEFT","RIGHT","j","1","false","","","",""
"","html-keyboard-response","288","570809","0.0-484.0","bglkg64e","1536","864","","","","","","","","","","","null","+","Fixation - short","","null","","","","","","","","","","","","","","","","",""
"","html-keyboard-response","289","571767","0.0-485.0","bglkg64e","","","","","","","","","","","","","957","pph","Diagnostic trial","","j","","7","5","9","false","false","false","both pre & post","LEFT","RIGHT","j","1","false","","","",""
"","html-keyboard-response","290","572523","0.0-488.0","bglkg64e","1536","864","","","","","","","","","","","null","+","Fixation - short","","null","","","","","","","","","","","","","","","","",""
"","html-keyboard-response","291","573094","0.0-489.0","bglkg64e","","","","","","","","","","","","","569","pxv","Diagnostic trial","","f","","7","6","9","false","false","true","both pre & post","RIGHT","LEFT","f","1","false","","","",""
"","html-keyboard-response","292","573848","0.0-492.0","bglkg64e","1536","864","","","","","","","","","","","null","+","Fixation - short","","null","","","","","","","","","","","","","","","","",""
"","html-keyboard-response","293","575101","0.0-493.0","bglkg64e","","","","","","","","","","","","","1252","pph","Diagnostic trial","","j","","7","7","9","false","false","false","both pre & post","LEFT","RIGHT","j","1","false","","","",""
"","html-keyboard-response","294","575858","0.0-496.0","bglkg64e","1536","864","","","","","","","","","","","null","+","Fixation - short","","null","","","","","","","","","","","","","","","","",""
"","html-keyboard-response","295","576969","0.0-497.0","bglkg64e","","","","","","","","","","","","","1110","pxv","Diagnostic trial","","j","","7","8","9","false","false","false","both pre & post","RIGHT","RIGHT","j","1","true","","","",""
"","html-keyboard-response","296","577724","0.0-500.0","bglkg64e","1536","864","","","","","","","","","","","null","+","Fixation - short","","null","","","","","","","","","","","","","","","","",""
"","canvas-keyboard-response","297","578992","0.0-501.0","bglkg64e","","","","","","","","","","","","","null","Cue","Cue","","null","","7","8","","","false","","","","","","","","","","",""
"","html-keyboard-response","298","579754","0.0-502.0","bglkg64e","1536","864","","","","","","","","","","","null","+","Fixation - short","","null","","","","","","","","","","","","","","","","",""
"","html-keyboard-response","299","580692","0.0-503.0","bglkg64e","","","","","","","","","","","","","937","pxv","Diagnostic trial","","j","","7","9","9","true","false","false","both pre & post","RIGHT","RIGHT","j","1","true","","","",""
"","html-keyboard-response","300","581452","0.0-506.0","bglkg64e","1536","864","","","","","","","","","","","null","+","Fixation - short","","null","","","","","","","","","","","","","","","","",""
"","html-keyboard-response","301","582566","0.0-507.0","bglkg64e","","","","","","","","","","","","","1113","pph","Diagnostic trial","","j","","7","10","9","true","false","false","both pre & post","LEFT","RIGHT","j","1","false","","","",""
"","html-keyboard-response","302","583317","0.0-510.0","bglkg64e","1536","864","","","","","","","","","","","null","+","Fixation - short","","null","","","","","","","","","","","","","","","","",""
"","html-keyboard-response","303","584087","0.0-511.0","bglkg64e","","","","","","","","","","","","","769","pph","Diagnostic trial","","j","","7","11","9","true","false","false","both pre & post","LEFT","RIGHT","j","1","false","","","",""
"","html-keyboard-response","304","584841","0.0-514.0","bglkg64e","1536","864","","","","","","","","","","","null","+","Fixation - short","","null","","","","","","","","","","","","","","","","",""
"","html-keyboard-response","305","585748","0.0-515.0","bglkg64e","","","","","","","","","","","","","906","pph","Diagnostic trial","","f","","7","12","9","true","false","true","both pre & post","LEFT","LEFT","f","1","true","","","",""
"","html-keyboard-response","306","586504","0.0-518.0","bglkg64e","1536","864","","","","","","","","","","","null","+","Fixation - short","","null","","","","","","","","","","","","","","","","",""
"","html-keyboard-response","307","587551","0.0-519.0","bglkg64e","","","","","","","","","","","","","1046","pph","Inducer trial","","f","","7","","","","true","","","","","f","1","","false","LEFT","",""
"","html-keyboard-response","308","588304","0.0-522.0","bglkg64e","1536","864","","","","","","","","","","","null","+","Fixation - short","","null","","","","","","","","","","","","","","","","",""
"","html-keyboard-response","309","591420","0.0-523.0","bglkg64e","","","","","","","","","","","","","3114","If csp press LEFT | If lct press RIGHT","Inducer instructions",""," ","","8","","","","","","","","","","","","","","",""
"","html-keyboard-response","310","592177","0.0-524.0","bglkg64e","1536","864","","","","","","","","","","","null","+","Fixation - short","","null","","","","","","","","","","","","","","","","",""
"","html-keyboard-response","311","592715","0.0-525.0","bglkg64e","","","","","","","","","","","","","537","csp","Diagnostic trial","","j","","8","0","9","false","false","false","both pre & post","LEFT","RIGHT","j","1","false","","","",""
"","html-keyboard-response","312","593475","0.0-528.0","bglkg64e","1536","864","","","","","","","","","","","null","+","Fixation - short","","null","","","","","","","","","","","","","","","","",""
"","html-keyboard-response","313","593978","0.0-529.0","bglkg64e","","","","","","","","","","","","","502","lct","Diagnostic trial","","j","","8","1","9","false","false","false","both pre & post","RIGHT","RIGHT","j","1","true","","","",""
"","html-keyboard-response","314","594736","0.0-532.0","bglkg64e","1536","864","","","","","","","","","","","null","+","Fixation - short","","null","","","","","","","","","","","","","","","","",""
"","html-keyboard-response","315","595220","0.0-533.0","bglkg64e","","","","","","","","","","","","","482","csp","Diagnostic trial","","f","","8","2","9","false","false","true","both pre & post","LEFT","LEFT","f","1","true","","","",""
"","html-keyboard-response","316","595973","0.0-536.0","bglkg64e","1536","864","","","","","","","","","","","null","+","Fixation - short","","null","","","","","","","","","","","","","","","","",""
"","html-keyboard-response","317","596604","0.0-537.0","bglkg64e","","","","","","","","","","","","","630","lct","Diagnostic trial","","f","","8","3","9","false","false","true","both pre & post","RIGHT","LEFT","f","1","false","","","",""
"","html-keyboard-response","318","597357","0.0-540.0","bglkg64e","1536","864","","","","","","","","","","","null","+","Fixation - short","","null","","","","","","","","","","","","","","","","",""
"","html-keyboard-response","319","597982","0.0-541.0","bglkg64e","","","","","","","","","","","","","624","lct","Diagnostic trial","","j","","8","4","9","false","false","false","both pre & post","RIGHT","RIGHT","j","1","true","","","",""
"","html-keyboard-response","320","598739","0.0-544.0","bglkg64e","1536","864","","","","","","","","","","","null","+","Fixation - short","","null","","","","","","","","","","","","","","","","",""
"","html-keyboard-response","321","599223","0.0-545.0","bglkg64e","","","","","","","","","","","","","483","csp","Diagnostic trial","","f","","8","5","9","false","false","true","both pre & post","LEFT","LEFT","f","1","true","","","",""
"","html-keyboard-response","322","599975","0.0-548.0","bglkg64e","1536","864","","","","","","","","","","","null","+","Fixation - short","","null","","","","","","","","","","","","","","","","",""
"","html-keyboard-response","323","600656","0.0-549.0","bglkg64e","","","","","","","","","","","","","680","csp","Diagnostic trial","","j","","8","6","9","false","false","false","both pre & post","LEFT","RIGHT","j","1","false","","","",""
"","html-keyboard-response","324","601409","0.0-552.0","bglkg64e","1536","864","","","","","","","","","","","null","+","Fixation - short","","null","","","","","","","","","","","","","","","","",""
"","html-keyboard-response","325","602082","0.0-553.0","bglkg64e","","","","","","","","","","","","","671","lct","Diagnostic trial","","f","","8","7","9","false","false","true","both pre & post","RIGHT","LEFT","f","1","false","","","",""
"","html-keyboard-response","326","602834","0.0-556.0","bglkg64e","1536","864","","","","","","","","","","","null","+","Fixation - short","","null","","","","","","","","","","","","","","","","",""
"","html-keyboard-response","327","603520","0.0-557.0","bglkg64e","","","","","","","","","","","","","685","lct","Diagnostic trial","","j","","8","8","9","false","false","false","both pre & post","RIGHT","RIGHT","j","1","true","","","",""
"","html-keyboard-response","328","604272","0.0-560.0","bglkg64e","1536","864","","","","","","","","","","","null","+","Fixation - short","","null","","","","","","","","","","","","","","","","",""
"","canvas-keyboard-response","329","605540","0.0-561.0","bglkg64e","","","","","","","","","","","","","null","Cue","Cue","","null","","8","8","","","false","","","","","","","","","","",""
"","html-keyboard-response","330","606291","0.0-562.0","bglkg64e","1536","864","","","","","","","","","","","null","+","Fixation - short","","null","","","","","","","","","","","","","","","","",""
"","html-keyboard-response","331","606911","0.0-563.0","bglkg64e","","","","","","","","","","","","","618","lct","Diagnostic trial","","f","","8","9","9","true","false","true","both pre & post","RIGHT","LEFT","f","1","false","","","",""
"","html-keyboard-response","332","607671","0.0-566.0","bglkg64e","1536","864","","","","","","","","","","","null","+","Fixation - short","","null","","","","","","","","","","","","","","","","",""
"","html-keyboard-response","333","608160","0.0-567.0","bglkg64e","","","","","","","","","","","","","487","lct","Diagnostic trial","","f","","8","10","9","true","false","true","both pre & post","RIGHT","LEFT","f","1","false","","","",""
"","html-keyboard-response","334","608916","0.0-570.0","bglkg64e","1536","864","","","","","","","","","","","null","+","Fixation - short","","null","","","","","","","","","","","","","","","","",""
"","html-keyboard-response","335","609391","0.0-571.0","bglkg64e","","","","","","","","","","","","","474","csp","Diagnostic trial","","j","","8","11","9","true","false","false","both pre & post","LEFT","RIGHT","j","1","false","","","",""
"","html-keyboard-response","336","610147","0.0-574.0","bglkg64e","1536","864","","","","","","","","","","","null","+","Fixation - short","","null","","","","","","","","","","","","","","","","",""
"","html-keyboard-response","337","610744","0.0-575.0","bglkg64e","","","","","","","","","","","","","595","lct","Diagnostic trial","","f","","8","12","9","true","false","true","both pre & post","RIGHT","LEFT","f","1","false","","","",""
"","html-keyboard-response","338","611498","0.0-578.0","bglkg64e","1536","864","","","","","","","","","","","null","+","Fixation - short","","null","","","","","","","","","","","","","","","","",""
"","html-keyboard-response","339","612176","0.0-579.0","bglkg64e","","","","","","","","","","","","","677","lct","Inducer trial","","j","","8","","","","true","","","","","j","1","","false","RIGHT","",""
"","html-keyboard-response","340","612929","0.0-582.0","bglkg64e","1536","864","","","","","","","","","","","null","+","Fixation - short","","null","","","","","","","","","","","","","","","","",""
"","html-keyboard-response","341","621284","0.0-583.0","bglkg64e","","","","","","","","","","","","","8354","If pte press LEFT | If wwt press RIGHT","Inducer instructions",""," ","","9","","","","","","","","","","","","","","",""
"","html-keyboard-response","342","622036","0.0-584.0","bglkg64e","1536","864","","","","","","","","","","","null","+","Fixation - short","","null","","","","","","","","","","","","","","","","",""
"","html-keyboard-response","343","622620","0.0-585.0","bglkg64e","","","","","","","","","","","","","584","pte","Diagnostic trial","","f","","9","0","11","false","false","true","both pre & post","LEFT","LEFT","f","1","true","","","",""
"","html-keyboard-response","344","623373","0.0-588.0","bglkg64e","1536","864","","","","","","","","","","","null","+","Fixation - short","","null","","","","","","","","","","","","","","","","",""
"","html-keyboard-response","345","623882","0.0-589.0","bglkg64e","","","","","","","","","","","","","508","pte","Diagnostic trial","","j","","9","1","11","false","false","false","both pre & post","LEFT","RIGHT","j","1","false","","","",""
"","html-keyboard-response","346","624641","0.0-592.0","bglkg64e","1536","864","","","","","","","","","","","null","+","Fixation - short","","null","","","","","","","","","","","","","","","","",""
"","html-keyboard-response","347","625160","0.0-593.0","bglkg64e","","","","","","","","","","","","","517","wwt","Diagnostic trial","","j","","9","2","11","false","false","false","both pre & post","RIGHT","RIGHT","j","1","true","","","",""
"","html-keyboard-response","348","625923","0.0-596.0","bglkg64e","1536","864","","","","","","","","","","","null","+","Fixation - short","","null","","","","","","","","","","","","","","","","",""
"","html-keyboard-response","349","626344","0.0-597.0","bglkg64e","","","","","","","","","","","","","420","pte","Diagnostic trial","","j","","9","3","11","false","false","false","both pre & post","LEFT","RIGHT","j","1","false","","","",""
"","html-keyboard-response","350","627102","0.0-600.0","bglkg64e","1536","864","","","","","","","","","","","null","+","Fixation - short","","null","","","","","","","","","","","","","","","","",""
"","html-keyboard-response","351","627596","0.0-601.0","bglkg64e","","","","","","","","","","","","","493","wwt","Diagnostic trial","","j","","9","4","11","false","false","false","both pre & post","RIGHT","RIGHT","j","1","true","","","",""
"","html-keyboard-response","352","628347","0.0-604.0","bglkg64e","1536","864","","","","","","","","","","","null","+","Fixation - short","","null","","","","","","","","","","","","","","","","",""
"","html-keyboard-response","353","629007","0.0-605.0","bglkg64e","","","","","","","","","","","","","659","wwt","Diagnostic trial","","f","","9","5","11","false","false","true","both pre & post","RIGHT","LEFT","f","1","false","","","",""
"","html-keyboard-response","354","629760","0.0-608.0","bglkg64e","1536","864","","","","","","","","","","","null","+","Fixation - short","","null","","","","","","","","","","","","","","","","",""
"","html-keyboard-response","355","630290","0.0-609.0","bglkg64e","","","","","","","","","","","","","529","wwt","Diagnostic trial","","f","","9","6","11","false","false","true","both pre & post","RIGHT","LEFT","f","1","false","","","",""
"","html-keyboard-response","356","631045","0.0-612.0","bglkg64e","1536","864","","","","","","","","","","","null","+","Fixation - short","","null","","","","","","","","","","","","","","","","",""
"","html-keyboard-response","357","631677","0.0-613.0","bglkg64e","","","","","","","","","","","","","632","wwt","Diagnostic trial","","j","","9","7","11","false","false","false","both pre & post","RIGHT","RIGHT","j","1","true","","","",""
"","html-keyboard-response","358","632441","0.0-616.0","bglkg64e","1536","864","","","","","","","","","","","null","+","Fixation - short","","null","","","","","","","","","","","","","","","","",""
"","html-keyboard-response","359","633022","0.0-617.0","bglkg64e","","","","","","","","","","","","","580","wwt","Diagnostic trial","","f","","9","8","11","false","false","true","both pre & post","RIGHT","LEFT","f","1","false","","","",""
"","html-keyboard-response","360","633779","0.0-620.0","bglkg64e","1536","864","","","","","","","","","","","null","+","Fixation - short","","null","","","","","","","","","","","","","","","","",""
"","html-keyboard-response","361","634239","0.0-621.0","bglkg64e","","","","","","","","","","","","","459","wwt","Diagnostic trial","","f","","9","9","11","false","false","true","both pre & post","RIGHT","LEFT","f","1","false","","","",""
"","html-keyboard-response","362","634992","0.0-624.0","bglkg64e","1536","864","","","","","","","","","","","null","+","Fixation - short","","null","","","","","","","","","","","","","","","","",""
"","html-keyboard-response","363","635631","0.0-625.0","bglkg64e","","","","","","","","","","","","","638","wwt","Diagnostic trial","","j","","9","10","11","false","false","false","both pre & post","RIGHT","RIGHT","j","1","true","","","",""
"","html-keyboard-response","364","636383","0.0-628.0","bglkg64e","1536","864","","","","","","","","","","","null","+","Fixation - short","","null","","","","","","","","","","","","","","","","",""
"","canvas-keyboard-response","365","637637","0.0-629.0","bglkg64e","","","","","","","","","","","","","null","Cue","Cue","","null","","9","10","","","false","","","","","","","","","","",""
"","html-keyboard-response","366","638388","0.0-630.0","bglkg64e","1536","864","","","","","","","","","","","null","+","Fixation - short","","null","","","","","","","","","","","","","","","","",""
"","html-keyboard-response","367","639149","0.0-631.0","bglkg64e","","","","","","","","","","","","","760","wwt","Diagnostic trial","","f","","9","11","11","true","false","true","both pre & post","RIGHT","LEFT","f","1","false","","","",""
"","html-keyboard-response","368","639904","0.0-634.0","bglkg64e","1536","864","","","","","","","","","","","null","+","Fixation - short","","null","","","","","","","","","","","","","","","","",""
"","html-keyboard-response","369","640506","0.0-635.0","bglkg64e","","","","","","","","","","","","","601","pte","Diagnostic trial","","f","","9","12","11","true","false","true","both pre & post","LEFT","LEFT","f","1","true","","","",""
"","html-keyboard-response","370","641260","0.0-638.0","bglkg64e","1536","864","","","","","","","","","","","null","+","Fixation - short","","null","","","","","","","","","","","","","","","","",""
"","html-keyboard-response","371","641945","0.0-639.0","bglkg64e","","","","","","","","","","","","","684","pte","Diagnostic trial","","j","","9","13","11","true","false","false","both pre & post","LEFT","RIGHT","j","1","false","","","",""
"","html-keyboard-response","372","642711","0.0-642.0","bglkg64e","1536","864","","","","","","","","","","","null","+","Fixation - short","","null","","","","","","","","","","","","","","","","",""
"","html-keyboard-response","373","643485","0.0-643.0","bglkg64e","","","","","","","","","","","","","773","wwt","Diagnostic trial","","j","","9","14","11","true","false","false","both pre & post","RIGHT","RIGHT","j","1","true","","","",""
"","html-keyboard-response","374","644245","0.0-646.0","bglkg64e","1536","864","","","","","","","","","","","null","+","Fixation - short","","null","","","","","","","","","","","","","","","","",""
"","html-keyboard-response","375","645052","0.0-647.0","bglkg64e","","","","","","","","","","","","","806","pte","Inducer trial","","f","","9","","","","true","","","","","f","1","","false","LEFT","",""
"","html-keyboard-response","376","645812","0.0-650.0","bglkg64e","1536","864","","","","","","","","","","","null","+","Fixation - short","","null","","","","","","","","","","","","","","","","",""
"","html-keyboard-response","377","647501","0.0-651.0","bglkg64e","","","","","","","","","","","","","1688","If afp press LEFT | If geb press RIGHT","Inducer instructions",""," ","","10","","","","","","","","","","","","","","",""
"","html-keyboard-response","378","648267","0.0-652.0","bglkg64e","1536","864","","","","","","","","","","","null","+","Fixation - short","","null","","","","","","","","","","","","","","","","",""
"","html-keyboard-response","379","648978","0.0-653.0","bglkg64e","","","","","","","","","","","","","710","geb","Diagnostic trial","","f","","10","0","9","false","false","true","both pre & post","RIGHT","LEFT","f","1","false","","","",""
"","html-keyboard-response","380","649735","0.0-656.0","bglkg64e","1536","864","","","","","","","","","","","null","+","Fixation - short","","null","","","","","","","","","","","","","","","","",""
"","html-keyboard-response","381","650138","0.0-657.0","bglkg64e","","","","","","","","","","","","","402","geb","Diagnostic trial","","f","","10","1","9","false","false","true","both pre & post","RIGHT","LEFT","f","1","false","","","",""
"","html-keyboard-response","382","650897","0.0-660.0","bglkg64e","1536","864","","","","","","","","","","","null","+","Fixation - short","","null","","","","","","","","","","","","","","","","",""
"","html-keyboard-response","383","651415","0.0-661.0","bglkg64e","","","","","","","","","","","","","517","afp","Diagnostic trial","","f","","10","2","9","false","false","true","both pre & post","LEFT","LEFT","f","1","true","","","",""
"","html-keyboard-response","384","652176","0.0-664.0","bglkg64e","1536","864","","","","","","","","","","","null","+","Fixation - short","","null","","","","","","","","","","","","","","","","",""
"","html-keyboard-response","385","652667","0.0-665.0","bglkg64e","","","","","","","","","","","","","490","geb","Diagnostic trial","","j","","10","3","9","false","false","false","both pre & post","RIGHT","RIGHT","j","1","true","","","",""
"","html-keyboard-response","386","653420","0.0-668.0","bglkg64e","1536","864","","","","","","","","","","","null","+","Fixation - short","","null","","","","","","","","","","","","","","","","",""
"","html-keyboard-response","387","653949","0.0-669.0","bglkg64e","","","","","","","","","","","","","528","afp","Diagnostic trial","","f","","10","4","9","false","false","true","both pre & post","LEFT","LEFT","f","1","true","","","",""
"","html-keyboard-response","388","654704","0.0-672.0","bglkg64e","1536","864","","","","","","","","","","","null","+","Fixation - short","","null","","","","","","","","","","","","","","","","",""
"","html-keyboard-response","389","655254","0.0-673.0","bglkg64e","","","","","","","","","","","","","549","geb","Diagnostic trial","","f","","10","5","9","false","false","true","both pre & post","RIGHT","LEFT","f","1","false","","","",""
"","html-keyboard-response","390","656020","0.0-676.0","bglkg64e","1536","864","","","","","","","","","","","null","+","Fixation - short","","null","","","","","","","","","","","","","","","","",""
"","html-keyboard-response","391","656535","0.0-677.0","bglkg64e","","","","","","","","","","","","","514","geb","Diagnostic trial","","j","","10","6","9","false","false","false","both pre & post","RIGHT","RIGHT","j","1","true","","","",""
"","html-keyboard-response","392","657292","0.0-680.0","bglkg64e","1536","864","","","","","","","","","","","null","+","Fixation - short","","null","","","","","","","","","","","","","","","","",""
"","html-keyboard-response","393","657944","0.0-681.0","bglkg64e","","","","","","","","","","","","","650","geb","Diagnostic trial","","f","","10","7","9","false","false","true","both pre & post","RIGHT","LEFT","f","1","false","","","",""
"","html-keyboard-response","394","658696","0.0-684.0","bglkg64e","1536","864","","","","","","","","","","","null","+","Fixation - short","","null","","","","","","","","","","","","","","","","",""
"","html-keyboard-response","395","659288","0.0-685.0","bglkg64e","","","","","","","","","","","","","591","geb","Diagnostic trial","","j","","10","8","9","false","false","false","both pre & post","RIGHT","RIGHT","j","1","true","","","",""
"","html-keyboard-response","396","660041","0.0-688.0","bglkg64e","1536","864","","","","","","","","","","","null","+","Fixation - short","","null","","","","","","","","","","","","","","","","",""
"","canvas-keyboard-response","397","661297","0.0-689.0","bglkg64e","","","","","","","","","","","","","null","Cue","Cue","","null","","10","8","","","false","","","","","","","","","","",""
"","html-keyboard-response","398","662060","0.0-690.0","bglkg64e","1536","864","","","","","","","","","","","null","+","Fixation - short","","null","","","","","","","","","","","","","","","","",""
"","html-keyboard-response","399","662681","0.0-691.0","bglkg64e","","","","","","","","","","","","","619","geb","Diagnostic trial","","f","","10","9","9","true","false","true","both pre & post","RIGHT","LEFT","f","1","false","","","",""
"","html-keyboard-response","400","663439","0.0-694.0","bglkg64e","1536","864","","","","","","","","","","","null","+","Fixation - short","","null","","","","","","","","","","","","","","","","",""
"","html-keyboard-response","401","665156","0.0-695.0","bglkg64e","","","","","","","","","","","","","1716","afp","Diagnostic trial","","f","","10","10","9","true","false","false","both pre & post","LEFT","RIGHT","j","0","false","","","",""
"","call-function","402","665157","0.0-697.0-0.0","bglkg64e","","","","","","","","","","","","","","","","","","","","","","","","","","","","","","","","","",""
"","html-keyboard-response","403","665463","0.0-697.0-1.0","bglkg64e","1536","864","","","","","","","","","","","null","Wrong","Feedback","","null","","","","","","","","","","","","","","","","",""
"","call-function","404","665464","0.0-697.0-2.0","bglkg64e","","","","","","","","","","","","","","","","","","","","","","","","","","","","","","","","","",""
"","html-keyboard-response","405","666221","0.0-698.0","bglkg64e","1536","864","","","","","","","","","","","null","+","Fixation - short","","null","","","","","","","","","","","","","","","","",""
"","html-keyboard-response","406","667197","0.0-699.0","bglkg64e","","","","","","","","","","","","","975","afp","Diagnostic trial","","j","","10","11","9","true","false","false","both pre & post","LEFT","RIGHT","j","1","false","","","",""
"","html-keyboard-response","407","667950","0.0-702.0","bglkg64e","1536","864","","","","","","","","","","","null","+","Fixation - short","","null","","","","","","","","","","","","","","","","",""
"","html-keyboard-response","408","668774","0.0-703.0","bglkg64e","","","","","","","","","","","","","824","afp","Diagnostic trial","","j","","10","12","9","true","false","false","both pre & post","LEFT","RIGHT","j","1","false","","","",""
"","html-keyboard-response","409","669536","0.0-706.0","bglkg64e","1536","864","","","","","","","","","","","null","+","Fixation - short","","null","","","","","","","","","","","","","","","","",""
"","html-keyboard-response","410","670320","0.0-707.0","bglkg64e","","","","","","","","","","","","","783","geb","Inducer trial","","j","","10","","","","true","","","","","j","1","","false","RIGHT","",""
"","html-keyboard-response","411","671086","0.0-710.0","bglkg64e","1536","864","","","","","","","","","","","null","+","Fixation - short","","null","","","","","","","","","","","","","","","","",""
"","html-keyboard-response","412","674389","0.0-711.0","bglkg64e","","","","","","","","","","","","","3302","If uen press LEFT | If chy press RIGHT","Inducer instructions",""," ","","11","","","","","","","","","","","","","","",""
"","html-keyboard-response","413","675152","0.0-712.0","bglkg64e","1536","864","","","","","","","","","","","null","+","Fixation - short","","null","","","","","","","","","","","","","","","","",""
"","html-keyboard-response","414","675834","0.0-713.0","bglkg64e","","","","","","","","","","","","","681","chy","Diagnostic trial","","j","","11","0","5","false","false","false","both pre & post","RIGHT","RIGHT","j","1","true","","","",""
"","html-keyboard-response","415","676600","0.0-716.0","bglkg64e","1536","864","","","","","","","","","","","null","+","Fixation - short","","null","","","","","","","","","","","","","","","","",""
"","html-keyboard-response","416","677070","0.0-717.0","bglkg64e","","","","","","","","","","","","","469","uen","Diagnostic trial","","f","","11","1","5","false","false","true","both pre & post","LEFT","LEFT","f","1","true","","","",""
"","html-keyboard-response","417","677836","0.0-720.0","bglkg64e","1536","864","","","","","","","","","","","null","+","Fixation - short","","null","","","","","","","","","","","","","","","","",""
"","html-keyboard-response","418","678445","0.0-721.0","bglkg64e","","","","","","","","","","","","","607","uen","Diagnostic trial","","f","","11","2","5","false","false","true","both pre & post","LEFT","LEFT","f","1","true","","","",""
"","html-keyboard-response","419","679205","0.0-724.0","bglkg64e","1536","864","","","","","","","","","","","null","+","Fixation - short","","null","","","","","","","","","","","","","","","","",""
"","html-keyboard-response","420","679726","0.0-725.0","bglkg64e","","","","","","","","","","","","","519","chy","Diagnostic trial","","f","","11","3","5","false","false","true","both pre & post","RIGHT","LEFT","f","1","false","","","",""
"","html-keyboard-response","421","680481","0.0-728.0","bglkg64e","1536","864","","","","","","","","","","","null","+","Fixation - short","","null","","","","","","","","","","","","","","","","",""
"","html-keyboard-response","422","680997","0.0-729.0","bglkg64e","","","","","","","","","","","","","516","uen","Diagnostic trial","","f","","11","4","5","false","false","true","both pre & post","LEFT","LEFT","f","1","true","","","",""
"","html-keyboard-response","423","681764","0.0-732.0","bglkg64e","1536","864","","","","","","","","","","","null","+","Fixation - short","","null","","","","","","","","","","","","","","","","",""
"","canvas-keyboard-response","424","683022","0.0-733.0","bglkg64e","","","","","","","","","","","","","null","Cue","Cue","","null","","11","4","","","false","","","","","","","","","","",""
"","html-keyboard-response","425","683786","0.0-734.0","bglkg64e","1536","864","","","","","","","","","","","null","+","Fixation - short","","null","","","","","","","","","","","","","","","","",""
"","html-keyboard-response","426","684179","0.0-735.0","bglkg64e","","","","","","","","","","","","","392","chy","Diagnostic trial","","f","","11","5","5","true","false","true","both pre & post","RIGHT","LEFT","f","1","false","","","",""
"","html-keyboard-response","427","684936","0.0-738.0","bglkg64e","1536","864","","","","","","","","","","","null","+","Fixation - short","","null","","","","","","","","","","","","","","","","",""
"","html-keyboard-response","428","685526","0.0-739.0","bglkg64e","","","","","","","","","","","","","588","uen","Diagnostic trial","","f","","11","6","5","true","false","true","both pre & post","LEFT","LEFT","f","1","true","","","",""
"","html-keyboard-response","429","686292","0.0-742.0","bglkg64e","1536","864","","","","","","","","","","","null","+","Fixation - short","","null","","","","","","","","","","","","","","","","",""
"","html-keyboard-response","430","686876","0.0-743.0","bglkg64e","","","","","","","","","","","","","583","chy","Diagnostic trial","","f","","11","7","5","true","false","true","both pre & post","RIGHT","LEFT","f","1","false","","","",""
"","html-keyboard-response","431","687642","0.0-746.0","bglkg64e","1536","864","","","","","","","","","","","null","+","Fixation - short","","null","","","","","","","","","","","","","","","","",""
"","html-keyboard-response","432","688317","0.0-747.0","bglkg64e","","","","","","","","","","","","","674","chy","Diagnostic trial","","f","","11","8","5","true","false","true","both pre & post","RIGHT","LEFT","f","1","false","","","",""
"","html-keyboard-response","433","689071","0.0-750.0","bglkg64e","1536","864","","","","","","","","","","","null","+","Fixation - short","","null","","","","","","","","","","","","","","","","",""
"","html-keyboard-response","434","689694","0.0-751.0","bglkg64e","","","","","","","","","","","","","621","uen","Inducer trial","","f","","11","","","","true","","","","","f","1","","false","LEFT","",""
"","html-keyboard-response","435","690455","0.0-754.0","bglkg64e","1536","864","","","","","","","","","","","null","+","Fixation - short","","null","","","","","","","","","","","","","","","","",""
"","html-keyboard-response","436","699466","0.0-755.0","bglkg64e","","","","","","","","","","","","","9010","If ibg press LEFT | If lpn press RIGHT","Inducer instructions",""," ","","12","","","","","","","","","","","","","","",""
"","html-keyboard-response","437","700218","0.0-756.0","bglkg64e","1536","864","","","","","","","","","","","null","+","Fixation - short","","null","","","","","","","","","","","","","","","","",""
"","html-keyboard-response","438","700590","0.0-757.0","bglkg64e","","","","","","","","","","","","","371","lpn","Diagnostic trial","","j","","12","0","6","false","false","false","both pre & post","RIGHT","RIGHT","j","1","true","","","",""
"","html-keyboard-response","439","701356","0.0-760.0","bglkg64e","1536","864","","","","","","","","","","","null","+","Fixation - short","","null","","","","","","","","","","","","","","","","",""
"","html-keyboard-response","440","701851","0.0-761.0","bglkg64e","","","","","","","","","","","","","494","lpn","Diagnostic trial","","j","","12","1","6","false","false","false","both pre & post","RIGHT","RIGHT","j","1","true","","","",""
"","html-keyboard-response","441","702610","0.0-764.0","bglkg64e","1536","864","","","","","","","","","","","null","+","Fixation - short","","null","","","","","","","","","","","","","","","","",""
"","html-keyboard-response","442","703074","0.0-765.0","bglkg64e","","","","","","","","","","","","","463","lpn","Diagnostic trial","","j","","12","2","6","false","false","false","both pre & post","RIGHT","RIGHT","j","1","true","","","",""
"","html-keyboard-response","443","703839","0.0-768.0","bglkg64e","1536","864","","","","","","","","","","","null","+","Fixation - short","","null","","","","","","","","","","","","","","","","",""
"","html-keyboard-response","444","704332","0.0-769.0","bglkg64e","","","","","","","","","","","","","491","ibg","Diagnostic trial","","f","","12","3","6","false","false","true","both pre & post","LEFT","LEFT","f","1","true","","","",""
"","html-keyboard-response","445","705089","0.0-772.0","bglkg64e","1536","864","","","","","","","","","","","null","+","Fixation - short","","null","","","","","","","","","","","","","","","","",""
"","html-keyboard-response","446","705685","0.0-773.0","bglkg64e","","","","","","","","","","","","","596","lpn","Diagnostic trial","","j","","12","4","6","false","false","false","both pre & post","RIGHT","RIGHT","j","1","true","","","",""
"","html-keyboard-response","447","706439","0.0-776.0","bglkg64e","1536","864","","","","","","","","","","","null","+","Fixation - short","","null","","","","","","","","","","","","","","","","",""
"","html-keyboard-response","448","706960","0.0-777.0","bglkg64e","","","","","","","","","","","","","520","ibg","Diagnostic trial","","j","","12","5","6","false","false","false","both pre & post","LEFT","RIGHT","j","1","false","","","",""
"","html-keyboard-response","449","707717","0.0-780.0","bglkg64e","1536","864","","","","","","","","","","","null","+","Fixation - short","","null","","","","","","","","","","","","","","","","",""
"","canvas-keyboard-response","450","708972","0.0-781.0","bglkg64e","","","","","","","","","","","","","null","Cue","Cue","","null","","12","5","","","false","","","","","","","","","","",""
"","html-keyboard-response","451","709730","0.0-782.0","bglkg64e","1536","864","","","","","","","","","","","null","+","Fixation - short","","null","","","","","","","","","","","","","","","","",""
"","html-keyboard-response","452","710273","0.0-783.0","bglkg64e","","","","","","","","","","","","","542","lpn","Diagnostic trial","","f","","12","6","6","true","false","true","both pre & post","RIGHT","LEFT","f","1","false","","","",""
"","html-keyboard-response","453","711027","0.0-786.0","bglkg64e","1536","864","","","","","","","","","","","null","+","Fixation - short","","null","","","","","","","","","","","","","","","","",""
"","html-keyboard-response","454","711645","0.0-787.0","bglkg64e","","","","","","","","","","","","","617","lpn","Diagnostic trial","","j","","12","7","6","true","false","false","both pre & post","RIGHT","RIGHT","j","1","true","","","",""
"","html-keyboard-response","455","712407","0.0-790.0","bglkg64e","1536","864","","","","","","","","","","","null","+","Fixation - short","","null","","","","","","","","","","","","","","","","",""
"","html-keyboard-response","456","712951","0.0-791.0","bglkg64e","","","","","","","","","","","","","543","lpn","Diagnostic trial","","f","","12","8","6","true","false","true","both pre & post","RIGHT","LEFT","f","1","false","","","",""
