"value","trial_type","trial_index","time_elapsed","internal_node_id","id","width","height","webaudio","browser","browser_version","mobile","os","fullscreen","vsync_rate","webcam","microphone","view_history","rt","stimulus","trial_info","success","response","inducer_run","diagnostic_run","inducer_trial","italic","correct_diag_response_side","correct_response_key","correct_response","correct_indu_response_side","correct_inducer_response_side","congruent","accuracy","open_feedback","interactive"
"","call-function","0","2","0.0-0.0","9ocxe3ob","","","","","","","","","","","","","","","","","","","","","","","","","","","","","",""
"","browser-check","1","1043","0.0-1.0","9ocxe3ob","1536","703","true","chrome","121.0.0","false","Windows 10","true","57.94","true","true","","","","","","","","","","","","","","","","","","",""
"","instructions","2","120518","0.0-2.0","9ocxe3ob","","","","","","","","","","","","[{""page_index"":0,""viewing_time"":9371},{""page_index"":1,""viewing_time"":67972},{""page_index"":2,""viewing_time"":42129}]","119474","The experiment and consent","The experiment and consent","","","","","","","","","","","","","","",""
"","fullscreen","3","224457","0.0-3.0","9ocxe3ob","1536","864","","","","","","","","","","","102904","","Full screen","true","","","","","","","","","","","","","",""
"","instructions","4","262497","0.0-4.0","9ocxe3ob","1536","864","","","","","","","","","","[{""page_index"":0,""viewing_time"":33582},{""page_index"":1,""viewing_time"":4456}]","38038","Instructions","Basic overview explanation","","","","","","","","","","","","","","",""
"","html-keyboard-response","5","277716","0.0-5.0","9ocxe3ob","1536","864","","","","","","","","","","","13714","If italic press RIGHT | If upright press LEFT","Diagnostic instructions",""," ","","","","","","","","","","","","",""
"","html-keyboard-response","6","278472","0.0-6.0","9ocxe3ob","1536","864","","","","","","","","","","","null","+","Fixation - short","","null","","","","","","","","","","","","",""
"","html-keyboard-response","7","279500","0.0-7.0","9ocxe3ob","1536","864","","","","","","","","","","","1026","xlv","Practice diganostic trial","","j","practice","0","false","0","LEFT","f","0","","","","","",""
"","call-function","8","279501","0.0-9.0-0.0","9ocxe3ob","","","","","","","","","","","","","","","","","","","","","","","","","","","","","",""
"","html-keyboard-response","9","279804","0.0-9.0-1.0","9ocxe3ob","1536","864","","","","","","","","","","","null","Wrong","Feedback","","null","","","","","","","","","","","","",""
"","call-function","10","279804","0.0-9.0-2.0","9ocxe3ob","","","","","","","","","","","","","","","","","","","","","","","","","","","","","",""
"","html-keyboard-response","11","280560","0.0-10.0","9ocxe3ob","1536","864","","","","","","","","","","","null","+","Fixation - short","","null","","","","","","","","","","","","",""
"","html-keyboard-response","12","281289","0.0-11.0","9ocxe3ob","1536","864","","","","","","","","","","","728","xlv","Practice diganostic trial","","f","practice","1","false","0","LEFT","f","1","","","","","",""
"","html-keyboard-response","13","282044","0.0-14.0","9ocxe3ob","1536","864","","","","","","","","","","","null","+","Fixation - short","","null","","","","","","","","","","","","",""
"","html-keyboard-response","14","282760","0.0-15.0","9ocxe3ob","1536","864","","","","","","","","","","","714","dlg","Practice diganostic trial","","j","practice","2","false","1","RIGHT","j","1","","","","","",""
"","html-keyboard-response","15","283517","0.0-18.0","9ocxe3ob","1536","864","","","","","","","","","","","null","+","Fixation - short","","null","","","","","","","","","","","","",""
"","html-keyboard-response","16","284033","0.0-19.0","9ocxe3ob","1536","864","","","","","","","","","","","515","xlv","Practice diganostic trial","","f","practice","3","false","0","LEFT","f","1","","","","","",""
"","html-keyboard-response","17","284797","0.0-22.0","9ocxe3ob","1536","864","","","","","","","","","","","null","+","Fixation - short","","null","","","","","","","","","","","","",""
"","html-keyboard-response","18","285385","0.0-23.0","9ocxe3ob","1536","864","","","","","","","","","","","587","dlg","Practice diganostic trial","","j","practice","4","false","1","RIGHT","j","1","","","","","",""
"","html-keyboard-response","19","286138","0.0-26.0","9ocxe3ob","1536","864","","","","","","","","","","","null","+","Fixation - short","","null","","","","","","","","","","","","",""
"","html-keyboard-response","20","286449","0.0-27.0","9ocxe3ob","1536","864","","","","","","","","","","","309","xlv","Practice diganostic trial","","f","practice","5","false","0","LEFT","f","1","","","","","",""
"","html-keyboard-response","21","287212","0.0-30.0","9ocxe3ob","1536","864","","","","","","","","","","","null","+","Fixation - short","","null","","","","","","","","","","","","",""
"","html-keyboard-response","22","287740","0.0-31.0","9ocxe3ob","1536","864","","","","","","","","","","","527","xlv","Practice diganostic trial","","f","practice","6","false","1","RIGHT","j","0","","","","","",""
"","call-function","23","287741","0.0-33.0-0.0","9ocxe3ob","","","","","","","","","","","","","","","","","","","","","","","","","","","","","",""
"","html-keyboard-response","24","288053","0.0-33.0-1.0","9ocxe3ob","1536","864","","","","","","","","","","","null","Wrong","Feedback","","null","","","","","","","","","","","","",""
"","call-function","25","288054","0.0-33.0-2.0","9ocxe3ob","","","","","","","","","","","","","","","","","","","","","","","","","","","","","",""
"","html-keyboard-response","26","288819","0.0-34.0","9ocxe3ob","1536","864","","","","","","","","","","","null","+","Fixation - short","","null","","","","","","","","","","","","",""
"","html-keyboard-response","27","289683","0.0-35.0","9ocxe3ob","1536","864","","","","","","","","","","","863","xlv","Practice diganostic trial","","j","practice","7","false","1","RIGHT","j","1","","","","","",""
"","html-keyboard-response","28","290438","0.0-38.0","9ocxe3ob","1536","864","","","","","","","","","","","null","+","Fixation - short","","null","","","","","","","","","","","","",""
"","html-keyboard-response","29","290843","0.0-39.0","9ocxe3ob","1536","864","","","","","","","","","","","404","xlv","Practice diganostic trial","","j","practice","8","false","1","RIGHT","j","1","","","","","",""
"","html-keyboard-response","30","291604","0.0-42.0","9ocxe3ob","1536","864","","","","","","","","","","","null","+","Fixation - short","","null","","","","","","","","","","","","",""
"","html-keyboard-response","31","292243","0.0-43.0","9ocxe3ob","1536","864","","","","","","","","","","","637","dlg","Practice diganostic trial","","j","practice","9","false","1","RIGHT","j","1","","","","","",""
"","html-keyboard-response","32","293007","0.0-46.0","9ocxe3ob","1536","864","","","","","","","","","","","null","+","Fixation - short","","null","","","","","","","","","","","","",""
"","html-keyboard-response","33","293559","0.0-47.0","9ocxe3ob","1536","864","","","","","","","","","","","551","xlv","Practice diganostic trial","","f","practice","10","false","0","LEFT","f","1","","","","","",""
"","html-keyboard-response","34","294321","0.0-50.0","9ocxe3ob","1536","864","","","","","","","","","","","null","+","Fixation - short","","null","","","","","","","","","","","","",""
"","html-keyboard-response","35","294775","0.0-51.0","9ocxe3ob","1536","864","","","","","","","","","","","453","xlv","Practice diganostic trial","","j","practice","11","false","1","RIGHT","j","1","","","","","",""
"","html-keyboard-response","36","295527","0.0-54.0","9ocxe3ob","1536","864","","","","","","","","","","","null","+","Fixation - short","","null","","","","","","","","","","","","",""
"","html-keyboard-response","37","296199","0.0-55.0","9ocxe3ob","1536","864","","","","","","","","","","","671","xlv","Practice diganostic trial","","j","practice","12","false","1","RIGHT","j","1","","","","","",""
"","html-keyboard-response","38","296952","0.0-58.0","9ocxe3ob","1536","864","","","","","","","","","","","null","+","Fixation - short","","null","","","","","","","","","","","","",""
"","html-keyboard-response","39","297464","0.0-59.0","9ocxe3ob","1536","864","","","","","","","","","","","512","xlv","Practice diganostic trial","","f","practice","13","false","0","LEFT","f","1","","","","","",""
"","html-keyboard-response","40","298217","0.0-62.0","9ocxe3ob","1536","864","","","","","","","","","","","null","+","Fixation - short","","null","","","","","","","","","","","","",""
"","html-keyboard-response","41","298913","0.0-63.0","9ocxe3ob","1536","864","","","","","","","","","","","695","dlg","Practice diganostic trial","","f","practice","14","false","0","LEFT","f","1","","","","","",""
"","html-keyboard-response","42","299672","0.0-66.0","9ocxe3ob","1536","864","","","","","","","","","","","null","+","Fixation - short","","null","","","","","","","","","","","","",""
"","html-keyboard-response","43","300701","0.0-67.0","9ocxe3ob","1536","864","","","","","","","","","","","1028","xlv","Practice diganostic trial","","f","practice","15","false","0","LEFT","f","1","","","","","",""
"","html-keyboard-response","44","301460","0.0-70.0","9ocxe3ob","1536","864","","","","","","","","","","","null","+","Fixation - short","","null","","","","","","","","","","","","",""
"","instructions","45","355410","0.0-71.0","9ocxe3ob","1536","864","","","","","","","","","","[{""page_index"":0,""viewing_time"":53948}]","53948","Instructions","Final experiment explanation","","","","","","","","","","","","","","",""
"","html-keyboard-response","46","363002","0.0-72.0","9ocxe3ob","1536","864","","","","","","","","","","","6076","If wab press RIGHT | If cpt press LEFT","Practice inducer instructions",""," ","practice","","","","","","","","","","","",""
"","html-keyboard-response","47","363671","0.0-73.0","9ocxe3ob","1536","864","","","","","","","","","","","667","","Practice inducer trial","","f","practice","","true","","","f","1","LEFT","","","","",""
"","html-keyboard-response","48","364428","0.0-76.0","9ocxe3ob","1536","864","","","","","","","","","","","null","+","Fixation - short","","null","","","","","","","","","","","","",""
"","html-keyboard-response","49","366273","0.0-77.0","9ocxe3ob","1536","864","","","","","","","","","","","1845","If jsf press RIGHT | If ibg press LEFT","Practice inducer instructions",""," ","practice","","","","","","","","","","","",""
"","html-keyboard-response","50","366893","0.0-78.0","9ocxe3ob","1536","864","","","","","","","","","","","619","","Practice inducer trial","","f","practice","","true","","","f","1","LEFT","","","","",""
"","html-keyboard-response","51","367647","0.0-81.0","9ocxe3ob","1536","864","","","","","","","","","","","null","+","Fixation - short","","null","","","","","","","","","","","","",""
"","html-keyboard-response","52","368529","0.0-82.0","9ocxe3ob","1536","864","","","","","","","","","","","881","If ndm press RIGHT | If sdw press LEFT","Practice inducer instructions",""," ","practice","","","","","","","","","","","",""
"","html-keyboard-response","53","369506","0.0-83.0","9ocxe3ob","1536","864","","","","","","","","","","","975","","Practice inducer trial","","j","practice","","true","","","j","1","RIGHT","","","","",""
"","html-keyboard-response","54","370265","0.0-86.0","9ocxe3ob","1536","864","","","","","","","","","","","null","+","Fixation - short","","null","","","","","","","","","","","","",""
"","html-keyboard-response","55","372433","0.0-87.0","9ocxe3ob","1536","864","","","","","","","","","","","2167","If bwe press RIGHT | If pph press LEFT","Practice inducer instructions",""," ","practice","","","","","","","","","","","",""
"","html-keyboard-response","56","372891","0.0-88.0","9ocxe3ob","1536","864","","","","","","","","","","","458","","Practice inducer trial","","f","practice","","true","","","f","1","LEFT","","","","",""
"","html-keyboard-response","57","373656","0.0-91.0","9ocxe3ob","1536","864","","","","","","","","","","","null","+","Fixation - short","","null","","","","","","","","","","","","",""
"","html-keyboard-response","58","376027","0.0-92.0","9ocxe3ob","1536","864","","","","","","","","","","","2370","If ttm press RIGHT | If slu press LEFT","Practice inducer instructions",""," ","practice","","","","","","","","","","","",""
"","html-keyboard-response","59","376396","0.0-93.0","9ocxe3ob","1536","864","","","","","","","","","","","368","","Practice inducer trial","","f","practice","","true","","","j","0","RIGHT","","","","",""
"","call-function","60","376396","0.0-95.0-0.0","9ocxe3ob","","","","","","","","","","","","","","","","","","","","","","","","","","","","","",""
"","html-keyboard-response","61","376705","0.0-95.0-1.0","9ocxe3ob","1536","864","","","","","","","","","","","null","Wrong","Feedback","","null","","","","","","","","","","","","",""
"","call-function","62","376706","0.0-95.0-2.0","9ocxe3ob","","","","","","","","","","","","","","","","","","","","","","","","","","","","","",""
"","html-keyboard-response","63","377465","0.0-96.0","9ocxe3ob","1536","864","","","","","","","","","","","null","+","Fixation - short","","null","","","","","","","","","","","","",""
"","html-keyboard-response","64","378358","0.0-97.0","9ocxe3ob","1536","864","","","","","","","","","","","891","If quy press RIGHT | If lff press LEFT","Practice inducer instructions",""," ","practice","","","","","","","","","","","",""
"","html-keyboard-response","65","378966","0.0-98.0","9ocxe3ob","1536","864","","","","","","","","","","","607","","Practice inducer trial","","j","practice","","true","","","j","1","RIGHT","","","","",""
"","html-keyboard-response","66","379731","0.0-101.0","9ocxe3ob","1536","864","","","","","","","","","","","null","+","Fixation - short","","null","","","","","","","","","","","","",""
"","html-keyboard-response","67","402541","0.0-102.0","9ocxe3ob","1536","864","","","","","","","","","","","22808","End practice","End of practice",""," ","","","","","","","","","","","","",""
"","html-keyboard-response","68","404054","0.0-103.0","9ocxe3ob","1536","864","","","","","","","","","","","null","+","Fixation - long","","null","","","","","","","","","","","","",""
"","html-keyboard-response","69","424059","0.0-104.0","9ocxe3ob","1536","864","","","","","","","","","","","null","If ivr press RIGHT | If glp press LEFT","Inducer instructions","","null","0","","","","","","","","","","","",""
"","html-keyboard-response","70","424816","0.0-105.0","9ocxe3ob","1536","864","","","","","","","","","","","null","+","Fixation - short","","null","","","","","","","","","","","","",""
"","html-keyboard-response","71","426638","0.0-106.0","9ocxe3ob","1536","864","","","","","","","","","","","1820","glp","Diagnostic trial","","f","0","0","false","true","RIGHT","j","0","","RIGHT","true","","",""
"","call-function","72","426640","0.0-108.0-0.0","9ocxe3ob","","","","","","","","","","","","","","","","","","","","","","","","","","","","","",""
"","html-keyboard-response","73","426950","0.0-108.0-1.0","9ocxe3ob","1536","864","","","","","","","","","","","null","Wrong","Feedback","","null","","","","","","","","","","","","",""
"","call-function","74","426951","0.0-108.0-2.0","9ocxe3ob","","","","","","","","","","","","","","","","","","","","","","","","","","","","","",""
"","html-keyboard-response","75","427711","0.0-109.0","9ocxe3ob","1536","864","","","","","","","","","","","null","+","Fixation - short","","null","","","","","","","","","","","","",""
"","html-keyboard-response","76","428435","0.0-110.0","9ocxe3ob","1536","864","","","","","","","","","","","723","ivr","Diagnostic trial","","f","0","1","false","false","LEFT","f","1","","LEFT","true","","",""
"","html-keyboard-response","77","429191","0.0-113.0","9ocxe3ob","1536","864","","","","","","","","","","","null","+","Fixation - short","","null","","","","","","","","","","","","",""
"","html-keyboard-response","78","430591","0.0-114.0","9ocxe3ob","1536","864","","","","","","","","","","","1399","ivr","Diagnostic trial","","f","0","2","false","false","LEFT","f","1","","LEFT","true","","",""
"","html-keyboard-response","79","431346","0.0-117.0","9ocxe3ob","1536","864","","","","","","","","","","","null","+","Fixation - short","","null","","","","","","","","","","","","",""
"","html-keyboard-response","80","432023","0.0-118.0","9ocxe3ob","1536","864","","","","","","","","","","","675","glp","Diagnostic trial","","j","0","3","false","false","LEFT","f","0","","RIGHT","false","","",""
"","call-function","81","432023","0.0-120.0-0.0","9ocxe3ob","","","","","","","","","","","","","","","","","","","","","","","","","","","","","",""
"","html-keyboard-response","82","432327","0.0-120.0-1.0","9ocxe3ob","1536","864","","","","","","","","","","","null","Wrong","Feedback","","null","","","","","","","","","","","","",""
"","call-function","83","432327","0.0-120.0-2.0","9ocxe3ob","","","","","","","","","","","","","","","","","","","","","","","","","","","","","",""
"","html-keyboard-response","84","433085","0.0-121.0","9ocxe3ob","1536","864","","","","","","","","","","","null","+","Fixation - short","","null","","","","","","","","","","","","",""
"","html-keyboard-response","85","435007","0.0-122.0","9ocxe3ob","1536","864","","","","","","","","","","","1921","glp","Diagnostic trial","","j","0","4","false","true","RIGHT","j","1","","RIGHT","true","","",""
"","html-keyboard-response","86","435766","0.0-125.0","9ocxe3ob","1536","864","","","","","","","","","","","null","+","Fixation - short","","null","","","","","","","","","","","","",""
"","html-keyboard-response","87","436469","0.0-126.0","9ocxe3ob","1536","864","","","","","","","","","","","701","ivr","Diagnostic trial","","j","0","5","false","true","RIGHT","j","1","","LEFT","false","","",""
"","html-keyboard-response","88","437224","0.0-129.0","9ocxe3ob","1536","864","","","","","","","","","","","null","+","Fixation - short","","null","","","","","","","","","","","","",""
"","html-keyboard-response","89","438122","0.0-130.0","9ocxe3ob","1536","864","","","","","","","","","","","897","ivr","Diagnostic trial","","f","0","6","false","false","LEFT","f","1","","LEFT","true","","",""
"","html-keyboard-response","90","438874","0.0-133.0","9ocxe3ob","1536","864","","","","","","","","","","","null","+","Fixation - short","","null","","","","","","","","","","","","",""
"","html-keyboard-response","91","440261","0.0-134.0","9ocxe3ob","1536","864","","","","","","","","","","","1385","glp","Diagnostic trial","","f","0","7","false","false","LEFT","f","1","","RIGHT","false","","",""
"","html-keyboard-response","92","441026","0.0-137.0","9ocxe3ob","1536","864","","","","","","","","","","","null","+","Fixation - short","","null","","","","","","","","","","","","",""
"","html-keyboard-response","93","441701","0.0-138.0","9ocxe3ob","1536","864","","","","","","","","","","","674","glp","Diagnostic trial","","j","0","8","false","true","RIGHT","j","1","","RIGHT","true","","",""
"","html-keyboard-response","94","442459","0.0-141.0","9ocxe3ob","1536","864","","","","","","","","","","","null","+","Fixation - short","","null","","","","","","","","","","","","",""
"","html-keyboard-response","95","444446","0.0-142.0","9ocxe3ob","1536","864","","","","","","","","","","","1986","glp","Diagnostic trial","","f","0","9","false","false","LEFT","f","1","","RIGHT","false","","",""
"","html-keyboard-response","96","445206","0.0-145.0","9ocxe3ob","1536","864","","","","","","","","","","","null","+","Fixation - short","","null","","","","","","","","","","","","",""
"","html-keyboard-response","97","445878","0.0-146.0","9ocxe3ob","1536","864","","","","","","","","","","","670","ivr","Diagnostic trial","","j","0","10","false","true","RIGHT","j","1","","LEFT","false","","",""
"","html-keyboard-response","98","446631","0.0-149.0","9ocxe3ob","1536","864","","","","","","","","","","","null","+","Fixation - short","","null","","","","","","","","","","","","",""
"","html-keyboard-response","99","447309","0.0-150.0","9ocxe3ob","1536","864","","","","","","","","","","","677","glp","Diagnostic trial","","f","0","11","false","false","LEFT","f","1","","RIGHT","false","","",""
"","html-keyboard-response","100","448061","0.0-153.0","9ocxe3ob","1536","864","","","","","","","","","","","null","+","Fixation - short","","null","","","","","","","","","","","","",""
"","html-keyboard-response","101","448711","0.0-154.0","9ocxe3ob","1536","864","","","","","","","","","","","649","glp","Diagnostic trial","","j","0","12","false","true","RIGHT","j","1","","RIGHT","true","","",""
"","html-keyboard-response","102","449476","0.0-157.0","9ocxe3ob","1536","864","","","","","","","","","","","null","+","Fixation - short","","null","","","","","","","","","","","","",""
"","html-keyboard-response","103","450104","0.0-158.0","9ocxe3ob","1536","864","","","","","","","","","","","627","glp","Diagnostic trial","","j","0","13","false","true","RIGHT","j","1","","RIGHT","true","","",""
"","html-keyboard-response","104","450859","0.0-161.0","9ocxe3ob","1536","864","","","","","","","","","","","null","+","Fixation - short","","null","","","","","","","","","","","","",""
"","html-keyboard-response","105","452862","0.0-162.0","9ocxe3ob","1536","864","","","","","","","","","","","null","glp","Inducer trial","","null","0","","true","","","f","NaN","LEFT","","","","",""
"","call-function","106","452863","0.0-163.0-0.0","9ocxe3ob","","","","","","","","","","","","","","","","","","","","","","","","","","","","","",""
"","html-keyboard-response","107","453170","0.0-163.0-1.0","9ocxe3ob","1536","864","","","","","","","","","","","null","Slow","Feedback","","null","","","","","","","","","","","","",""
"","call-function","108","453171","0.0-163.0-2.0","9ocxe3ob","","","","","","","","","","","","","","","","","","","","","","","","","","","","","",""
"","html-keyboard-response","109","454688","0.0-165.0","9ocxe3ob","1536","864","","","","","","","","","","","null","+","Fixation - long","","null","","","","","","","","","","","","",""
"","html-keyboard-response","110","465413","0.0-166.0","9ocxe3ob","1536","864","","","","","","","","","","","10724","If yna press RIGHT | If cer press LEFT","Inducer instructions",""," ","1","","","","","","","","","","","",""
"","html-keyboard-response","111","466170","0.0-167.0","9ocxe3ob","1536","864","","","","","","","","","","","null","+","Fixation - short","","null","","","","","","","","","","","","",""
"","html-keyboard-response","112","467262","0.0-168.0","9ocxe3ob","1536","864","","","","","","","","","","","1090","cer","Diagnostic trial","","f","1","0","false","true","RIGHT","j","0","","RIGHT","true","","",""
"","call-function","113","467263","0.0-170.0-0.0","9ocxe3ob","","","","","","","","","","","","","","","","","","","","","","","","","","","","","",""
"","html-keyboard-response","114","467570","0.0-170.0-1.0","9ocxe3ob","1536","864","","","","","","","","","","","null","Wrong","Feedback","","null","","","","","","","","","","","","",""
"","call-function","115","467570","0.0-170.0-2.0","9ocxe3ob","","","","","","","","","","","","","","","","","","","","","","","","","","","","","",""
"","html-keyboard-response","116","468325","0.0-171.0","9ocxe3ob","1536","864","","","","","","","","","","","null","+","Fixation - short","","null","","","","","","","","","","","","",""
"","html-keyboard-response","117","469128","0.0-172.0","9ocxe3ob","1536","864","","","","","","","","","","","801","yna","Diagnostic trial","","j","1","1","false","true","RIGHT","j","1","","LEFT","false","","",""
"","html-keyboard-response","118","469888","0.0-175.0","9ocxe3ob","1536","864","","","","","","","","","","","null","+","Fixation - short","","null","","","","","","","","","","","","",""
"","html-keyboard-response","119","470817","0.0-176.0","9ocxe3ob","1536","864","","","","","","","","","","","928","yna","Diagnostic trial","","f","1","2","false","true","RIGHT","j","0","","LEFT","false","","",""
"","call-function","120","470818","0.0-178.0-0.0","9ocxe3ob","","","","","","","","","","","","","","","","","","","","","","","","","","","","","",""
"","html-keyboard-response","121","471132","0.0-178.0-1.0","9ocxe3ob","1536","864","","","","","","","","","","","null","Wrong","Feedback","","null","","","","","","","","","","","","",""
"","call-function","122","471133","0.0-178.0-2.0","9ocxe3ob","","","","","","","","","","","","","","","","","","","","","","","","","","","","","",""
"","html-keyboard-response","123","471894","0.0-179.0","9ocxe3ob","1536","864","","","","","","","","","","","null","+","Fixation - short","","null","","","","","","","","","","","","",""
"","html-keyboard-response","124","472779","0.0-180.0","9ocxe3ob","1536","864","","","","","","","","","","","884","cer","Diagnostic trial","","j","1","3","false","true","RIGHT","j","1","","RIGHT","true","","",""
"","html-keyboard-response","125","473541","0.0-183.0","9ocxe3ob","1536","864","","","","","","","","","","","null","+","Fixation - short","","null","","","","","","","","","","","","",""
"","html-keyboard-response","126","474386","0.0-184.0","9ocxe3ob","1536","864","","","","","","","","","","","843","cer","Diagnostic trial","","f","1","4","false","false","LEFT","f","1","","RIGHT","false","","",""
"","html-keyboard-response","127","475153","0.0-187.0","9ocxe3ob","1536","864","","","","","","","","","","","null","+","Fixation - short","","null","","","","","","","","","","","","",""
"","html-keyboard-response","128","475704","0.0-188.0","9ocxe3ob","1536","864","","","","","","","","","","","550","cer","Diagnostic trial","","f","1","5","false","false","LEFT","f","1","","RIGHT","false","","",""
"","html-keyboard-response","129","476459","0.0-191.0","9ocxe3ob","1536","864","","","","","","","","","","","null","+","Fixation - short","","null","","","","","","","","","","","","",""
"","html-keyboard-response","130","477336","0.0-192.0","9ocxe3ob","1536","864","","","","","","","","","","","876","yna","Diagnostic trial","","j","1","6","false","true","RIGHT","j","1","","LEFT","false","","",""
"","html-keyboard-response","131","478088","0.0-195.0","9ocxe3ob","1536","864","","","","","","","","","","","null","+","Fixation - short","","null","","","","","","","","","","","","",""
"","html-keyboard-response","132","479526","0.0-196.0","9ocxe3ob","1536","864","","","","","","","","","","","1437","yna","Diagnostic trial","","f","1","7","false","true","RIGHT","j","0","","LEFT","false","","",""
"","call-function","133","479527","0.0-198.0-0.0","9ocxe3ob","","","","","","","","","","","","","","","","","","","","","","","","","","","","","",""
"","html-keyboard-response","134","479840","0.0-198.0-1.0","9ocxe3ob","1536","864","","","","","","","","","","","null","Wrong","Feedback","","null","","","","","","","","","","","","",""
"","call-function","135","479841","0.0-198.0-2.0","9ocxe3ob","","","","","","","","","","","","","","","","","","","","","","","","","","","","","",""
"","html-keyboard-response","136","480594","0.0-199.0","9ocxe3ob","1536","864","","","","","","","","","","","null","+","Fixation - short","","null","","","","","","","","","","","","",""
"","html-keyboard-response","137","481948","0.0-200.0","9ocxe3ob","1536","864","","","","","","","","","","","1353","yna","Inducer trial","","j","1","","true","","","j","1","RIGHT","","","","",""
"","html-keyboard-response","138","483461","0.0-203.0","9ocxe3ob","1536","864","","","","","","","","","","","null","+","Fixation - long","","null","","","","","","","","","","","","",""
"","html-keyboard-response","139","487882","0.0-204.0","9ocxe3ob","1536","864","","","","","","","","","","","4430","If ori press RIGHT | If idy press LEFT","Inducer instructions",""," ","2","","","","","","","","","","","",""
"","html-keyboard-response","140","488641","0.0-205.0","9ocxe3ob","1536","864","","","","","","","","","","","null","+","Fixation - short","","null","","","","","","","","","","","","",""
"","html-keyboard-response","141","489442","0.0-206.0","9ocxe3ob","1536","864","","","","","","","","","","","800","idy","Diagnostic trial","","f","2","0","false","false","LEFT","f","1","","RIGHT","false","","",""
"","html-keyboard-response","142","490199","0.0-209.0","9ocxe3ob","1536","864","","","","","","","","","","","null","+","Fixation - short","","null","","","","","","","","","","","","",""
"","html-keyboard-response","143","490994","0.0-210.0","9ocxe3ob","1536","864","","","","","","","","","","","795","ori","Diagnostic trial","","f","2","1","false","false","LEFT","f","1","","LEFT","true","","",""
"","html-keyboard-response","144","491746","0.0-213.0","9ocxe3ob","1536","864","","","","","","","","","","","null","+","Fixation - short","","null","","","","","","","","","","","","",""
"","html-keyboard-response","145","492363","0.0-214.0","9ocxe3ob","1536","864","","","","","","","","","","","616","ori","Diagnostic trial","","f","2","2","false","false","LEFT","f","1","","LEFT","true","","",""
"","html-keyboard-response","146","493119","0.0-217.0","9ocxe3ob","1536","864","","","","","","","","","","","null","+","Fixation - short","","null","","","","","","","","","","","","",""
"","html-keyboard-response","147","493746","0.0-218.0","9ocxe3ob","1536","864","","","","","","","","","","","625","ori","Diagnostic trial","","j","2","3","false","true","RIGHT","j","1","","LEFT","false","","",""
"","html-keyboard-response","148","494507","0.0-221.0","9ocxe3ob","1536","864","","","","","","","","","","","null","+","Fixation - short","","null","","","","","","","","","","","","",""
"","html-keyboard-response","149","495231","0.0-222.0","9ocxe3ob","1536","864","","","","","","","","","","","723","ori","Diagnostic trial","","j","2","4","false","true","RIGHT","j","1","","LEFT","false","","",""
"","html-keyboard-response","150","495997","0.0-225.0","9ocxe3ob","1536","864","","","","","","","","","","","null","+","Fixation - short","","null","","","","","","","","","","","","",""
"","html-keyboard-response","151","496751","0.0-226.0","9ocxe3ob","1536","864","","","","","","","","","","","753","idy","Diagnostic trial","","j","2","5","false","true","RIGHT","j","1","","RIGHT","true","","",""
"","html-keyboard-response","152","497517","0.0-229.0","9ocxe3ob","1536","864","","","","","","","","","","","null","+","Fixation - short","","null","","","","","","","","","","","","",""
"","html-keyboard-response","153","498187","0.0-230.0","9ocxe3ob","1536","864","","","","","","","","","","","669","idy","Diagnostic trial","","f","2","6","false","false","LEFT","f","1","","RIGHT","false","","",""
"","html-keyboard-response","154","498945","0.0-233.0","9ocxe3ob","1536","864","","","","","","","","","","","null","+","Fixation - short","","null","","","","","","","","","","","","",""
"","html-keyboard-response","155","499578","0.0-234.0","9ocxe3ob","1536","864","","","","","","","","","","","631","ori","Diagnostic trial","","f","2","7","false","false","LEFT","f","1","","LEFT","true","","",""
"","html-keyboard-response","156","500342","0.0-237.0","9ocxe3ob","1536","864","","","","","","","","","","","null","+","Fixation - short","","null","","","","","","","","","","","","",""
"","html-keyboard-response","157","501220","0.0-238.0","9ocxe3ob","1536","864","","","","","","","","","","","877","ori","Diagnostic trial","","f","2","8","false","false","LEFT","f","1","","LEFT","true","","",""
"","html-keyboard-response","158","501983","0.0-241.0","9ocxe3ob","1536","864","","","","","","","","","","","null","+","Fixation - short","","null","","","","","","","","","","","","",""
"","html-keyboard-response","159","502982","0.0-242.0","9ocxe3ob","1536","864","","","","","","","","","","","997","idy","Diagnostic trial","","j","2","9","false","true","RIGHT","j","1","","RIGHT","true","","",""
"","html-keyboard-response","160","503748","0.0-245.0","9ocxe3ob","1536","864","","","","","","","","","","","null","+","Fixation - short","","null","","","","","","","","","","","","",""
"","html-keyboard-response","161","504673","0.0-246.0","9ocxe3ob","1536","864","","","","","","","","","","","924","ori","Diagnostic trial","","f","2","10","false","false","LEFT","f","1","","LEFT","true","","",""
"","html-keyboard-response","162","505438","0.0-249.0","9ocxe3ob","1536","864","","","","","","","","","","","null","+","Fixation - short","","null","","","","","","","","","","","","",""
"","html-keyboard-response","163","507037","0.0-250.0","9ocxe3ob","1536","864","","","","","","","","","","","1598","idy","Inducer trial","","j","2","","true","","","f","0","LEFT","","","","",""
"","call-function","164","507037","0.0-252.0-0.0","9ocxe3ob","","","","","","","","","","","","","","","","","","","","","","","","","","","","","",""
"","html-keyboard-response","165","507351","0.0-252.0-1.0","9ocxe3ob","1536","864","","","","","","","","","","","null","Wrong","Feedback","","null","","","","","","","","","","","","",""
"","call-function","166","507352","0.0-252.0-2.0","9ocxe3ob","","","","","","","","","","","","","","","","","","","","","","","","","","","","","",""
"","html-keyboard-response","167","508868","0.0-253.0","9ocxe3ob","1536","864","","","","","","","","","","","null","+","Fixation - long","","null","","","","","","","","","","","","",""
"","html-keyboard-response","168","520219","0.0-254.0","9ocxe3ob","1536","864","","","","","","","","","","","11350","If vib press RIGHT | If pte press LEFT","Inducer instructions",""," ","3","","","","","","","","","","","",""
"","html-keyboard-response","169","520972","0.0-255.0","9ocxe3ob","1536","864","","","","","","","","","","","null","+","Fixation - short","","null","","","","","","","","","","","","",""
"","html-keyboard-response","170","521769","0.0-256.0","9ocxe3ob","1536","864","","","","","","","","","","","796","vib","Diagnostic trial","","f","3","0","false","false","LEFT","f","1","","LEFT","true","","",""
"","html-keyboard-response","171","522528","0.0-259.0","9ocxe3ob","1536","864","","","","","","","","","","","null","+","Fixation - short","","null","","","","","","","","","","","","",""
"","html-keyboard-response","172","523148","0.0-260.0","9ocxe3ob","1536","864","","","","","","","","","","","619","vib","Diagnostic trial","","f","3","1","false","false","LEFT","f","1","","LEFT","true","","",""
"","html-keyboard-response","173","523902","0.0-263.0","9ocxe3ob","1536","864","","","","","","","","","","","null","+","Fixation - short","","null","","","","","","","","","","","","",""
"","html-keyboard-response","174","524558","0.0-264.0","9ocxe3ob","1536","864","","","","","","","","","","","655","vib","Diagnostic trial","","f","3","2","false","false","LEFT","f","1","","LEFT","true","","",""
"","html-keyboard-response","175","525323","0.0-267.0","9ocxe3ob","1536","864","","","","","","","","","","","null","+","Fixation - short","","null","","","","","","","","","","","","",""
"","html-keyboard-response","176","526432","0.0-268.0","9ocxe3ob","1536","864","","","","","","","","","","","1108","pte","Diagnostic trial","","j","3","3","false","false","LEFT","f","0","","RIGHT","false","","",""
"","call-function","177","526433","0.0-270.0-0.0","9ocxe3ob","","","","","","","","","","","","","","","","","","","","","","","","","","","","","",""
"","html-keyboard-response","178","526745","0.0-270.0-1.0","9ocxe3ob","1536","864","","","","","","","","","","","null","Wrong","Feedback","","null","","","","","","","","","","","","",""
"","call-function","179","526746","0.0-270.0-2.0","9ocxe3ob","","","","","","","","","","","","","","","","","","","","","","","","","","","","","",""
"","html-keyboard-response","180","527507","0.0-271.0","9ocxe3ob","1536","864","","","","","","","","","","","null","+","Fixation - short","","null","","","","","","","","","","","","",""
"","html-keyboard-response","181","528234","0.0-272.0","9ocxe3ob","1536","864","","","","","","","","","","","726","vib","Diagnostic trial","","j","3","4","false","true","RIGHT","j","1","","LEFT","false","","",""
"","html-keyboard-response","182","528989","0.0-275.0","9ocxe3ob","1536","864","","","","","","","","","","","null","+","Fixation - short","","null","","","","","","","","","","","","",""
"","html-keyboard-response","183","529886","0.0-276.0","9ocxe3ob","1536","864","","","","","","","","","","","897","pte","Diagnostic trial","","j","3","5","false","true","RIGHT","j","1","","RIGHT","true","","",""
"","html-keyboard-response","184","530637","0.0-279.0","9ocxe3ob","1536","864","","","","","","","","","","","null","+","Fixation - short","","null","","","","","","","","","","","","",""
"","html-keyboard-response","185","531618","0.0-280.0","9ocxe3ob","1536","864","","","","","","","","","","","979","pte","Diagnostic trial","","f","3","6","false","false","LEFT","f","1","","RIGHT","false","","",""
"","html-keyboard-response","186","532371","0.0-283.0","9ocxe3ob","1536","864","","","","","","","","","","","null","+","Fixation - short","","null","","","","","","","","","","","","",""
"","html-keyboard-response","187","533157","0.0-284.0","9ocxe3ob","1536","864","","","","","","","","","","","785","pte","Diagnostic trial","","f","3","7","false","false","LEFT","f","1","","RIGHT","false","","",""
"","html-keyboard-response","188","533915","0.0-287.0","9ocxe3ob","1536","864","","","","","","","","","","","null","+","Fixation - short","","null","","","","","","","","","","","","",""
"","html-keyboard-response","189","534721","0.0-288.0","9ocxe3ob","1536","864","","","","","","","","","","","805","vib","Diagnostic trial","","j","3","8","false","true","RIGHT","j","1","","LEFT","false","","",""
"","html-keyboard-response","190","535481","0.0-291.0","9ocxe3ob","1536","864","","","","","","","","","","","null","+","Fixation - short","","null","","","","","","","","","","","","",""
"","html-keyboard-response","191","536033","0.0-292.0","9ocxe3ob","1536","864","","","","","","","","","","","552","pte","Diagnostic trial","","j","3","9","false","true","RIGHT","j","1","","RIGHT","true","","",""
"","html-keyboard-response","192","536790","0.0-295.0","9ocxe3ob","1536","864","","","","","","","","","","","null","+","Fixation - short","","null","","","","","","","","","","","","",""
"","html-keyboard-response","193","537386","0.0-296.0","9ocxe3ob","1536","864","","","","","","","","","","","595","vib","Diagnostic trial","","j","3","10","false","true","RIGHT","j","1","","LEFT","false","","",""
"","html-keyboard-response","194","538147","0.0-299.0","9ocxe3ob","1536","864","","","","","","","","","","","null","+","Fixation - short","","null","","","","","","","","","","","","",""
"","html-keyboard-response","195","539442","0.0-300.0","9ocxe3ob","1536","864","","","","","","","","","","","1294","vib","Inducer trial","","j","3","","true","","","j","1","RIGHT","","","","",""
"","html-keyboard-response","196","540951","0.0-303.0","9ocxe3ob","1536","864","","","","","","","","","","","null","+","Fixation - long","","null","","","","","","","","","","","","",""
"","html-keyboard-response","197","560971","0.0-304.0","9ocxe3ob","1536","864","","","","","","","","","","","null","If eeu press RIGHT | If mts press LEFT","Inducer instructions","","null","4","","","","","","","","","","","",""
"","html-keyboard-response","198","561750","0.0-305.0","9ocxe3ob","1536","864","","","","","","","","","","","null","+","Fixation - short","","null","","","","","","","","","","","","",""
"","html-keyboard-response","199","563760","0.0-306.0","9ocxe3ob","1536","864","","","","","","","","","","","null","mts","Diagnostic trial","","null","4","0","false","false","LEFT","f","NaN","","RIGHT","false","","",""
"","call-function","200","563760","0.0-307.0-0.0","9ocxe3ob","","","","","","","","","","","","","","","","","","","","","","","","","","","","","",""
"","html-keyboard-response","201","564062","0.0-307.0-1.0","9ocxe3ob","1536","864","","","","","","","","","","","null","Slow","Feedback","","null","","","","","","","","","","","","",""
"","call-function","202","564063","0.0-307.0-2.0","9ocxe3ob","","","","","","","","","","","","","","","","","","","","","","","","","","","","","",""
"","html-keyboard-response","203","564820","0.0-309.0","9ocxe3ob","1536","864","","","","","","","","","","","null","+","Fixation - short","","null","","","","","","","","","","","","",""
"","html-keyboard-response","204","565512","0.0-310.0","9ocxe3ob","1536","864","","","","","","","","","","","691","eeu","Diagnostic trial","","f","4","1","false","false","LEFT","f","1","","LEFT","true","","",""
"","html-keyboard-response","205","566264","0.0-313.0","9ocxe3ob","1536","864","","","","","","","","","","","null","+","Fixation - short","","null","","","","","","","","","","","","",""
"","html-keyboard-response","206","567227","0.0-314.0","9ocxe3ob","1536","864","","","","","","","","","","","962","eeu","Diagnostic trial","","f","4","2","false","false","LEFT","f","1","","LEFT","true","","",""
"","html-keyboard-response","207","567992","0.0-317.0","9ocxe3ob","1536","864","","","","","","","","","","","null","+","Fixation - short","","null","","","","","","","","","","","","",""
"","html-keyboard-response","208","569204","0.0-318.0","9ocxe3ob","1536","864","","","","","","","","","","","1210","eeu","Diagnostic trial","","j","4","3","false","true","RIGHT","j","1","","LEFT","false","","",""
"","html-keyboard-response","209","569961","0.0-321.0","9ocxe3ob","1536","864","","","","","","","","","","","null","+","Fixation - short","","null","","","","","","","","","","","","",""
"","html-keyboard-response","210","570603","0.0-322.0","9ocxe3ob","1536","864","","","","","","","","","","","640","eeu","Diagnostic trial","","f","4","4","false","false","LEFT","f","1","","LEFT","true","","",""
"","html-keyboard-response","211","571369","0.0-325.0","9ocxe3ob","1536","864","","","","","","","","","","","null","+","Fixation - short","","null","","","","","","","","","","","","",""
"","html-keyboard-response","212","572028","0.0-326.0","9ocxe3ob","1536","864","","","","","","","","","","","658","eeu","Diagnostic trial","","j","4","5","false","true","RIGHT","j","1","","LEFT","false","","",""
"","html-keyboard-response","213","572784","0.0-329.0","9ocxe3ob","1536","864","","","","","","","","","","","null","+","Fixation - short","","null","","","","","","","","","","","","",""
"","html-keyboard-response","214","573480","0.0-330.0","9ocxe3ob","1536","864","","","","","","","","","","","694","eeu","Diagnostic trial","","f","4","6","false","false","LEFT","f","1","","LEFT","true","","",""
"","html-keyboard-response","215","574232","0.0-333.0","9ocxe3ob","1536","864","","","","","","","","","","","null","+","Fixation - short","","null","","","","","","","","","","","","",""
"","html-keyboard-response","216","575573","0.0-334.0","9ocxe3ob","1536","864","","","","","","","","","","","1339","mts","Diagnostic trial","","f","4","7","false","false","LEFT","f","1","","RIGHT","false","","",""
"","html-keyboard-response","217","576329","0.0-337.0","9ocxe3ob","1536","864","","","","","","","","","","","null","+","Fixation - short","","null","","","","","","","","","","","","",""
"","html-keyboard-response","218","576823","0.0-338.0","9ocxe3ob","1536","864","","","","","","","","","","","493","mts","Diagnostic trial","","f","4","8","false","false","LEFT","f","1","","RIGHT","false","","",""
"","html-keyboard-response","219","577588","0.0-341.0","9ocxe3ob","1536","864","","","","","","","","","","","null","+","Fixation - short","","null","","","","","","","","","","","","",""
"","html-keyboard-response","220","578529","0.0-342.0","9ocxe3ob","1536","864","","","","","","","","","","","940","mts","Diagnostic trial","","j","4","9","false","true","RIGHT","j","1","","RIGHT","true","","",""
"","html-keyboard-response","221","579292","0.0-345.0","9ocxe3ob","1536","864","","","","","","","","","","","null","+","Fixation - short","","null","","","","","","","","","","","","",""
"","html-keyboard-response","222","580431","0.0-346.0","9ocxe3ob","1536","864","","","","","","","","","","","1138","eeu","Diagnostic trial","","j","4","10","false","false","LEFT","f","0","","LEFT","true","","",""
"","call-function","223","580431","0.0-348.0-0.0","9ocxe3ob","","","","","","","","","","","","","","","","","","","","","","","","","","","","","",""
"","html-keyboard-response","224","580738","0.0-348.0-1.0","9ocxe3ob","1536","864","","","","","","","","","","","null","Wrong","Feedback","","null","","","","","","","","","","","","",""
"","call-function","225","580739","0.0-348.0-2.0","9ocxe3ob","","","","","","","","","","","","","","","","","","","","","","","","","","","","","",""
"","html-keyboard-response","226","581501","0.0-349.0","9ocxe3ob","1536","864","","","","","","","","","","","null","+","Fixation - short","","null","","","","","","","","","","","","",""
"","html-keyboard-response","227","582361","0.0-350.0","9ocxe3ob","1536","864","","","","","","","","","","","859","eeu","Diagnostic trial","","j","4","11","false","false","LEFT","f","0","","LEFT","true","","",""
"","call-function","228","582361","0.0-352.0-0.0","9ocxe3ob","","","","","","","","","","","","","","","","","","","","","","","","","","","","","",""
"","html-keyboard-response","229","582668","0.0-352.0-1.0","9ocxe3ob","1536","864","","","","","","","","","","","null","Wrong","Feedback","","null","","","","","","","","","","","","",""
"","call-function","230","582668","0.0-352.0-2.0","9ocxe3ob","","","","","","","","","","","","","","","","","","","","","","","","","","","","","",""
"","html-keyboard-response","231","583431","0.0-353.0","9ocxe3ob","1536","864","","","","","","","","","","","null","+","Fixation - short","","null","","","","","","","","","","","","",""
"","html-keyboard-response","232","583963","0.0-354.0","9ocxe3ob","1536","864","","","","","","","","","","","530","eeu","Diagnostic trial","","j","4","12","false","true","RIGHT","j","1","","LEFT","false","","",""
"","html-keyboard-response","233","584729","0.0-357.0","9ocxe3ob","1536","864","","","","","","","","","","","null","+","Fixation - short","","null","","","","","","","","","","","","",""
"","html-keyboard-response","234","585403","0.0-358.0","9ocxe3ob","1536","864","","","","","","","","","","","673","mts","Diagnostic trial","","f","4","13","false","false","LEFT","f","1","","RIGHT","false","","",""
"","html-keyboard-response","235","586160","0.0-361.0","9ocxe3ob","1536","864","","","","","","","","","","","null","+","Fixation - short","","null","","","","","","","","","","","","",""
"","html-keyboard-response","236","586621","0.0-362.0","9ocxe3ob","1536","864","","","","","","","","","","","460","eeu","Diagnostic trial","","j","4","14","false","true","RIGHT","j","1","","LEFT","false","","",""
"","html-keyboard-response","237","587376","0.0-365.0","9ocxe3ob","1536","864","","","","","","","","","","","null","+","Fixation - short","","null","","","","","","","","","","","","",""
"","html-keyboard-response","238","589232","0.0-366.0","9ocxe3ob","1536","864","","","","","","","","","","","1855","eeu","Inducer trial","","j","4","","true","","","j","1","RIGHT","","","","",""
"","html-keyboard-response","239","590735","0.0-369.0","9ocxe3ob","1536","864","","","","","","","","","","","null","+","Fixation - long","","null","","","","","","","","","","","","",""
"","html-keyboard-response","240","596840","0.0-370.0","9ocxe3ob","1536","864","","","","","","","","","","","6104","If mik press RIGHT | If drk press LEFT","Inducer instructions",""," ","5","","","","","","","","","","","",""
"","html-keyboard-response","241","597605","0.0-371.0","9ocxe3ob","1536","864","","","","","","","","","","","null","+","Fixation - short","","null","","","","","","","","","","","","",""
"","html-keyboard-response","242","598680","0.0-372.0","9ocxe3ob","1536","864","","","","","","","","","","","1074","mik","Diagnostic trial","","f","5","0","false","false","LEFT","f","1","","LEFT","true","","",""
"","html-keyboard-response","243","599432","0.0-375.0","9ocxe3ob","1536","864","","","","","","","","","","","null","+","Fixation - short","","null","","","","","","","","","","","","",""
"","html-keyboard-response","244","600069","0.0-376.0","9ocxe3ob","1536","864","","","","","","","","","","","636","drk","Diagnostic trial","","f","5","1","false","false","LEFT","f","1","","RIGHT","false","","",""
"","html-keyboard-response","245","600827","0.0-379.0","9ocxe3ob","1536","864","","","","","","","","","","","null","+","Fixation - short","","null","","","","","","","","","","","","",""
"","html-keyboard-response","246","601462","0.0-380.0","9ocxe3ob","1536","864","","","","","","","","","","","634","drk","Diagnostic trial","","j","5","2","false","true","RIGHT","j","1","","RIGHT","true","","",""
"","html-keyboard-response","247","602220","0.0-383.0","9ocxe3ob","1536","864","","","","","","","","","","","null","+","Fixation - short","","null","","","","","","","","","","","","",""
"","html-keyboard-response","248","602916","0.0-384.0","9ocxe3ob","1536","864","","","","","","","","","","","694","mik","Diagnostic trial","","j","5","3","false","true","RIGHT","j","1","","LEFT","false","","",""
"","html-keyboard-response","249","603675","0.0-387.0","9ocxe3ob","1536","864","","","","","","","","","","","null","+","Fixation - short","","null","","","","","","","","","","","","",""
"","html-keyboard-response","250","604898","0.0-388.0","9ocxe3ob","1536","864","","","","","","","","","","","1222","drk","Diagnostic trial","","f","5","4","false","false","LEFT","f","1","","RIGHT","false","","",""
"","html-keyboard-response","251","605653","0.0-391.0","9ocxe3ob","1536","864","","","","","","","","","","","null","+","Fixation - short","","null","","","","","","","","","","","","",""
"","html-keyboard-response","252","606308","0.0-392.0","9ocxe3ob","1536","864","","","","","","","","","","","654","mik","Diagnostic trial","","f","5","5","false","false","LEFT","f","1","","LEFT","true","","",""
"","html-keyboard-response","253","607072","0.0-395.0","9ocxe3ob","1536","864","","","","","","","","","","","null","+","Fixation - short","","null","","","","","","","","","","","","",""
"","html-keyboard-response","254","607885","0.0-396.0","9ocxe3ob","1536","864","","","","","","","","","","","813","mik","Diagnostic trial","","j","5","6","false","true","RIGHT","j","1","","LEFT","false","","",""
"","html-keyboard-response","255","608642","0.0-399.0","9ocxe3ob","1536","864","","","","","","","","","","","null","+","Fixation - short","","null","","","","","","","","","","","","",""
"","html-keyboard-response","256","609555","0.0-400.0","9ocxe3ob","1536","864","","","","","","","","","","","912","drk","Diagnostic trial","","f","5","7","false","false","LEFT","f","1","","RIGHT","false","","",""
"","html-keyboard-response","257","610315","0.0-403.0","9ocxe3ob","1536","864","","","","","","","","","","","null","+","Fixation - short","","null","","","","","","","","","","","","",""
"","html-keyboard-response","258","611395","0.0-404.0","9ocxe3ob","1536","864","","","","","","","","","","","1079","mik","Inducer trial","","j","5","","true","","","j","1","RIGHT","","","","",""
"","html-keyboard-response","259","612906","0.0-407.0","9ocxe3ob","1536","864","","","","","","","","","","","null","+","Fixation - long","","null","","","","","","","","","","","","",""
"","html-keyboard-response","260","616639","0.0-408.0","9ocxe3ob","1536","864","","","","","","","","","","","3732","If lpn press RIGHT | If snx press LEFT","Inducer instructions",""," ","6","","","","","","","","","","","",""
"","html-keyboard-response","261","617402","0.0-409.0","9ocxe3ob","1536","864","","","","","","","","","","","null","+","Fixation - short","","null","","","","","","","","","","","","",""
"","html-keyboard-response","262","617928","0.0-410.0","9ocxe3ob","1536","864","","","","","","","","","","","525","snx","Diagnostic trial","","f","6","0","false","false","LEFT","f","1","","RIGHT","false","","",""
"","html-keyboard-response","263","618693","0.0-413.0","9ocxe3ob","1536","864","","","","","","","","","","","null","+","Fixation - short","","null","","","","","","","","","","","","",""
"","html-keyboard-response","264","619729","0.0-414.0","9ocxe3ob","1536","864","","","","","","","","","","","1035","lpn","Diagnostic trial","","f","6","1","false","false","LEFT","f","1","","LEFT","true","","",""
"","html-keyboard-response","265","620489","0.0-417.0","9ocxe3ob","1536","864","","","","","","","","","","","null","+","Fixation - short","","null","","","","","","","","","","","","",""
"","html-keyboard-response","266","621426","0.0-418.0","9ocxe3ob","1536","864","","","","","","","","","","","946","lpn","Diagnostic trial","","j","6","2","false","false","LEFT","f","0","","LEFT","true","","",""
"","call-function","267","621427","0.0-420.0-0.0","9ocxe3ob","","","","","","","","","","","","","","","","","","","","","","","","","","","","","",""
"","html-keyboard-response","268","621741","0.0-420.0-1.0","9ocxe3ob","1536","864","","","","","","","","","","","null","Wrong","Feedback","","null","","","","","","","","","","","","",""
"","call-function","269","621742","0.0-420.0-2.0","9ocxe3ob","","","","","","","","","","","","","","","","","","","","","","","","","","","","","",""
"","html-keyboard-response","270","622502","0.0-421.0","9ocxe3ob","1536","864","","","","","","","","","","","null","+","Fixation - short","","null","","","","","","","","","","","","",""
"","html-keyboard-response","271","623156","0.0-422.0","9ocxe3ob","1536","864","","","","","","","","","","","652","lpn","Diagnostic trial","","f","6","3","false","false","LEFT","f","1","","LEFT","true","","",""
"","html-keyboard-response","272","623907","0.0-425.0","9ocxe3ob","1536","864","","","","","","","","","","","null","+","Fixation - short","","null","","","","","","","","","","","","",""
"","html-keyboard-response","273","624513","0.0-426.0","9ocxe3ob","1536","864","","","","","","","","","","","605","lpn","Diagnostic trial","","j","6","4","false","true","RIGHT","j","1","","LEFT","false","","",""
"","html-keyboard-response","274","625273","0.0-429.0","9ocxe3ob","1536","864","","","","","","","","","","","null","+","Fixation - short","","null","","","","","","","","","","","","",""
"","html-keyboard-response","275","625872","0.0-430.0","9ocxe3ob","1536","864","","","","","","","","","","","598","lpn","Diagnostic trial","","f","6","5","false","false","LEFT","f","1","","LEFT","true","","",""
"","html-keyboard-response","276","626633","0.0-433.0","9ocxe3ob","1536","864","","","","","","","","","","","null","+","Fixation - short","","null","","","","","","","","","","","","",""
"","html-keyboard-response","277","628037","0.0-434.0","9ocxe3ob","1536","864","","","","","","","","","","","1403","snx","Diagnostic trial","","f","6","6","false","true","RIGHT","j","0","","RIGHT","true","","",""
"","call-function","278","628038","0.0-436.0-0.0","9ocxe3ob","","","","","","","","","","","","","","","","","","","","","","","","","","","","","",""
"","html-keyboard-response","279","628346","0.0-436.0-1.0","9ocxe3ob","1536","864","","","","","","","","","","","null","Wrong","Feedback","","null","","","","","","","","","","","","",""
"","call-function","280","628347","0.0-436.0-2.0","9ocxe3ob","","","","","","","","","","","","","","","","","","","","","","","","","","","","","",""
"","html-keyboard-response","281","629111","0.0-437.0","9ocxe3ob","1536","864","","","","","","","","","","","null","+","Fixation - short","","null","","","","","","","","","","","","",""
"","html-keyboard-response","282","629932","0.0-438.0","9ocxe3ob","1536","864","","","","","","","","","","","820","snx","Diagnostic trial","","j","6","7","false","true","RIGHT","j","1","","RIGHT","true","","",""
"","html-keyboard-response","283","630697","0.0-441.0","9ocxe3ob","1536","864","","","","","","","","","","","null","+","Fixation - short","","null","","","","","","","","","","","","",""
"","html-keyboard-response","284","631987","0.0-442.0","9ocxe3ob","1536","864","","","","","","","","","","","1290","lpn","Diagnostic trial","","f","6","8","false","false","LEFT","f","1","","LEFT","true","","",""
"","html-keyboard-response","285","632749","0.0-445.0","9ocxe3ob","1536","864","","","","","","","","","","","null","+","Fixation - short","","null","","","","","","","","","","","","",""
"","html-keyboard-response","286","633511","0.0-446.0","9ocxe3ob","1536","864","","","","","","","","","","","761","snx","Diagnostic trial","","f","6","9","false","false","LEFT","f","1","","RIGHT","false","","",""
"","html-keyboard-response","287","634268","0.0-449.0","9ocxe3ob","1536","864","","","","","","","","","","","null","+","Fixation - short","","null","","","","","","","","","","","","",""
"","html-keyboard-response","288","634857","0.0-450.0","9ocxe3ob","1536","864","","","","","","","","","","","589","snx","Diagnostic trial","","j","6","10","false","true","RIGHT","j","1","","RIGHT","true","","",""
"","html-keyboard-response","289","635616","0.0-453.0","9ocxe3ob","1536","864","","","","","","","","","","","null","+","Fixation - short","","null","","","","","","","","","","","","",""
"","html-keyboard-response","290","636875","0.0-454.0","9ocxe3ob","1536","864","","","","","","","","","","","1258","lpn","Inducer trial","","j","6","","true","","","j","1","RIGHT","","","","",""
"","html-keyboard-response","291","638381","0.0-457.0","9ocxe3ob","1536","864","","","","","","","","","","","null","+","Fixation - long","","null","","","","","","","","","","","","",""
"","html-keyboard-response","292","658389","0.0-458.0","9ocxe3ob","1536","864","","","","","","","","","","","null","If bgi press RIGHT | If feg press LEFT","Inducer instructions","","null","7","","","","","","","","","","","",""
"","html-keyboard-response","293","659144","0.0-459.0","9ocxe3ob","1536","864","","","","","","","","","","","null","+","Fixation - short","","null","","","","","","","","","","","","",""
"","html-keyboard-response","294","660116","0.0-460.0","9ocxe3ob","1536","864","","","","","","","","","","","970","bgi","Diagnostic trial","","j","7","0","false","false","LEFT","f","0","","LEFT","true","","",""
"","call-function","295","660117","0.0-462.0-0.0","9ocxe3ob","","","","","","","","","","","","","","","","","","","","","","","","","","","","","",""
"","html-keyboard-response","296","660424","0.0-462.0-1.0","9ocxe3ob","1536","864","","","","","","","","","","","null","Wrong","Feedback","","null","","","","","","","","","","","","",""
"","call-function","297","660425","0.0-462.0-2.0","9ocxe3ob","","","","","","","","","","","","","","","","","","","","","","","","","","","","","",""
"","html-keyboard-response","298","661187","0.0-463.0","9ocxe3ob","1536","864","","","","","","","","","","","null","+","Fixation - short","","null","","","","","","","","","","","","",""
"","html-keyboard-response","299","661658","0.0-464.0","9ocxe3ob","1536","864","","","","","","","","","","","469","bgi","Diagnostic trial","","j","7","1","false","true","RIGHT","j","1","","LEFT","false","","",""
"","html-keyboard-response","300","662416","0.0-467.0","9ocxe3ob","1536","864","","","","","","","","","","","null","+","Fixation - short","","null","","","","","","","","","","","","",""
"","html-keyboard-response","301","663013","0.0-468.0","9ocxe3ob","1536","864","","","","","","","","","","","596","bgi","Diagnostic trial","","f","7","2","false","false","LEFT","f","1","","LEFT","true","","",""
"","html-keyboard-response","302","663772","0.0-471.0","9ocxe3ob","1536","864","","","","","","","","","","","null","+","Fixation - short","","null","","","","","","","","","","","","",""
"","html-keyboard-response","303","664212","0.0-472.0","9ocxe3ob","1536","864","","","","","","","","","","","439","bgi","Diagnostic trial","","f","7","3","false","false","LEFT","f","1","","LEFT","true","","",""
"","html-keyboard-response","304","664976","0.0-475.0","9ocxe3ob","1536","864","","","","","","","","","","","null","+","Fixation - short","","null","","","","","","","","","","","","",""
"","html-keyboard-response","305","665948","0.0-476.0","9ocxe3ob","1536","864","","","","","","","","","","","970","feg","Diagnostic trial","","f","7","4","false","false","LEFT","f","1","","RIGHT","false","","",""
"","html-keyboard-response","306","666705","0.0-479.0","9ocxe3ob","1536","864","","","","","","","","","","","null","+","Fixation - short","","null","","","","","","","","","","","","",""
"","html-keyboard-response","307","667156","0.0-480.0","9ocxe3ob","1536","864","","","","","","","","","","","449","feg","Diagnostic trial","","f","7","5","false","false","LEFT","f","1","","RIGHT","false","","",""
"","html-keyboard-response","308","667918","0.0-483.0","9ocxe3ob","1536","864","","","","","","","","","","","null","+","Fixation - short","","null","","","","","","","","","","","","",""
"","html-keyboard-response","309","669275","0.0-484.0","9ocxe3ob","1536","864","","","","","","","","","","","1356","feg","Inducer trial","","f","7","","true","","","f","1","LEFT","","","","",""
"","html-keyboard-response","310","670782","0.0-487.0","9ocxe3ob","1536","864","","","","","","","","","","","null","+","Fixation - long","","null","","","","","","","","","","","","",""
"","html-keyboard-response","311","672360","0.0-488.0","9ocxe3ob","1536","864","","","","","","","","","","","1577","If psl press RIGHT | If dpa press LEFT","Inducer instructions",""," ","8","","","","","","","","","","","",""
"","html-keyboard-response","312","673121","0.0-489.0","9ocxe3ob","1536","864","","","","","","","","","","","null","+","Fixation - short","","null","","","","","","","","","","","","",""
"","html-keyboard-response","313","674018","0.0-490.0","9ocxe3ob","1536","864","","","","","","","","","","","896","dpa","Diagnostic trial","","j","8","0","false","true","RIGHT","j","1","","RIGHT","true","","",""
"","html-keyboard-response","314","674769","0.0-493.0","9ocxe3ob","1536","864","","","","","","","","","","","null","+","Fixation - short","","null","","","","","","","","","","","","",""
"","html-keyboard-response","315","675498","0.0-494.0","9ocxe3ob","1536","864","","","","","","","","","","","728","psl","Diagnostic trial","","j","8","1","false","true","RIGHT","j","1","","LEFT","false","","",""
"","html-keyboard-response","316","676258","0.0-497.0","9ocxe3ob","1536","864","","","","","","","","","","","null","+","Fixation - short","","null","","","","","","","","","","","","",""
"","html-keyboard-response","317","677026","0.0-498.0","9ocxe3ob","1536","864","","","","","","","","","","","766","dpa","Diagnostic trial","","j","8","2","false","true","RIGHT","j","1","","RIGHT","true","","",""
"","html-keyboard-response","318","677792","0.0-501.0","9ocxe3ob","1536","864","","","","","","","","","","","null","+","Fixation - short","","null","","","","","","","","","","","","",""
"","html-keyboard-response","319","678666","0.0-502.0","9ocxe3ob","1536","864","","","","","","","","","","","872","psl","Diagnostic trial","","f","8","3","false","false","LEFT","f","1","","LEFT","true","","",""
"","html-keyboard-response","320","679430","0.0-505.0","9ocxe3ob","1536","864","","","","","","","","","","","null","+","Fixation - short","","null","","","","","","","","","","","","",""
"","html-keyboard-response","321","679988","0.0-506.0","9ocxe3ob","1536","864","","","","","","","","","","","557","psl","Diagnostic trial","","f","8","4","false","false","LEFT","f","1","","LEFT","true","","",""
"","html-keyboard-response","322","680755","0.0-509.0","9ocxe3ob","1536","864","","","","","","","","","","","null","+","Fixation - short","","null","","","","","","","","","","","","",""
"","html-keyboard-response","323","681356","0.0-510.0","9ocxe3ob","1536","864","","","","","","","","","","","600","dpa","Diagnostic trial","","f","8","5","false","false","LEFT","f","1","","RIGHT","false","","",""
"","html-keyboard-response","324","682121","0.0-513.0","9ocxe3ob","1536","864","","","","","","","","","","","null","+","Fixation - short","","null","","","","","","","","","","","","",""
"","html-keyboard-response","325","682688","0.0-514.0","9ocxe3ob","1536","864","","","","","","","","","","","565","psl","Diagnostic trial","","f","8","6","false","false","LEFT","f","1","","LEFT","true","","",""
"","html-keyboard-response","326","683455","0.0-517.0","9ocxe3ob","1536","864","","","","","","","","","","","null","+","Fixation - short","","null","","","","","","","","","","","","",""
"","html-keyboard-response","327","684142","0.0-518.0","9ocxe3ob","1536","864","","","","","","","","","","","687","dpa","Diagnostic trial","","j","8","7","false","true","RIGHT","j","1","","RIGHT","true","","",""
"","html-keyboard-response","328","684894","0.0-521.0","9ocxe3ob","1536","864","","","","","","","","","","","null","+","Fixation - short","","null","","","","","","","","","","","","",""
"","html-keyboard-response","329","685487","0.0-522.0","9ocxe3ob","1536","864","","","","","","","","","","","592","psl","Diagnostic trial","","j","8","8","false","true","RIGHT","j","1","","LEFT","false","","",""
"","html-keyboard-response","330","686243","0.0-525.0","9ocxe3ob","1536","864","","","","","","","","","","","null","+","Fixation - short","","null","","","","","","","","","","","","",""
"","html-keyboard-response","331","686821","0.0-526.0","9ocxe3ob","1536","864","","","","","","","","","","","577","dpa","Diagnostic trial","","f","8","9","false","false","LEFT","f","1","","RIGHT","false","","",""
"","html-keyboard-response","332","687583","0.0-529.0","9ocxe3ob","1536","864","","","","","","","","","","","null","+","Fixation - short","","null","","","","","","","","","","","","",""
"","html-keyboard-response","333","688375","0.0-530.0","9ocxe3ob","1536","864","","","","","","","","","","","791","psl","Diagnostic trial","","f","8","10","false","false","LEFT","f","1","","LEFT","true","","",""
"","html-keyboard-response","334","689130","0.0-533.0","9ocxe3ob","1536","864","","","","","","","","","","","null","+","Fixation - short","","null","","","","","","","","","","","","",""
"","html-keyboard-response","335","689731","0.0-534.0","9ocxe3ob","1536","864","","","","","","","","","","","599","psl","Diagnostic trial","","j","8","11","false","true","RIGHT","j","1","","LEFT","false","","",""
"","html-keyboard-response","336","690488","0.0-537.0","9ocxe3ob","1536","864","","","","","","","","","","","null","+","Fixation - short","","null","","","","","","","","","","","","",""
"","html-keyboard-response","337","691092","0.0-538.0","9ocxe3ob","1536","864","","","","","","","","","","","603","psl","Diagnostic trial","","j","8","12","false","true","RIGHT","j","1","","LEFT","false","","",""
"","html-keyboard-response","338","691846","0.0-541.0","9ocxe3ob","1536","864","","","","","","","","","","","null","+","Fixation - short","","null","","","","","","","","","","","","",""
"","html-keyboard-response","339","692347","0.0-542.0","9ocxe3ob","1536","864","","","","","","","","","","","500","dpa","Diagnostic trial","","f","8","13","false","false","LEFT","f","1","","RIGHT","false","","",""
"","html-keyboard-response","340","693111","0.0-545.0","9ocxe3ob","1536","864","","","","","","","","","","","null","+","Fixation - short","","null","","","","","","","","","","","","",""
"","html-keyboard-response","341","693666","0.0-546.0","9ocxe3ob","1536","864","","","","","","","","","","","553","psl","Diagnostic trial","","j","8","14","false","true","RIGHT","j","1","","LEFT","false","","",""
"","html-keyboard-response","342","694419","0.0-549.0","9ocxe3ob","1536","864","","","","","","","","","","","null","+","Fixation - short","","null","","","","","","","","","","","","",""
"","html-keyboard-response","343","694935","0.0-550.0","9ocxe3ob","1536","864","","","","","","","","","","","515","dpa","Diagnostic trial","","f","8","15","false","false","LEFT","f","1","","RIGHT","false","","",""
"","html-keyboard-response","344","695691","0.0-553.0","9ocxe3ob","1536","864","","","","","","","","","","","null","+","Fixation - short","","null","","","","","","","","","","","","",""
"","html-keyboard-response","345","696820","0.0-554.0","9ocxe3ob","1536","864","","","","","","","","","","","1128","psl","Inducer trial","","j","8","","true","","","j","1","RIGHT","","","","",""
"","html-keyboard-response","346","698329","0.0-557.0","9ocxe3ob","1536","864","","","","","","","","","","","null","+","Fixation - long","","null","","","","","","","","","","","","",""
"","html-keyboard-response","347","702809","0.0-558.0","9ocxe3ob","1536","864","","","","","","","","","","","4479","If gso press RIGHT | If byy press LEFT","Inducer instructions",""," ","9","","","","","","","","","","","",""
"","html-keyboard-response","348","703574","0.0-559.0","9ocxe3ob","1536","864","","","","","","","","","","","null","+","Fixation - short","","null","","","","","","","","","","","","",""
"","html-keyboard-response","349","704791","0.0-560.0","9ocxe3ob","1536","864","","","","","","","","","","","1216","gso","Diagnostic trial","","f","9","0","false","false","LEFT","f","1","","LEFT","true","","",""
"","html-keyboard-response","350","705558","0.0-563.0","9ocxe3ob","1536","864","","","","","","","","","","","null","+","Fixation - short","","null","","","","","","","","","","","","",""
"","html-keyboard-response","351","706053","0.0-564.0","9ocxe3ob","1536","864","","","","","","","","","","","494","gso","Diagnostic trial","","j","9","1","false","true","RIGHT","j","1","","LEFT","false","","",""
"","html-keyboard-response","352","706811","0.0-567.0","9ocxe3ob","1536","864","","","","","","","","","","","null","+","Fixation - short","","null","","","","","","","","","","","","",""
"","html-keyboard-response","353","708017","0.0-568.0","9ocxe3ob","1536","864","","","","","","","","","","","1206","byy","Diagnostic trial","","j","9","2","false","true","RIGHT","j","1","","RIGHT","true","","",""
"","html-keyboard-response","354","708782","0.0-571.0","9ocxe3ob","1536","864","","","","","","","","","","","null","+","Fixation - short","","null","","","","","","","","","","","","",""
"","html-keyboard-response","355","709998","0.0-572.0","9ocxe3ob","1536","864","","","","","","","","","","","1214","gso","Diagnostic trial","","f","9","3","false","false","LEFT","f","1","","LEFT","true","","",""
"","html-keyboard-response","356","710763","0.0-575.0","9ocxe3ob","1536","864","","","","","","","","","","","null","+","Fixation - short","","null","","","","","","","","","","","","",""
"","html-keyboard-response","357","712372","0.0-576.0","9ocxe3ob","1536","864","","","","","","","","","","","1608","gso","Inducer trial","","j","9","","true","","","j","1","RIGHT","","","","",""
"","html-keyboard-response","358","713879","0.0-579.0","9ocxe3ob","1536","864","","","","","","","","","","","null","+","Fixation - long","","null","","","","","","","","","","","","",""
"","html-keyboard-response","359","715162","0.0-580.0","9ocxe3ob","1536","864","","","","","","","","","","","1282","If nga press RIGHT | If eht press LEFT","Inducer instructions",""," ","10","","","","","","","","","","","",""
"","html-keyboard-response","360","715926","0.0-581.0","9ocxe3ob","1536","864","","","","","","","","","","","null","+","Fixation - short","","null","","","","","","","","","","","","",""
"","html-keyboard-response","361","716603","0.0-582.0","9ocxe3ob","1536","864","","","","","","","","","","","676","nga","Diagnostic trial","","j","10","0","false","true","RIGHT","j","1","","LEFT","false","","",""
"","html-keyboard-response","362","717361","0.0-585.0","9ocxe3ob","1536","864","","","","","","","","","","","null","+","Fixation - short","","null","","","","","","","","","","","","",""
"","html-keyboard-response","363","718528","0.0-586.0","9ocxe3ob","1536","864","","","","","","","","","","","1166","nga","Diagnostic trial","","f","10","1","false","false","LEFT","f","1","","LEFT","true","","",""
"","html-keyboard-response","364","719288","0.0-589.0","9ocxe3ob","1536","864","","","","","","","","","","","null","+","Fixation - short","","null","","","","","","","","","","","","",""
"","html-keyboard-response","365","720306","0.0-590.0","9ocxe3ob","1536","864","","","","","","","","","","","1016","nga","Diagnostic trial","","j","10","2","false","true","RIGHT","j","1","","LEFT","false","","",""
"","html-keyboard-response","366","721070","0.0-593.0","9ocxe3ob","1536","864","","","","","","","","","","","null","+","Fixation - short","","null","","","","","","","","","","","","",""
"","html-keyboard-response","367","721890","0.0-594.0","9ocxe3ob","1536","864","","","","","","","","","","","819","eht","Diagnostic trial","","j","10","3","false","true","RIGHT","j","1","","RIGHT","true","","",""
"","html-keyboard-response","368","722651","0.0-597.0","9ocxe3ob","1536","864","","","","","","","","","","","null","+","Fixation - short","","null","","","","","","","","","","","","",""
"","html-keyboard-response","369","723465","0.0-598.0","9ocxe3ob","1536","864","","","","","","","","","","","813","nga","Diagnostic trial","","j","10","4","false","true","RIGHT","j","1","","LEFT","false","","",""
"","html-keyboard-response","370","724225","0.0-601.0","9ocxe3ob","1536","864","","","","","","","","","","","null","+","Fixation - short","","null","","","","","","","","","","","","",""
"","html-keyboard-response","371","724942","0.0-602.0","9ocxe3ob","1536","864","","","","","","","","","","","716","nga","Diagnostic trial","","f","10","5","false","false","LEFT","f","1","","LEFT","true","","",""
"","html-keyboard-response","372","725707","0.0-605.0","9ocxe3ob","1536","864","","","","","","","","","","","null","+","Fixation - short","","null","","","","","","","","","","","","",""
"","html-keyboard-response","373","726400","0.0-606.0","9ocxe3ob","1536","864","","","","","","","","","","","692","eht","Diagnostic trial","","j","10","6","false","true","RIGHT","j","1","","RIGHT","true","","",""
"","html-keyboard-response","374","727158","0.0-609.0","9ocxe3ob","1536","864","","","","","","","","","","","null","+","Fixation - short","","null","","","","","","","","","","","","",""
"","html-keyboard-response","375","728104","0.0-610.0","9ocxe3ob","1536","864","","","","","","","","","","","945","nga","Diagnostic trial","","f","10","7","false","false","LEFT","f","1","","LEFT","true","","",""
"","html-keyboard-response","376","728860","0.0-613.0","9ocxe3ob","1536","864","","","","","","","","","","","null","+","Fixation - short","","null","","","","","","","","","","","","",""
"","html-keyboard-response","377","729563","0.0-614.0","9ocxe3ob","1536","864","","","","","","","","","","","701","nga","Diagnostic trial","","j","10","8","false","true","RIGHT","j","1","","LEFT","false","","",""
"","html-keyboard-response","378","730318","0.0-617.0","9ocxe3ob","1536","864","","","","","","","","","","","null","+","Fixation - short","","null","","","","","","","","","","","","",""
"","html-keyboard-response","379","731020","0.0-618.0","9ocxe3ob","1536","864","","","","","","","","","","","701","eht","Diagnostic trial","","f","10","9","false","false","LEFT","f","1","","RIGHT","false","","",""
"","html-keyboard-response","380","731774","0.0-621.0","9ocxe3ob","1536","864","","","","","","","","","","","null","+","Fixation - short","","null","","","","","","","","","","","","",""
"","html-keyboard-response","381","732582","0.0-622.0","9ocxe3ob","1536","864","","","","","","","","","","","807","nga","Diagnostic trial","","j","10","10","false","true","RIGHT","j","1","","LEFT","false","","",""
"","html-keyboard-response","382","733343","0.0-625.0","9ocxe3ob","1536","864","","","","","","","","","","","null","+","Fixation - short","","null","","","","","","","","","","","","",""
"","html-keyboard-response","383","733927","0.0-626.0","9ocxe3ob","1536","864","","","","","","","","","","","583","nga","Diagnostic trial","","j","10","11","false","true","RIGHT","j","1","","LEFT","false","","",""
"","html-keyboard-response","384","734680","0.0-629.0","9ocxe3ob","1536","864","","","","","","","","","","","null","+","Fixation - short","","null","","","","","","","","","","","","",""
"","html-keyboard-response","385","735730","0.0-630.0","9ocxe3ob","1536","864","","","","","","","","","","","1049","eht","Inducer trial","","f","10","","true","","","f","1","LEFT","","","","",""
"","html-keyboard-response","386","737237","0.0-633.0","9ocxe3ob","1536","864","","","","","","","","","","","null","+","Fixation - long","","null","","","","","","","","","","","","",""
"","html-keyboard-response","387","743831","0.0-634.0","9ocxe3ob","1536","864","","","","","","","","","","","6606","If ecl press RIGHT | If goj press LEFT","Inducer instructions",""," ","11","","","","","","","","","","","",""
"","html-keyboard-response","388","744590","0.0-635.0","9ocxe3ob","1536","864","","","","","","","","","","","null","+","Fixation - short","","null","","","","","","","","","","","","",""
"","html-keyboard-response","389","745513","0.0-636.0","9ocxe3ob","1536","864","","","","","","","","","","","922","ecl","Diagnostic trial","","j","11","0","false","false","LEFT","f","0","","LEFT","true","","",""
"","call-function","390","745514","0.0-638.0-0.0","9ocxe3ob","","","","","","","","","","","","","","","","","","","","","","","","","","","","","",""
"","html-keyboard-response","391","745819","0.0-638.0-1.0","9ocxe3ob","1536","864","","","","","","","","","","","null","Wrong","Feedback","","null","","","","","","","","","","","","",""
"","call-function","392","745820","0.0-638.0-2.0","9ocxe3ob","","","","","","","","","","","","","","","","","","","","","","","","","","","","","",""
"","html-keyboard-response","393","746575","0.0-639.0","9ocxe3ob","1536","864","","","","","","","","","","","null","+","Fixation - short","","null","","","","","","","","","","","","",""
"","html-keyboard-response","394","747314","0.0-640.0","9ocxe3ob","1536","864","","","","","","","","","","","738","ecl","Diagnostic trial","","j","11","1","false","true","RIGHT","j","1","","LEFT","false","","",""
"","html-keyboard-response","395","748069","0.0-643.0","9ocxe3ob","1536","864","","","","","","","","","","","null","+","Fixation - short","","null","","","","","","","","","","","","",""
"","html-keyboard-response","396","748859","0.0-644.0","9ocxe3ob","1536","864","","","","","","","","","","","789","ecl","Diagnostic trial","","f","11","2","false","false","LEFT","f","1","","LEFT","true","","",""
"","html-keyboard-response","397","749625","0.0-647.0","9ocxe3ob","1536","864","","","","","","","","","","","null","+","Fixation - short","","null","","","","","","","","","","","","",""
"","html-keyboard-response","398","750234","0.0-648.0","9ocxe3ob","1536","864","","","","","","","","","","","607","ecl","Diagnostic trial","","f","11","3","false","false","LEFT","f","1","","LEFT","true","","",""
"","html-keyboard-response","399","750990","0.0-651.0","9ocxe3ob","1536","864","","","","","","","","","","","null","+","Fixation - short","","null","","","","","","","","","","","","",""
"","html-keyboard-response","400","751689","0.0-652.0","9ocxe3ob","1536","864","","","","","","","","","","","698","goj","Diagnostic trial","","j","11","4","false","true","RIGHT","j","1","","RIGHT","true","","",""
"","html-keyboard-response","401","752446","0.0-655.0","9ocxe3ob","1536","864","","","","","","","","","","","null","+","Fixation - short","","null","","","","","","","","","","","","",""
"","html-keyboard-response","402","753378","0.0-656.0","9ocxe3ob","1536","864","","","","","","","","","","","930","goj","Diagnostic trial","","f","11","5","false","false","LEFT","f","1","","RIGHT","false","","",""
"","html-keyboard-response","403","754141","0.0-659.0","9ocxe3ob","1536","864","","","","","","","","","","","null","+","Fixation - short","","null","","","","","","","","","","","","",""
"","html-keyboard-response","404","754766","0.0-660.0","9ocxe3ob","1536","864","","","","","","","","","","","623","goj","Diagnostic trial","","j","11","6","false","true","RIGHT","j","1","","RIGHT","true","","",""
"","html-keyboard-response","405","755519","0.0-663.0","9ocxe3ob","1536","864","","","","","","","","","","","null","+","Fixation - short","","null","","","","","","","","","","","","",""
"","html-keyboard-response","406","756627","0.0-664.0","9ocxe3ob","1536","864","","","","","","","","","","","1107","goj","Diagnostic trial","","f","11","7","false","false","LEFT","f","1","","RIGHT","false","","",""
"","html-keyboard-response","407","757378","0.0-667.0","9ocxe3ob","1536","864","","","","","","","","","","","null","+","Fixation - short","","null","","","","","","","","","","","","",""
"","html-keyboard-response","408","758367","0.0-668.0","9ocxe3ob","1536","864","","","","","","","","","","","988","ecl","Diagnostic trial","","j","11","8","false","true","RIGHT","j","1","","LEFT","false","","",""
"","html-keyboard-response","409","759122","0.0-671.0","9ocxe3ob","1536","864","","","","","","","","","","","null","+","Fixation - short","","null","","","","","","","","","","","","",""
"","html-keyboard-response","410","759754","0.0-672.0","9ocxe3ob","1536","864","","","","","","","","","","","630","ecl","Diagnostic trial","","j","11","9","false","true","RIGHT","j","1","","LEFT","false","","",""
"","html-keyboard-response","411","760521","0.0-675.0","9ocxe3ob","1536","864","","","","","","","","","","","null","+","Fixation - short","","null","","","","","","","","","","","","",""
"","html-keyboard-response","412","761174","0.0-676.0","9ocxe3ob","1536","864","","","","","","","","","","","652","goj","Diagnostic trial","","f","11","10","false","false","LEFT","f","1","","RIGHT","false","","",""
"","html-keyboard-response","413","761938","0.0-679.0","9ocxe3ob","1536","864","","","","","","","","","","","null","+","Fixation - short","","null","","","","","","","","","","","","",""
"","html-keyboard-response","414","762657","0.0-680.0","9ocxe3ob","1536","864","","","","","","","","","","","718","ecl","Diagnostic trial","","f","11","11","false","false","LEFT","f","1","","LEFT","true","","",""
"","html-keyboard-response","415","763411","0.0-683.0","9ocxe3ob","1536","864","","","","","","","","","","","null","+","Fixation - short","","null","","","","","","","","","","","","",""
"","html-keyboard-response","416","764756","0.0-684.0","9ocxe3ob","1536","864","","","","","","","","","","","1345","goj","Inducer trial","","f","11","","true","","","f","1","LEFT","","","","",""
"","html-keyboard-response","417","766269","0.0-687.0","9ocxe3ob","1536","864","","","","","","","","","","","null","+","Fixation - long","","null","","","","","","","","","","","","",""
"","html-keyboard-response","418","786278","0.0-688.0","9ocxe3ob","1536","864","","","","","","","","","","","null","If afp press RIGHT | If crf press LEFT","Inducer instructions","","null","12","","","","","","","","","","","",""
"","html-keyboard-response","419","787035","0.0-689.0","9ocxe3ob","1536","864","","","","","","","","","","","null","+","Fixation - short","","null","","","","","","","","","","","","",""
"","html-keyboard-response","420","788031","0.0-690.0","9ocxe3ob","1536","864","","","","","","","","","","","995","afp","Diagnostic trial","","f","12","0","false","false","LEFT","f","1","","LEFT","true","","",""
"","html-keyboard-response","421","788791","0.0-693.0","9ocxe3ob","1536","864","","","","","","","","","","","null","+","Fixation - short","","null","","","","","","","","","","","","",""
"","html-keyboard-response","422","789487","0.0-694.0","9ocxe3ob","1536","864","","","","","","","","","","","694","crf","Diagnostic trial","","j","12","1","false","true","RIGHT","j","1","","RIGHT","true","","",""
"","html-keyboard-response","423","790240","0.0-697.0","9ocxe3ob","1536","864","","","","","","","","","","","null","+","Fixation - short","","null","","","","","","","","","","","","",""
"","html-keyboard-response","424","790990","0.0-698.0","9ocxe3ob","1536","864","","","","","","","","","","","749","crf","Diagnostic trial","","f","12","2","false","false","LEFT","f","1","","RIGHT","false","","",""
"","html-keyboard-response","425","791756","0.0-701.0","9ocxe3ob","1536","864","","","","","","","","","","","null","+","Fixation - short","","null","","","","","","","","","","","","",""
"","html-keyboard-response","426","792803","0.0-702.0","9ocxe3ob","1536","864","","","","","","","","","","","1046","crf","Diagnostic trial","","f","12","3","false","false","LEFT","f","1","","RIGHT","false","","",""
"","html-keyboard-response","427","793561","0.0-705.0","9ocxe3ob","1536","864","","","","","","","","","","","null","+","Fixation - short","","null","","","","","","","","","","","","",""
"","html-keyboard-response","428","794110","0.0-706.0","9ocxe3ob","1536","864","","","","","","","","","","","548","afp","Diagnostic trial","","j","12","4","false","true","RIGHT","j","1","","LEFT","false","","",""
"","html-keyboard-response","429","794868","0.0-709.0","9ocxe3ob","1536","864","","","","","","","","","","","null","+","Fixation - short","","null","","","","","","","","","","","","",""
"","html-keyboard-response","430","795675","0.0-710.0","9ocxe3ob","1536","864","","","","","","","","","","","805","crf","Diagnostic trial","","f","12","5","false","false","LEFT","f","1","","RIGHT","false","","",""
"","html-keyboard-response","431","796431","0.0-713.0","9ocxe3ob","1536","864","","","","","","","","","","","null","+","Fixation - short","","null","","","","","","","","","","","","",""
"","html-keyboard-response","432","797068","0.0-714.0","9ocxe3ob","1536","864","","","","","","","","","","","636","afp","Diagnostic trial","","j","12","6","false","false","LEFT","f","0","","LEFT","true","","",""
"","call-function","433","797069","0.0-716.0-0.0","9ocxe3ob","","","","","","","","","","","","","","","","","","","","","","","","","","","","","",""
"","html-keyboard-response","434","797373","0.0-716.0-1.0","9ocxe3ob","1536","864","","","","","","","","","","","null","Wrong","Feedback","","null","","","","","","","","","","","","",""
"","call-function","435","797374","0.0-716.0-2.0","9ocxe3ob","","","","","","","","","","","","","","","","","","","","","","","","","","","","","",""
"","html-keyboard-response","436","798131","0.0-717.0","9ocxe3ob","1536","864","","","","","","","","","","","null","+","Fixation - short","","null","","","","","","","","","","","","",""
"","html-keyboard-response","437","798894","0.0-718.0","9ocxe3ob","1536","864","","","","","","","","","","","761","afp","Diagnostic trial","","f","12","7","false","false","LEFT","f","1","","LEFT","true","","",""
"","html-keyboard-response","438","799657","0.0-721.0","9ocxe3ob","1536","864","","","","","","","","","","","null","+","Fixation - short","","null","","","","","","","","","","","","",""
"","html-keyboard-response","439","800067","0.0-722.0","9ocxe3ob","1536","864","","","","","","","","","","","409","afp","Diagnostic trial","","f","12","8","false","false","LEFT","f","1","","LEFT","true","","",""
"","html-keyboard-response","440","800830","0.0-725.0","9ocxe3ob","1536","864","","","","","","","","","","","null","+","Fixation - short","","null","","","","","","","","","","","","",""
"","html-keyboard-response","441","801444","0.0-726.0","9ocxe3ob","1536","864","","","","","","","","","","","613","afp","Diagnostic trial","","j","12","9","false","true","RIGHT","j","1","","LEFT","false","","",""
"","html-keyboard-response","442","802209","0.0-729.0","9ocxe3ob","1536","864","","","","","","","","","","","null","+","Fixation - short","","null","","","","","","","","","","","","",""
"","html-keyboard-response","443","803057","0.0-730.0","9ocxe3ob","1536","864","","","","","","","","","","","847","crf","Diagnostic trial","","f","12","10","false","false","LEFT","f","1","","RIGHT","false","","",""
"","html-keyboard-response","444","803818","0.0-733.0","9ocxe3ob","1536","864","","","","","","","","","","","null","+","Fixation - short","","null","","","","","","","","","","","","",""
"","html-keyboard-response","445","804714","0.0-734.0","9ocxe3ob","1536","864","","","","","","","","","","","882","afp","Diagnostic trial","","j","12","11","false","true","RIGHT","j","1","","LEFT","false","","",""
"","html-keyboard-response","446","805470","0.0-737.0","9ocxe3ob","1536","864","","","","","","","","","","","null","+","Fixation - short","","null","","","","","","","","","","","","",""
"","html-keyboard-response","447","806192","0.0-738.0","9ocxe3ob","1536","864","","","","","","","","","","","720","crf","Diagnostic trial","","j","12","12","false","true","RIGHT","j","1","","RIGHT","true","","",""
"","html-keyboard-response","448","806951","0.0-741.0","9ocxe3ob","1536","864","","","","","","","","","","","null","+","Fixation - short","","null","","","","","","","","","","","","",""
"","html-keyboard-response","449","807725","0.0-742.0","9ocxe3ob","1536","864","","","","","","","","","","","774","afp","Inducer trial","","f","12","","true","","","j","0","RIGHT","","","","",""
"","call-function","450","807726","0.0-744.0-0.0","9ocxe3ob","","","","","","","","","","","","","","","","","","","","","","","","","","","","","",""
"","html-keyboard-response","451","808038","0.0-744.0-1.0","9ocxe3ob","1536","864","","","","","","","","","","","null","Wrong","Feedback","","null","","","","","","","","","","","","",""
"","call-function","452","808038","0.0-744.0-2.0","9ocxe3ob","","","","","","","","","","","","","","","","","","","","","","","","","","","","","",""
"","html-keyboard-response","453","809548","0.0-745.0","9ocxe3ob","1536","864","","","","","","","","","","","null","+","Fixation - long","","null","","","","","","","","","","","","",""
"","html-keyboard-response","454","811894","0.0-746.0","9ocxe3ob","1536","864","","","","","","","","","","","2345","If fja press RIGHT | If otr press LEFT","Inducer instructions",""," ","13","","","","","","","","","","","",""
"","html-keyboard-response","455","812655","0.0-747.0","9ocxe3ob","1536","864","","","","","","","","","","","null","+","Fixation - short","","null","","","","","","","","","","","","",""
"","html-keyboard-response","456","814346","0.0-748.0","9ocxe3ob","1536","864","","","","","","","","","","","1691","fja","Diagnostic trial","","j","13","0","false","true","RIGHT","j","1","","LEFT","false","","",""
"","html-keyboard-response","457","815108","0.0-751.0","9ocxe3ob","1536","864","","","","","","","","","","","null","+","Fixation - short","","null","","","","","","","","","","","","",""
"","html-keyboard-response","458","816690","0.0-752.0","9ocxe3ob","1536","864","","","","","","","","","","","1581","otr","Diagnostic trial","","f","13","1","false","false","LEFT","f","1","","RIGHT","false","","",""
"","html-keyboard-response","459","817447","0.0-755.0","9ocxe3ob","1536","864","","","","","","","","","","","null","+","Fixation - short","","null","","","","","","","","","","","","",""
"","html-keyboard-response","460","818634","0.0-756.0","9ocxe3ob","1536","864","","","","","","","","","","","1186","fja","Diagnostic trial","","f","13","2","false","false","LEFT","f","1","","LEFT","true","","",""
"","html-keyboard-response","461","819387","0.0-759.0","9ocxe3ob","1536","864","","","","","","","","","","","null","+","Fixation - short","","null","","","","","","","","","","","","",""
"","html-keyboard-response","462","820804","0.0-760.0","9ocxe3ob","1536","864","","","","","","","","","","","1416","otr","Diagnostic trial","","j","13","3","false","true","RIGHT","j","1","","RIGHT","true","","",""
"","html-keyboard-response","463","821560","0.0-763.0","9ocxe3ob","1536","864","","","","","","","","","","","null","+","Fixation - short","","null","","","","","","","","","","","","",""
"","html-keyboard-response","464","822221","0.0-764.0","9ocxe3ob","1536","864","","","","","","","","","","","661","otr","Diagnostic trial","","j","13","4","false","true","RIGHT","j","1","","RIGHT","true","","",""
"","html-keyboard-response","465","822982","0.0-767.0","9ocxe3ob","1536","864","","","","","","","","","","","null","+","Fixation - short","","null","","","","","","","","","","","","",""
"","html-keyboard-response","466","824041","0.0-768.0","9ocxe3ob","1536","864","","","","","","","","","","","1057","otr","Diagnostic trial","","j","13","5","false","true","RIGHT","j","1","","RIGHT","true","","",""
"","html-keyboard-response","467","824807","0.0-771.0","9ocxe3ob","1536","864","","","","","","","","","","","null","+","Fixation - short","","null","","","","","","","","","","","","",""
"","html-keyboard-response","468","825954","0.0-772.0","9ocxe3ob","1536","864","","","","","","","","","","","1146","fja","Diagnostic trial","","f","13","6","false","false","LEFT","f","1","","LEFT","true","","",""
"","html-keyboard-response","469","826712","0.0-775.0","9ocxe3ob","1536","864","","","","","","","","","","","null","+","Fixation - short","","null","","","","","","","","","","","","",""
"","html-keyboard-response","470","827764","0.0-776.0","9ocxe3ob","1536","864","","","","","","","","","","","1051","fja","Diagnostic trial","","j","13","7","false","true","RIGHT","j","1","","LEFT","false","","",""
"","html-keyboard-response","471","828530","0.0-779.0","9ocxe3ob","1536","864","","","","","","","","","","","null","+","Fixation - short","","null","","","","","","","","","","","","",""
"","html-keyboard-response","472","829172","0.0-780.0","9ocxe3ob","1536","864","","","","","","","","","","","641","fja","Diagnostic trial","","j","13","8","false","true","RIGHT","j","1","","LEFT","false","","",""
"","html-keyboard-response","473","829930","0.0-783.0","9ocxe3ob","1536","864","","","","","","","","","","","null","+","Fixation - short","","null","","","","","","","","","","","","",""
"","html-keyboard-response","474","830568","0.0-784.0","9ocxe3ob","1536","864","","","","","","","","","","","637","otr","Diagnostic trial","","j","13","9","false","true","RIGHT","j","1","","RIGHT","true","","",""
"","html-keyboard-response","475","831333","0.0-787.0","9ocxe3ob","1536","864","","","","","","","","","","","null","+","Fixation - short","","null","","","","","","","","","","","","",""
"","html-keyboard-response","476","832027","0.0-788.0","9ocxe3ob","1536","864","","","","","","","","","","","693","otr","Diagnostic trial","","j","13","10","false","true","RIGHT","j","1","","RIGHT","true","","",""
"","html-keyboard-response","477","832789","0.0-791.0","9ocxe3ob","1536","864","","","","","","","","","","","null","+","Fixation - short","","null","","","","","","","","","","","","",""
"","html-keyboard-response","478","833417","0.0-792.0","9ocxe3ob","1536","864","","","","","","","","","","","627","otr","Diagnostic trial","","f","13","11","false","false","LEFT","f","1","","RIGHT","false","","",""
"","html-keyboard-response","479","834170","0.0-795.0","9ocxe3ob","1536","864","","","","","","","","","","","null","+","Fixation - short","","null","","","","","","","","","","","","",""
"","html-keyboard-response","480","834935","0.0-796.0","9ocxe3ob","1536","864","","","","","","","","","","","763","fja","Diagnostic trial","","f","13","12","false","false","LEFT","f","1","","LEFT","true","","",""
"","html-keyboard-response","481","835686","0.0-799.0","9ocxe3ob","1536","864","","","","","","","","","","","null","+","Fixation - short","","null","","","","","","","","","","","","",""
"","html-keyboard-response","482","836230","0.0-800.0","9ocxe3ob","1536","864","","","","","","","","","","","543","fja","Diagnostic trial","","f","13","13","false","false","LEFT","f","1","","LEFT","true","","",""
"","html-keyboard-response","483","836988","0.0-803.0","9ocxe3ob","1536","864","","","","","","","","","","","null","+","Fixation - short","","null","","","","","","","","","","","","",""
"","html-keyboard-response","484","837687","0.0-804.0","9ocxe3ob","1536","864","","","","","","","","","","","698","otr","Diagnostic trial","","f","13","14","false","false","LEFT","f","1","","RIGHT","false","","",""
"","html-keyboard-response","485","838445","0.0-807.0","9ocxe3ob","1536","864","","","","","","","","","","","null","+","Fixation - short","","null","","","","","","","","","","","","",""
"","html-keyboard-response","486","839089","0.0-808.0","9ocxe3ob","1536","864","","","","","","","","","","","644","fja","Diagnostic trial","","j","13","15","false","true","RIGHT","j","1","","LEFT","false","","",""
"","html-keyboard-response","487","839849","0.0-811.0","9ocxe3ob","1536","864","","","","","","","","","","","null","+","Fixation - short","","null","","","","","","","","","","","","",""
"","html-keyboard-response","488","840493","0.0-812.0","9ocxe3ob","1536","864","","","","","","","","","","","643","otr","Inducer trial","","f","13","","true","","","f","1","LEFT","","","","",""
"","html-keyboard-response","489","842001","0.0-815.0","9ocxe3ob","1536","864","","","","","","","","","","","null","+","Fixation - long","","null","","","","","","","","","","","","",""
"","html-keyboard-response","490","848069","0.0-816.0","9ocxe3ob","1536","864","","","","","","","","","","","6067","If swr press RIGHT | If uus press LEFT","Inducer instructions",""," ","14","","","","","","","","","","","",""
"","html-keyboard-response","491","848832","0.0-817.0","9ocxe3ob","1536","864","","","","","","","","","","","null","+","Fixation - short","","null","","","","","","","","","","","","",""
"","html-keyboard-response","492","849632","0.0-818.0","9ocxe3ob","1536","864","","","","","","","","","","","800","uus","Diagnostic trial","","f","14","0","false","false","LEFT","f","1","","RIGHT","false","","",""
"","html-keyboard-response","493","850390","0.0-821.0","9ocxe3ob","1536","864","","","","","","","","","","","null","+","Fixation - short","","null","","","","","","","","","","","","",""
"","html-keyboard-response","494","851035","0.0-822.0","9ocxe3ob","1536","864","","","","","","","","","","","644","uus","Diagnostic trial","","j","14","1","false","true","RIGHT","j","1","","RIGHT","true","","",""
"","html-keyboard-response","495","851795","0.0-825.0","9ocxe3ob","1536","864","","","","","","","","","","","null","+","Fixation - short","","null","","","","","","","","","","","","",""
"","html-keyboard-response","496","852575","0.0-826.0","9ocxe3ob","1536","864","","","","","","","","","","","779","swr","Diagnostic trial","","j","14","2","false","true","RIGHT","j","1","","LEFT","false","","",""
"","html-keyboard-response","497","853334","0.0-829.0","9ocxe3ob","1536","864","","","","","","","","","","","null","+","Fixation - short","","null","","","","","","","","","","","","",""
"","html-keyboard-response","498","854348","0.0-830.0","9ocxe3ob","1536","864","","","","","","","","","","","1014","uus","Diagnostic trial","","j","14","3","false","true","RIGHT","j","1","","RIGHT","true","","",""
"","html-keyboard-response","499","855105","0.0-833.0","9ocxe3ob","1536","864","","","","","","","","","","","null","+","Fixation - short","","null","","","","","","","","","","","","",""
"","html-keyboard-response","500","856020","0.0-834.0","9ocxe3ob","1536","864","","","","","","","","","","","914","uus","Diagnostic trial","","f","14","4","false","false","LEFT","f","1","","RIGHT","false","","",""
"","html-keyboard-response","501","856776","0.0-837.0","9ocxe3ob","1536","864","","","","","","","","","","","null","+","Fixation - short","","null","","","","","","","","","","","","",""
"","html-keyboard-response","502","857476","0.0-838.0","9ocxe3ob","1536","864","","","","","","","","","","","698","swr","Diagnostic trial","","j","14","5","false","true","RIGHT","j","1","","LEFT","false","","",""
"","html-keyboard-response","503","858236","0.0-841.0","9ocxe3ob","1536","864","","","","","","","","","","","null","+","Fixation - short","","null","","","","","","","","","","","","",""
"","html-keyboard-response","504","858825","0.0-842.0","9ocxe3ob","1536","864","","","","","","","","","","","588","swr","Diagnostic trial","","j","14","6","false","true","RIGHT","j","1","","LEFT","false","","",""
