"value","trial_type","trial_index","time_elapsed","internal_node_id","id","width","height","webaudio","browser","browser_version","mobile","os","fullscreen","vsync_rate","webcam","microphone","view_history","rt","stimulus","trial_info","success","response","inducer_run","diagnostic_run","inducer_trial","italic","correct_diag_response_side","correct_response_key","correct_response","correct_indu_response_side","correct_inducer_response_side","congruent","accuracy","open_feedback","interactive"
"","call-function","0","2","0.0-0.0","uco9hwky","","","","","","","","","","","","","","","","","","","","","","","","","","","","","",""
"","browser-check","1","1015","0.0-1.0","uco9hwky","1920","953","true","chrome","121.0.0","false","Windows 10","true","60.02","false","true","","","","","","","","","","","","","","","","","","",""
"","instructions","2","58510","0.0-2.0","uco9hwky","","","","","","","","","","","","[{""page_index"":0,""viewing_time"":24694},{""page_index"":1,""viewing_time"":16377},{""page_index"":2,""viewing_time"":16424}]","57495","The experiment and consent","The experiment and consent","","","","","","","","","","","","","","",""
"","fullscreen","3","70043","0.0-3.0","uco9hwky","1920","1080","","","","","","","","","","","10519","","Full screen","true","","","","","","","","","","","","","",""
"","instructions","4","99639","0.0-4.0","uco9hwky","1920","1080","","","","","","","","","","[{""page_index"":0,""viewing_time"":21179},{""page_index"":1,""viewing_time"":8416}]","29595","Instructions","Basic overview explanation","","","","","","","","","","","","","","",""
"","html-keyboard-response","5","116712","0.0-5.0","uco9hwky","1920","1080","","","","","","","","","","","15570","If italic press RIGHT | If upright press LEFT","Diagnostic instructions",""," ","","","","","","","","","","","","",""
"","html-keyboard-response","6","117474","0.0-6.0","uco9hwky","1920","1080","","","","","","","","","","","null","+","Fixation - short","","null","","","","","","","","","","","","",""
"","html-keyboard-response","7","118347","0.0-7.0","uco9hwky","1920","1080","","","","","","","","","","","873","ibg","Practice diganostic trial","","j","practice","0","false","1","RIGHT","j","1","","","","","",""
"","html-keyboard-response","8","119113","0.0-10.0","uco9hwky","1920","1080","","","","","","","","","","","null","+","Fixation - short","","null","","","","","","","","","","","","",""
"","html-keyboard-response","9","119912","0.0-11.0","uco9hwky","1920","1080","","","","","","","","","","","798","uen","Practice diganostic trial","","j","practice","1","false","1","RIGHT","j","1","","","","","",""
"","html-keyboard-response","10","120663","0.0-14.0","uco9hwky","1920","1080","","","","","","","","","","","null","+","Fixation - short","","null","","","","","","","","","","","","",""
"","html-keyboard-response","11","121549","0.0-15.0","uco9hwky","1920","1080","","","","","","","","","","","886","uen","Practice diganostic trial","","j","practice","2","false","1","RIGHT","j","1","","","","","",""
"","html-keyboard-response","12","122314","0.0-18.0","uco9hwky","1920","1080","","","","","","","","","","","null","+","Fixation - short","","null","","","","","","","","","","","","",""
"","html-keyboard-response","13","122809","0.0-19.0","uco9hwky","1920","1080","","","","","","","","","","","495","uen","Practice diganostic trial","","f","practice","3","false","0","LEFT","f","1","","","","","",""
"","html-keyboard-response","14","123568","0.0-22.0","uco9hwky","1920","1080","","","","","","","","","","","null","+","Fixation - short","","null","","","","","","","","","","","","",""
"","html-keyboard-response","15","124078","0.0-23.0","uco9hwky","1920","1080","","","","","","","","","","","509","ibg","Practice diganostic trial","","j","practice","4","false","1","RIGHT","j","1","","","","","",""
"","html-keyboard-response","16","124836","0.0-26.0","uco9hwky","1920","1080","","","","","","","","","","","null","+","Fixation - short","","null","","","","","","","","","","","","",""
"","html-keyboard-response","17","125475","0.0-27.0","uco9hwky","1920","1080","","","","","","","","","","","638","ibg","Practice diganostic trial","","j","practice","5","false","1","RIGHT","j","1","","","","","",""
"","html-keyboard-response","18","126226","0.0-30.0","uco9hwky","1920","1080","","","","","","","","","","","null","+","Fixation - short","","null","","","","","","","","","","","","",""
"","html-keyboard-response","19","126776","0.0-31.0","uco9hwky","1920","1080","","","","","","","","","","","549","uen","Practice diganostic trial","","f","practice","6","false","0","LEFT","f","1","","","","","",""
"","html-keyboard-response","20","127531","0.0-34.0","uco9hwky","1920","1080","","","","","","","","","","","null","+","Fixation - short","","null","","","","","","","","","","","","",""
"","html-keyboard-response","21","128279","0.0-35.0","uco9hwky","1920","1080","","","","","","","","","","","747","uen","Practice diganostic trial","","j","practice","7","false","1","RIGHT","j","1","","","","","",""
"","html-keyboard-response","22","129045","0.0-38.0","uco9hwky","1920","1080","","","","","","","","","","","null","+","Fixation - short","","null","","","","","","","","","","","","",""
"","html-keyboard-response","23","129617","0.0-39.0","uco9hwky","1920","1080","","","","","","","","","","","571","uen","Practice diganostic trial","","f","practice","8","false","0","LEFT","f","1","","","","","",""
"","html-keyboard-response","24","130380","0.0-42.0","uco9hwky","1920","1080","","","","","","","","","","","null","+","Fixation - short","","null","","","","","","","","","","","","",""
"","html-keyboard-response","25","130964","0.0-43.0","uco9hwky","1920","1080","","","","","","","","","","","584","uen","Practice diganostic trial","","f","practice","9","false","0","LEFT","f","1","","","","","",""
"","html-keyboard-response","26","131721","0.0-46.0","uco9hwky","1920","1080","","","","","","","","","","","null","+","Fixation - short","","null","","","","","","","","","","","","",""
"","html-keyboard-response","27","132297","0.0-47.0","uco9hwky","1920","1080","","","","","","","","","","","575","uen","Practice diganostic trial","","f","practice","10","false","0","LEFT","f","1","","","","","",""
"","html-keyboard-response","28","133062","0.0-50.0","uco9hwky","1920","1080","","","","","","","","","","","null","+","Fixation - short","","null","","","","","","","","","","","","",""
"","html-keyboard-response","29","133633","0.0-51.0","uco9hwky","1920","1080","","","","","","","","","","","570","ibg","Practice diganostic trial","","j","practice","11","false","1","RIGHT","j","1","","","","","",""
"","html-keyboard-response","30","134390","0.0-54.0","uco9hwky","1920","1080","","","","","","","","","","","null","+","Fixation - short","","null","","","","","","","","","","","","",""
"","html-keyboard-response","31","134963","0.0-55.0","uco9hwky","1920","1080","","","","","","","","","","","572","ibg","Practice diganostic trial","","f","practice","12","false","0","LEFT","f","1","","","","","",""
"","html-keyboard-response","32","135729","0.0-58.0","uco9hwky","1920","1080","","","","","","","","","","","null","+","Fixation - short","","null","","","","","","","","","","","","",""
"","html-keyboard-response","33","136380","0.0-59.0","uco9hwky","1920","1080","","","","","","","","","","","651","uen","Practice diganostic trial","","f","practice","13","false","0","LEFT","f","1","","","","","",""
"","html-keyboard-response","34","137132","0.0-62.0","uco9hwky","1920","1080","","","","","","","","","","","null","+","Fixation - short","","null","","","","","","","","","","","","",""
"","html-keyboard-response","35","137636","0.0-63.0","uco9hwky","1920","1080","","","","","","","","","","","503","uen","Practice diganostic trial","","j","practice","14","false","1","RIGHT","j","1","","","","","",""
"","html-keyboard-response","36","138393","0.0-66.0","uco9hwky","1920","1080","","","","","","","","","","","null","+","Fixation - short","","null","","","","","","","","","","","","",""
"","html-keyboard-response","37","138906","0.0-67.0","uco9hwky","1920","1080","","","","","","","","","","","512","uen","Practice diganostic trial","","f","practice","15","false","0","LEFT","f","1","","","","","",""
"","html-keyboard-response","38","139658","0.0-70.0","uco9hwky","1920","1080","","","","","","","","","","","null","+","Fixation - short","","null","","","","","","","","","","","","",""
"","instructions","39","158512","0.0-71.0","uco9hwky","1920","1080","","","","","","","","","","[{""page_index"":0,""viewing_time"":18854}]","18854","Instructions","Final experiment explanation","","","","","","","","","","","","","","",""
"","html-keyboard-response","40","170915","0.0-72.0","uco9hwky","1920","1080","","","","","","","","","","","10899","If ori press RIGHT | If crf press LEFT","Practice inducer instructions",""," ","practice","","","","","","","","","","","",""
"","html-keyboard-response","41","172818","0.0-73.0","uco9hwky","1920","1080","","","","","","","","","","","1902","","Practice inducer trial","","j","practice","","true","","","j","1","RIGHT","","","","",""
"","html-keyboard-response","42","173578","0.0-76.0","uco9hwky","1920","1080","","","","","","","","","","","null","+","Fixation - short","","null","","","","","","","","","","","","",""
"","html-keyboard-response","43","180789","0.0-77.0","uco9hwky","1920","1080","","","","","","","","","","","7210","If wab press RIGHT | If pcm press LEFT","Practice inducer instructions",""," ","practice","","","","","","","","","","","",""
"","html-keyboard-response","44","181408","0.0-78.0","uco9hwky","1920","1080","","","","","","","","","","","618","","Practice inducer trial","","f","practice","","true","","","f","1","LEFT","","","","",""
"","html-keyboard-response","45","182170","0.0-81.0","uco9hwky","1920","1080","","","","","","","","","","","null","+","Fixation - short","","null","","","","","","","","","","","","",""
"","html-keyboard-response","46","187777","0.0-82.0","uco9hwky","1920","1080","","","","","","","","","","","5607","If yna press RIGHT | If vrm press LEFT","Practice inducer instructions",""," ","practice","","","","","","","","","","","",""
"","html-keyboard-response","47","188275","0.0-83.0","uco9hwky","1920","1080","","","","","","","","","","","497","","Practice inducer trial","","f","practice","","true","","","f","1","LEFT","","","","",""
"","html-keyboard-response","48","189028","0.0-86.0","uco9hwky","1920","1080","","","","","","","","","","","null","+","Fixation - short","","null","","","","","","","","","","","","",""
"","html-keyboard-response","49","195999","0.0-87.0","uco9hwky","1920","1080","","","","","","","","","","","6971","If cta press RIGHT | If fuc press LEFT","Practice inducer instructions",""," ","practice","","","","","","","","","","","",""
"","html-keyboard-response","50","196568","0.0-88.0","uco9hwky","1920","1080","","","","","","","","","","","568","","Practice inducer trial","","j","practice","","true","","","j","1","RIGHT","","","","",""
"","html-keyboard-response","51","197326","0.0-91.0","uco9hwky","1920","1080","","","","","","","","","","","null","+","Fixation - short","","null","","","","","","","","","","","","",""
"","html-keyboard-response","52","204307","0.0-92.0","uco9hwky","1920","1080","","","","","","","","","","","6981","If ydi press RIGHT | If sjn press LEFT","Practice inducer instructions",""," ","practice","","","","","","","","","","","",""
"","html-keyboard-response","53","207081","0.0-93.0","uco9hwky","1920","1080","","","","","","","","","","","2774","","Practice inducer trial","","f","practice","","true","","","f","1","LEFT","","","","",""
"","html-keyboard-response","54","207837","0.0-96.0","uco9hwky","1920","1080","","","","","","","","","","","null","+","Fixation - short","","null","","","","","","","","","","","","",""
"","html-keyboard-response","55","218543","0.0-97.0","uco9hwky","1920","1080","","","","","","","","","","","10705","If swr press RIGHT | If psl press LEFT","Practice inducer instructions",""," ","practice","","","","","","","","","","","",""
"","html-keyboard-response","56","219117","0.0-98.0","uco9hwky","1920","1080","","","","","","","","","","","573","","Practice inducer trial","","j","practice","","true","","","j","1","RIGHT","","","","",""
"","html-keyboard-response","57","219878","0.0-101.0","uco9hwky","1920","1080","","","","","","","","","","","null","+","Fixation - short","","null","","","","","","","","","","","","",""
"","html-keyboard-response","58","246366","0.0-102.0","uco9hwky","1920","1080","","","","","","","","","","","26487","End practice","End of practice",""," ","","","","","","","","","","","","",""
"","html-keyboard-response","59","247868","0.0-103.0","uco9hwky","1920","1080","","","","","","","","","","","null","+","Fixation - long","","null","","","","","","","","","","","","",""
"","html-keyboard-response","60","252103","0.0-104.0","uco9hwky","1920","1080","","","","","","","","","","","4235","If aor press RIGHT | If bwe press LEFT","Inducer instructions",""," ","0","","","","","","","","","","","",""
"","html-keyboard-response","61","252854","0.0-105.0","uco9hwky","1920","1080","","","","","","","","","","","null","+","Fixation - short","","null","","","","","","","","","","","","",""
"","html-keyboard-response","62","254857","0.0-106.0","uco9hwky","1920","1080","","","","","","","","","","","null","aor","Diagnostic trial","","null","0","0","false","false","LEFT","f","NaN","","LEFT","true","","",""
"","call-function","63","254857","0.0-107.0-0.0","uco9hwky","","","","","","","","","","","","","","","","","","","","","","","","","","","","","",""
"","html-keyboard-response","64","255168","0.0-107.0-1.0","uco9hwky","1920","1080","","","","","","","","","","","null","Slow","Feedback","","null","","","","","","","","","","","","",""
"","call-function","65","255169","0.0-107.0-2.0","uco9hwky","","","","","","","","","","","","","","","","","","","","","","","","","","","","","",""
"","html-keyboard-response","66","255922","0.0-109.0","uco9hwky","1920","1080","","","","","","","","","","","null","+","Fixation - short","","null","","","","","","","","","","","","",""
"","html-keyboard-response","67","256632","0.0-110.0","uco9hwky","1920","1080","","","","","","","","","","","710","bwe","Diagnostic trial","","f","0","1","false","false","LEFT","f","1","","RIGHT","false","","",""
"","html-keyboard-response","68","257390","0.0-113.0","uco9hwky","1920","1080","","","","","","","","","","","null","+","Fixation - short","","null","","","","","","","","","","","","",""
"","html-keyboard-response","69","258076","0.0-114.0","uco9hwky","1920","1080","","","","","","","","","","","686","bwe","Diagnostic trial","","f","0","2","false","false","LEFT","f","1","","RIGHT","false","","",""
"","html-keyboard-response","70","258828","0.0-117.0","uco9hwky","1920","1080","","","","","","","","","","","null","+","Fixation - short","","null","","","","","","","","","","","","",""
"","html-keyboard-response","71","259514","0.0-118.0","uco9hwky","1920","1080","","","","","","","","","","","686","aor","Diagnostic trial","","j","0","3","false","false","LEFT","f","0","","LEFT","true","","",""
"","call-function","72","259514","0.0-120.0-0.0","uco9hwky","","","","","","","","","","","","","","","","","","","","","","","","","","","","","",""
"","html-keyboard-response","73","259815","0.0-120.0-1.0","uco9hwky","1920","1080","","","","","","","","","","","null","Wrong","Feedback","","null","","","","","","","","","","","","",""
"","call-function","74","259816","0.0-120.0-2.0","uco9hwky","","","","","","","","","","","","","","","","","","","","","","","","","","","","","",""
"","html-keyboard-response","75","260571","0.0-121.0","uco9hwky","1920","1080","","","","","","","","","","","null","+","Fixation - short","","null","","","","","","","","","","","","",""
"","html-keyboard-response","76","262585","0.0-122.0","uco9hwky","1920","1080","","","","","","","","","","","null","bwe","Diagnostic trial","","null","0","4","false","false","LEFT","f","NaN","","RIGHT","false","","",""
"","call-function","77","262586","0.0-123.0-0.0","uco9hwky","","","","","","","","","","","","","","","","","","","","","","","","","","","","","",""
"","html-keyboard-response","78","262892","0.0-123.0-1.0","uco9hwky","1920","1080","","","","","","","","","","","null","Slow","Feedback","","null","","","","","","","","","","","","",""
"","call-function","79","262892","0.0-123.0-2.0","uco9hwky","","","","","","","","","","","","","","","","","","","","","","","","","","","","","",""
"","html-keyboard-response","80","263648","0.0-125.0","uco9hwky","1920","1080","","","","","","","","","","","null","+","Fixation - short","","null","","","","","","","","","","","","",""
"","html-keyboard-response","81","264847","0.0-126.0","uco9hwky","1920","1080","","","","","","","","","","","1199","bwe","Diagnostic trial","","f","0","5","false","true","RIGHT","j","0","","RIGHT","true","","",""
"","call-function","82","264848","0.0-128.0-0.0","uco9hwky","","","","","","","","","","","","","","","","","","","","","","","","","","","","","",""
"","html-keyboard-response","83","265151","0.0-128.0-1.0","uco9hwky","1920","1080","","","","","","","","","","","null","Wrong","Feedback","","null","","","","","","","","","","","","",""
"","call-function","84","265152","0.0-128.0-2.0","uco9hwky","","","","","","","","","","","","","","","","","","","","","","","","","","","","","",""
"","html-keyboard-response","85","265906","0.0-129.0","uco9hwky","1920","1080","","","","","","","","","","","null","+","Fixation - short","","null","","","","","","","","","","","","",""
"","html-keyboard-response","86","266509","0.0-130.0","uco9hwky","1920","1080","","","","","","","","","","","603","aor","Diagnostic trial","","j","0","6","false","true","RIGHT","j","1","","LEFT","false","","",""
"","html-keyboard-response","87","267273","0.0-133.0","uco9hwky","1920","1080","","","","","","","","","","","null","+","Fixation - short","","null","","","","","","","","","","","","",""
"","html-keyboard-response","88","267966","0.0-134.0","uco9hwky","1920","1080","","","","","","","","","","","693","bwe","Diagnostic trial","","f","0","7","false","false","LEFT","f","1","","RIGHT","false","","",""
"","html-keyboard-response","89","268720","0.0-137.0","uco9hwky","1920","1080","","","","","","","","","","","null","+","Fixation - short","","null","","","","","","","","","","","","",""
"","html-keyboard-response","90","269662","0.0-138.0","uco9hwky","1920","1080","","","","","","","","","","","941","aor","Diagnostic trial","","f","0","8","false","false","LEFT","f","1","","LEFT","true","","",""
"","html-keyboard-response","91","270426","0.0-141.0","uco9hwky","1920","1080","","","","","","","","","","","null","+","Fixation - short","","null","","","","","","","","","","","","",""
"","html-keyboard-response","92","270877","0.0-142.0","uco9hwky","1920","1080","","","","","","","","","","","451","bwe","Diagnostic trial","","j","0","9","false","true","RIGHT","j","1","","RIGHT","true","","",""
"","html-keyboard-response","93","271642","0.0-145.0","uco9hwky","1920","1080","","","","","","","","","","","null","+","Fixation - short","","null","","","","","","","","","","","","",""
"","html-keyboard-response","94","272087","0.0-146.0","uco9hwky","1920","1080","","","","","","","","","","","444","aor","Diagnostic trial","","j","0","10","false","true","RIGHT","j","1","","LEFT","false","","",""
"","html-keyboard-response","95","272844","0.0-149.0","uco9hwky","1920","1080","","","","","","","","","","","null","+","Fixation - short","","null","","","","","","","","","","","","",""
"","html-keyboard-response","96","273258","0.0-150.0","uco9hwky","1920","1080","","","","","","","","","","","413","aor","Diagnostic trial","","j","0","11","false","true","RIGHT","j","1","","LEFT","false","","",""
"","html-keyboard-response","97","274017","0.0-153.0","uco9hwky","1920","1080","","","","","","","","","","","null","+","Fixation - short","","null","","","","","","","","","","","","",""
"","html-keyboard-response","98","275752","0.0-154.0","uco9hwky","1920","1080","","","","","","","","","","","1734","bwe","Inducer trial","","f","0","","true","","","f","1","LEFT","","","","",""
"","html-keyboard-response","99","277262","0.0-157.0","uco9hwky","1920","1080","","","","","","","","","","","null","+","Fixation - long","","null","","","","","","","","","","","","",""
"","html-keyboard-response","100","288766","0.0-158.0","uco9hwky","1920","1080","","","","","","","","","","","11504","If gdn press RIGHT | If sdw press LEFT","Inducer instructions",""," ","1","","","","","","","","","","","",""
"","html-keyboard-response","101","289527","0.0-159.0","uco9hwky","1920","1080","","","","","","","","","","","null","+","Fixation - short","","null","","","","","","","","","","","","",""
"","html-keyboard-response","102","290464","0.0-160.0","uco9hwky","1920","1080","","","","","","","","","","","936","sdw","Diagnostic trial","","j","1","0","false","true","RIGHT","j","1","","RIGHT","true","","",""
"","html-keyboard-response","103","291223","0.0-163.0","uco9hwky","1920","1080","","","","","","","","","","","null","+","Fixation - short","","null","","","","","","","","","","","","",""
"","html-keyboard-response","104","292403","0.0-164.0","uco9hwky","1920","1080","","","","","","","","","","","1179","gdn","Diagnostic trial","","f","1","1","false","false","LEFT","f","1","","LEFT","true","","",""
"","html-keyboard-response","105","293163","0.0-167.0","uco9hwky","1920","1080","","","","","","","","","","","null","+","Fixation - short","","null","","","","","","","","","","","","",""
"","html-keyboard-response","106","293785","0.0-168.0","uco9hwky","1920","1080","","","","","","","","","","","621","sdw","Diagnostic trial","","j","1","2","false","true","RIGHT","j","1","","RIGHT","true","","",""
"","html-keyboard-response","107","294547","0.0-171.0","uco9hwky","1920","1080","","","","","","","","","","","null","+","Fixation - short","","null","","","","","","","","","","","","",""
"","html-keyboard-response","108","295270","0.0-172.0","uco9hwky","1920","1080","","","","","","","","","","","723","gdn","Diagnostic trial","","f","1","3","false","false","LEFT","f","1","","LEFT","true","","",""
"","html-keyboard-response","109","296031","0.0-175.0","uco9hwky","1920","1080","","","","","","","","","","","null","+","Fixation - short","","null","","","","","","","","","","","","",""
"","html-keyboard-response","110","296726","0.0-176.0","uco9hwky","1920","1080","","","","","","","","","","","695","sdw","Diagnostic trial","","f","1","4","false","false","LEFT","f","1","","RIGHT","false","","",""
"","html-keyboard-response","111","297492","0.0-179.0","uco9hwky","1920","1080","","","","","","","","","","","null","+","Fixation - short","","null","","","","","","","","","","","","",""
"","html-keyboard-response","112","298056","0.0-180.0","uco9hwky","1920","1080","","","","","","","","","","","564","gdn","Diagnostic trial","","f","1","5","false","false","LEFT","f","1","","LEFT","true","","",""
"","html-keyboard-response","113","298811","0.0-183.0","uco9hwky","1920","1080","","","","","","","","","","","null","+","Fixation - short","","null","","","","","","","","","","","","",""
"","html-keyboard-response","114","299427","0.0-184.0","uco9hwky","1920","1080","","","","","","","","","","","615","sdw","Diagnostic trial","","j","1","6","false","true","RIGHT","j","1","","RIGHT","true","","",""
"","html-keyboard-response","115","300194","0.0-187.0","uco9hwky","1920","1080","","","","","","","","","","","null","+","Fixation - short","","null","","","","","","","","","","","","",""
"","html-keyboard-response","116","300949","0.0-188.0","uco9hwky","1920","1080","","","","","","","","","","","755","sdw","Diagnostic trial","","j","1","7","false","true","RIGHT","j","1","","RIGHT","true","","",""
"","html-keyboard-response","117","301704","0.0-191.0","uco9hwky","1920","1080","","","","","","","","","","","null","+","Fixation - short","","null","","","","","","","","","","","","",""
"","html-keyboard-response","118","302282","0.0-192.0","uco9hwky","1920","1080","","","","","","","","","","","577","gdn","Diagnostic trial","","f","1","8","false","false","LEFT","f","1","","LEFT","true","","",""
"","html-keyboard-response","119","303045","0.0-195.0","uco9hwky","1920","1080","","","","","","","","","","","null","+","Fixation - short","","null","","","","","","","","","","","","",""
"","html-keyboard-response","120","304240","0.0-196.0","uco9hwky","1920","1080","","","","","","","","","","","1195","gdn","Diagnostic trial","","f","1","9","false","false","LEFT","f","1","","LEFT","true","","",""
"","html-keyboard-response","121","305006","0.0-199.0","uco9hwky","1920","1080","","","","","","","","","","","null","+","Fixation - short","","null","","","","","","","","","","","","",""
"","html-keyboard-response","122","305673","0.0-200.0","uco9hwky","1920","1080","","","","","","","","","","","666","gdn","Diagnostic trial","","f","1","10","false","false","LEFT","f","1","","LEFT","true","","",""
"","html-keyboard-response","123","306438","0.0-203.0","uco9hwky","1920","1080","","","","","","","","","","","null","+","Fixation - short","","null","","","","","","","","","","","","",""
"","html-keyboard-response","124","307176","0.0-204.0","uco9hwky","1920","1080","","","","","","","","","","","737","gdn","Diagnostic trial","","f","1","11","false","false","LEFT","f","1","","LEFT","true","","",""
"","html-keyboard-response","125","307931","0.0-207.0","uco9hwky","1920","1080","","","","","","","","","","","null","+","Fixation - short","","null","","","","","","","","","","","","",""
"","html-keyboard-response","126","308340","0.0-208.0","uco9hwky","1920","1080","","","","","","","","","","","409","gdn","Diagnostic trial","","j","1","12","false","true","RIGHT","j","1","","LEFT","false","","",""
"","html-keyboard-response","127","309103","0.0-211.0","uco9hwky","1920","1080","","","","","","","","","","","null","+","Fixation - short","","null","","","","","","","","","","","","",""
"","html-keyboard-response","128","310348","0.0-212.0","uco9hwky","1920","1080","","","","","","","","","","","1245","gdn","Diagnostic trial","","j","1","13","false","true","RIGHT","j","1","","LEFT","false","","",""
"","html-keyboard-response","129","311100","0.0-215.0","uco9hwky","1920","1080","","","","","","","","","","","null","+","Fixation - short","","null","","","","","","","","","","","","",""
"","html-keyboard-response","130","312169","0.0-216.0","uco9hwky","1920","1080","","","","","","","","","","","1069","gdn","Inducer trial","","f","1","","true","","","j","0","RIGHT","","","","",""
"","call-function","131","312169","0.0-218.0-0.0","uco9hwky","","","","","","","","","","","","","","","","","","","","","","","","","","","","","",""
"","html-keyboard-response","132","312470","0.0-218.0-1.0","uco9hwky","1920","1080","","","","","","","","","","","null","Wrong","Feedback","","null","","","","","","","","","","","","",""
"","call-function","133","312470","0.0-218.0-2.0","uco9hwky","","","","","","","","","","","","","","","","","","","","","","","","","","","","","",""
"","html-keyboard-response","134","313981","0.0-219.0","uco9hwky","1920","1080","","","","","","","","","","","null","+","Fixation - long","","null","","","","","","","","","","","","",""
"","html-keyboard-response","135","327915","0.0-220.0","uco9hwky","1920","1080","","","","","","","","","","","13933","If jup press RIGHT | If kho press LEFT","Inducer instructions",""," ","2","","","","","","","","","","","",""
"","html-keyboard-response","136","328667","0.0-221.0","uco9hwky","1920","1080","","","","","","","","","","","null","+","Fixation - short","","null","","","","","","","","","","","","",""
"","html-keyboard-response","137","329610","0.0-222.0","uco9hwky","1920","1080","","","","","","","","","","","942","jup","Diagnostic trial","","j","2","0","false","true","RIGHT","j","1","","LEFT","false","","",""
"","html-keyboard-response","138","330374","0.0-225.0","uco9hwky","1920","1080","","","","","","","","","","","null","+","Fixation - short","","null","","","","","","","","","","","","",""
"","html-keyboard-response","139","330971","0.0-226.0","uco9hwky","1920","1080","","","","","","","","","","","596","kho","Diagnostic trial","","j","2","1","false","true","RIGHT","j","1","","RIGHT","true","","",""
"","html-keyboard-response","140","331729","0.0-229.0","uco9hwky","1920","1080","","","","","","","","","","","null","+","Fixation - short","","null","","","","","","","","","","","","",""
"","html-keyboard-response","141","332249","0.0-230.0","uco9hwky","1920","1080","","","","","","","","","","","520","jup","Diagnostic trial","","j","2","2","false","true","RIGHT","j","1","","LEFT","false","","",""
"","html-keyboard-response","142","333003","0.0-233.0","uco9hwky","1920","1080","","","","","","","","","","","null","+","Fixation - short","","null","","","","","","","","","","","","",""
"","html-keyboard-response","143","333611","0.0-234.0","uco9hwky","1920","1080","","","","","","","","","","","607","jup","Diagnostic trial","","f","2","3","false","false","LEFT","f","1","","LEFT","true","","",""
"","html-keyboard-response","144","334375","0.0-237.0","uco9hwky","1920","1080","","","","","","","","","","","null","+","Fixation - short","","null","","","","","","","","","","","","",""
"","html-keyboard-response","145","335025","0.0-238.0","uco9hwky","1920","1080","","","","","","","","","","","650","kho","Diagnostic trial","","f","2","4","false","false","LEFT","f","1","","RIGHT","false","","",""
"","html-keyboard-response","146","335789","0.0-241.0","uco9hwky","1920","1080","","","","","","","","","","","null","+","Fixation - short","","null","","","","","","","","","","","","",""
"","html-keyboard-response","147","336279","0.0-242.0","uco9hwky","1920","1080","","","","","","","","","","","489","jup","Diagnostic trial","","j","2","5","false","true","RIGHT","j","1","","LEFT","false","","",""
"","html-keyboard-response","148","337035","0.0-245.0","uco9hwky","1920","1080","","","","","","","","","","","null","+","Fixation - short","","null","","","","","","","","","","","","",""
"","html-keyboard-response","149","338598","0.0-246.0","uco9hwky","1920","1080","","","","","","","","","","","1562","jup","Inducer trial","","j","2","","true","","","j","1","RIGHT","","","","",""
"","html-keyboard-response","150","340108","0.0-249.0","uco9hwky","1920","1080","","","","","","","","","","","null","+","Fixation - long","","null","","","","","","","","","","","","",""
"","html-keyboard-response","151","348043","0.0-250.0","uco9hwky","1920","1080","","","","","","","","","","","7935","If fja press RIGHT | If wrz press LEFT","Inducer instructions",""," ","3","","","","","","","","","","","",""
"","html-keyboard-response","152","348801","0.0-251.0","uco9hwky","1920","1080","","","","","","","","","","","null","+","Fixation - short","","null","","","","","","","","","","","","",""
"","html-keyboard-response","153","349945","0.0-252.0","uco9hwky","1920","1080","","","","","","","","","","","1144","fja","Diagnostic trial","","f","3","0","false","false","LEFT","f","1","","LEFT","true","","",""
"","html-keyboard-response","154","350709","0.0-255.0","uco9hwky","1920","1080","","","","","","","","","","","null","+","Fixation - short","","null","","","","","","","","","","","","",""
"","html-keyboard-response","155","351493","0.0-256.0","uco9hwky","1920","1080","","","","","","","","","","","783","fja","Diagnostic trial","","f","3","1","false","false","LEFT","f","1","","LEFT","true","","",""
"","html-keyboard-response","156","352252","0.0-259.0","uco9hwky","1920","1080","","","","","","","","","","","null","+","Fixation - short","","null","","","","","","","","","","","","",""
"","html-keyboard-response","157","353106","0.0-260.0","uco9hwky","1920","1080","","","","","","","","","","","854","wrz","Diagnostic trial","","f","3","2","false","false","LEFT","f","1","","RIGHT","false","","",""
"","html-keyboard-response","158","353869","0.0-263.0","uco9hwky","1920","1080","","","","","","","","","","","null","+","Fixation - short","","null","","","","","","","","","","","","",""
"","html-keyboard-response","159","354561","0.0-264.0","uco9hwky","1920","1080","","","","","","","","","","","692","fja","Diagnostic trial","","f","3","3","false","false","LEFT","f","1","","LEFT","true","","",""
"","html-keyboard-response","160","355313","0.0-267.0","uco9hwky","1920","1080","","","","","","","","","","","null","+","Fixation - short","","null","","","","","","","","","","","","",""
"","html-keyboard-response","161","355892","0.0-268.0","uco9hwky","1920","1080","","","","","","","","","","","578","fja","Diagnostic trial","","j","3","4","false","true","RIGHT","j","1","","LEFT","false","","",""
"","html-keyboard-response","162","356657","0.0-271.0","uco9hwky","1920","1080","","","","","","","","","","","null","+","Fixation - short","","null","","","","","","","","","","","","",""
"","html-keyboard-response","163","357294","0.0-272.0","uco9hwky","1920","1080","","","","","","","","","","","637","fja","Diagnostic trial","","f","3","5","false","false","LEFT","f","1","","LEFT","true","","",""
"","html-keyboard-response","164","358053","0.0-275.0","uco9hwky","1920","1080","","","","","","","","","","","null","+","Fixation - short","","null","","","","","","","","","","","","",""
"","html-keyboard-response","165","358886","0.0-276.0","uco9hwky","1920","1080","","","","","","","","","","","833","wrz","Diagnostic trial","","j","3","6","false","true","RIGHT","j","1","","RIGHT","true","","",""
"","html-keyboard-response","166","359639","0.0-279.0","uco9hwky","1920","1080","","","","","","","","","","","null","+","Fixation - short","","null","","","","","","","","","","","","",""
"","html-keyboard-response","167","360311","0.0-280.0","uco9hwky","1920","1080","","","","","","","","","","","671","wrz","Diagnostic trial","","j","3","7","false","true","RIGHT","j","1","","RIGHT","true","","",""
"","html-keyboard-response","168","361068","0.0-283.0","uco9hwky","1920","1080","","","","","","","","","","","null","+","Fixation - short","","null","","","","","","","","","","","","",""
"","html-keyboard-response","169","361596","0.0-284.0","uco9hwky","1920","1080","","","","","","","","","","","527","fja","Diagnostic trial","","j","3","8","false","true","RIGHT","j","1","","LEFT","false","","",""
"","html-keyboard-response","170","362349","0.0-287.0","uco9hwky","1920","1080","","","","","","","","","","","null","+","Fixation - short","","null","","","","","","","","","","","","",""
"","html-keyboard-response","171","362929","0.0-288.0","uco9hwky","1920","1080","","","","","","","","","","","580","fja","Diagnostic trial","","j","3","9","false","true","RIGHT","j","1","","LEFT","false","","",""
"","html-keyboard-response","172","363692","0.0-291.0","uco9hwky","1920","1080","","","","","","","","","","","null","+","Fixation - short","","null","","","","","","","","","","","","",""
"","html-keyboard-response","173","364186","0.0-292.0","uco9hwky","1920","1080","","","","","","","","","","","493","fja","Diagnostic trial","","j","3","10","false","true","RIGHT","j","1","","LEFT","false","","",""
"","html-keyboard-response","174","364946","0.0-295.0","uco9hwky","1920","1080","","","","","","","","","","","null","+","Fixation - short","","null","","","","","","","","","","","","",""
"","html-keyboard-response","175","365567","0.0-296.0","uco9hwky","1920","1080","","","","","","","","","","","620","wrz","Diagnostic trial","","j","3","11","false","true","RIGHT","j","1","","RIGHT","true","","",""
"","html-keyboard-response","176","366332","0.0-299.0","uco9hwky","1920","1080","","","","","","","","","","","null","+","Fixation - short","","null","","","","","","","","","","","","",""
"","html-keyboard-response","177","366746","0.0-300.0","uco9hwky","1920","1080","","","","","","","","","","","413","wrz","Diagnostic trial","","j","3","12","false","true","RIGHT","j","1","","RIGHT","true","","",""
"","html-keyboard-response","178","367500","0.0-303.0","uco9hwky","1920","1080","","","","","","","","","","","null","+","Fixation - short","","null","","","","","","","","","","","","",""
"","html-keyboard-response","179","368165","0.0-304.0","uco9hwky","1920","1080","","","","","","","","","","","665","wrz","Diagnostic trial","","f","3","13","false","false","LEFT","f","1","","RIGHT","false","","",""
"","html-keyboard-response","180","368917","0.0-307.0","uco9hwky","1920","1080","","","","","","","","","","","null","+","Fixation - short","","null","","","","","","","","","","","","",""
"","html-keyboard-response","181","370384","0.0-308.0","uco9hwky","1920","1080","","","","","","","","","","","1466","wrz","Inducer trial","","f","3","","true","","","f","1","LEFT","","","","",""
"","html-keyboard-response","182","371898","0.0-311.0","uco9hwky","1920","1080","","","","","","","","","","","null","+","Fixation - long","","null","","","","","","","","","","","","",""
"","html-keyboard-response","183","380183","0.0-312.0","uco9hwky","1920","1080","","","","","","","","","","","8284","If pph press RIGHT | If epy press LEFT","Inducer instructions",""," ","4","","","","","","","","","","","",""
"","html-keyboard-response","184","380939","0.0-313.0","uco9hwky","1920","1080","","","","","","","","","","","null","+","Fixation - short","","null","","","","","","","","","","","","",""
"","html-keyboard-response","185","381658","0.0-314.0","uco9hwky","1920","1080","","","","","","","","","","","719","epy","Diagnostic trial","","f","4","0","false","false","LEFT","f","1","","RIGHT","false","","",""
"","html-keyboard-response","186","382416","0.0-317.0","uco9hwky","1920","1080","","","","","","","","","","","null","+","Fixation - short","","null","","","","","","","","","","","","",""
"","html-keyboard-response","187","382933","0.0-318.0","uco9hwky","1920","1080","","","","","","","","","","","517","epy","Diagnostic trial","","f","4","1","false","false","LEFT","f","1","","RIGHT","false","","",""
"","html-keyboard-response","188","383696","0.0-321.0","uco9hwky","1920","1080","","","","","","","","","","","null","+","Fixation - short","","null","","","","","","","","","","","","",""
"","html-keyboard-response","189","384230","0.0-322.0","uco9hwky","1920","1080","","","","","","","","","","","534","epy","Diagnostic trial","","f","4","2","false","false","LEFT","f","1","","RIGHT","false","","",""
"","html-keyboard-response","190","384988","0.0-325.0","uco9hwky","1920","1080","","","","","","","","","","","null","+","Fixation - short","","null","","","","","","","","","","","","",""
"","html-keyboard-response","191","385568","0.0-326.0","uco9hwky","1920","1080","","","","","","","","","","","579","epy","Diagnostic trial","","f","4","3","false","false","LEFT","f","1","","RIGHT","false","","",""
"","html-keyboard-response","192","386332","0.0-329.0","uco9hwky","1920","1080","","","","","","","","","","","null","+","Fixation - short","","null","","","","","","","","","","","","",""
"","html-keyboard-response","193","386877","0.0-330.0","uco9hwky","1920","1080","","","","","","","","","","","545","pph","Diagnostic trial","","j","4","4","false","true","RIGHT","j","1","","LEFT","false","","",""
"","html-keyboard-response","194","387638","0.0-333.0","uco9hwky","1920","1080","","","","","","","","","","","null","+","Fixation - short","","null","","","","","","","","","","","","",""
"","html-keyboard-response","195","388674","0.0-334.0","uco9hwky","1920","1080","","","","","","","","","","","1036","epy","Diagnostic trial","","f","4","5","false","false","LEFT","f","1","","RIGHT","false","","",""
"","html-keyboard-response","196","389437","0.0-337.0","uco9hwky","1920","1080","","","","","","","","","","","null","+","Fixation - short","","null","","","","","","","","","","","","",""
"","html-keyboard-response","197","390085","0.0-338.0","uco9hwky","1920","1080","","","","","","","","","","","648","epy","Diagnostic trial","","f","4","6","false","false","LEFT","f","1","","RIGHT","false","","",""
"","html-keyboard-response","198","390838","0.0-341.0","uco9hwky","1920","1080","","","","","","","","","","","null","+","Fixation - short","","null","","","","","","","","","","","","",""
"","html-keyboard-response","199","391399","0.0-342.0","uco9hwky","1920","1080","","","","","","","","","","","561","pph","Diagnostic trial","","f","4","7","false","false","LEFT","f","1","","LEFT","true","","",""
"","html-keyboard-response","200","392164","0.0-345.0","uco9hwky","1920","1080","","","","","","","","","","","null","+","Fixation - short","","null","","","","","","","","","","","","",""
"","html-keyboard-response","201","392622","0.0-346.0","uco9hwky","1920","1080","","","","","","","","","","","457","epy","Diagnostic trial","","j","4","8","false","true","RIGHT","j","1","","RIGHT","true","","",""
"","html-keyboard-response","202","393379","0.0-349.0","uco9hwky","1920","1080","","","","","","","","","","","null","+","Fixation - short","","null","","","","","","","","","","","","",""
"","html-keyboard-response","203","393915","0.0-350.0","uco9hwky","1920","1080","","","","","","","","","","","536","pph","Diagnostic trial","","j","4","9","false","true","RIGHT","j","1","","LEFT","false","","",""
"","html-keyboard-response","204","394676","0.0-353.0","uco9hwky","1920","1080","","","","","","","","","","","null","+","Fixation - short","","null","","","","","","","","","","","","",""
"","html-keyboard-response","205","395300","0.0-354.0","uco9hwky","1920","1080","","","","","","","","","","","624","epy","Diagnostic trial","","j","4","10","false","true","RIGHT","j","1","","RIGHT","true","","",""
"","html-keyboard-response","206","396059","0.0-357.0","uco9hwky","1920","1080","","","","","","","","","","","null","+","Fixation - short","","null","","","","","","","","","","","","",""
"","html-keyboard-response","207","397312","0.0-358.0","uco9hwky","1920","1080","","","","","","","","","","","1253","epy","Inducer trial","","f","4","","true","","","f","1","LEFT","","","","",""
"","html-keyboard-response","208","398825","0.0-361.0","uco9hwky","1920","1080","","","","","","","","","","","null","+","Fixation - long","","null","","","","","","","","","","","","",""
"","html-keyboard-response","209","402878","0.0-362.0","uco9hwky","1920","1080","","","","","","","","","","","4053","If faq press RIGHT | If uus press LEFT","Inducer instructions",""," ","5","","","","","","","","","","","",""
"","html-keyboard-response","210","403631","0.0-363.0","uco9hwky","1920","1080","","","","","","","","","","","null","+","Fixation - short","","null","","","","","","","","","","","","",""
"","html-keyboard-response","211","404257","0.0-364.0","uco9hwky","1920","1080","","","","","","","","","","","625","faq","Diagnostic trial","","f","5","0","false","false","LEFT","f","1","","LEFT","true","","",""
"","html-keyboard-response","212","405021","0.0-367.0","uco9hwky","1920","1080","","","","","","","","","","","null","+","Fixation - short","","null","","","","","","","","","","","","",""
"","html-keyboard-response","213","406035","0.0-368.0","uco9hwky","1920","1080","","","","","","","","","","","1013","uus","Diagnostic trial","","j","5","1","false","true","RIGHT","j","1","","RIGHT","true","","",""
"","html-keyboard-response","214","406793","0.0-371.0","uco9hwky","1920","1080","","","","","","","","","","","null","+","Fixation - short","","null","","","","","","","","","","","","",""
"","html-keyboard-response","215","408629","0.0-372.0","uco9hwky","1920","1080","","","","","","","","","","","1836","uus","Diagnostic trial","","f","5","2","false","false","LEFT","f","1","","RIGHT","false","","",""
"","html-keyboard-response","216","409389","0.0-375.0","uco9hwky","1920","1080","","","","","","","","","","","null","+","Fixation - short","","null","","","","","","","","","","","","",""
"","html-keyboard-response","217","410160","0.0-376.0","uco9hwky","1920","1080","","","","","","","","","","","771","faq","Diagnostic trial","","f","5","3","false","false","LEFT","f","1","","LEFT","true","","",""
"","html-keyboard-response","218","410913","0.0-379.0","uco9hwky","1920","1080","","","","","","","","","","","null","+","Fixation - short","","null","","","","","","","","","","","","",""
"","html-keyboard-response","219","411631","0.0-380.0","uco9hwky","1920","1080","","","","","","","","","","","718","faq","Diagnostic trial","","j","5","4","false","true","RIGHT","j","1","","LEFT","false","","",""
"","html-keyboard-response","220","412397","0.0-383.0","uco9hwky","1920","1080","","","","","","","","","","","null","+","Fixation - short","","null","","","","","","","","","","","","",""
"","html-keyboard-response","221","413481","0.0-384.0","uco9hwky","1920","1080","","","","","","","","","","","1083","faq","Inducer trial","","j","5","","true","","","j","1","RIGHT","","","","",""
"","html-keyboard-response","222","414995","0.0-387.0","uco9hwky","1920","1080","","","","","","","","","","","null","+","Fixation - long","","null","","","","","","","","","","","","",""
"","html-keyboard-response","223","419776","0.0-388.0","uco9hwky","1920","1080","","","","","","","","","","","4781","If dul press RIGHT | If wwt press LEFT","Inducer instructions",""," ","6","","","","","","","","","","","",""
"","html-keyboard-response","224","420537","0.0-389.0","uco9hwky","1920","1080","","","","","","","","","","","null","+","Fixation - short","","null","","","","","","","","","","","","",""
"","html-keyboard-response","225","421589","0.0-390.0","uco9hwky","1920","1080","","","","","","","","","","","1051","wwt","Diagnostic trial","","f","6","0","false","false","LEFT","f","1","","RIGHT","false","","",""
"","html-keyboard-response","226","422351","0.0-393.0","uco9hwky","1920","1080","","","","","","","","","","","null","+","Fixation - short","","null","","","","","","","","","","","","",""
"","html-keyboard-response","227","422938","0.0-394.0","uco9hwky","1920","1080","","","","","","","","","","","587","dul","Diagnostic trial","","f","6","1","false","false","LEFT","f","1","","LEFT","true","","",""
"","html-keyboard-response","228","423690","0.0-397.0","uco9hwky","1920","1080","","","","","","","","","","","null","+","Fixation - short","","null","","","","","","","","","","","","",""
"","html-keyboard-response","229","424238","0.0-398.0","uco9hwky","1920","1080","","","","","","","","","","","548","dul","Diagnostic trial","","f","6","2","false","false","LEFT","f","1","","LEFT","true","","",""
"","html-keyboard-response","230","424996","0.0-401.0","uco9hwky","1920","1080","","","","","","","","","","","null","+","Fixation - short","","null","","","","","","","","","","","","",""
"","html-keyboard-response","231","425579","0.0-402.0","uco9hwky","1920","1080","","","","","","","","","","","583","wwt","Diagnostic trial","","f","6","3","false","false","LEFT","f","1","","RIGHT","false","","",""
"","html-keyboard-response","232","426336","0.0-405.0","uco9hwky","1920","1080","","","","","","","","","","","null","+","Fixation - short","","null","","","","","","","","","","","","",""
"","html-keyboard-response","233","426972","0.0-406.0","uco9hwky","1920","1080","","","","","","","","","","","635","wwt","Diagnostic trial","","j","6","4","false","true","RIGHT","j","1","","RIGHT","true","","",""
"","html-keyboard-response","234","427738","0.0-409.0","uco9hwky","1920","1080","","","","","","","","","","","null","+","Fixation - short","","null","","","","","","","","","","","","",""
"","html-keyboard-response","235","428239","0.0-410.0","uco9hwky","1920","1080","","","","","","","","","","","501","wwt","Diagnostic trial","","j","6","5","false","true","RIGHT","j","1","","RIGHT","true","","",""
"","html-keyboard-response","236","429006","0.0-413.0","uco9hwky","1920","1080","","","","","","","","","","","null","+","Fixation - short","","null","","","","","","","","","","","","",""
"","html-keyboard-response","237","429547","0.0-414.0","uco9hwky","1920","1080","","","","","","","","","","","541","dul","Diagnostic trial","","j","6","6","false","true","RIGHT","j","1","","LEFT","false","","",""
"","html-keyboard-response","238","430306","0.0-417.0","uco9hwky","1920","1080","","","","","","","","","","","null","+","Fixation - short","","null","","","","","","","","","","","","",""
"","html-keyboard-response","239","431337","0.0-418.0","uco9hwky","1920","1080","","","","","","","","","","","1031","wwt","Diagnostic trial","","f","6","7","false","false","LEFT","f","1","","RIGHT","false","","",""
"","html-keyboard-response","240","432089","0.0-421.0","uco9hwky","1920","1080","","","","","","","","","","","null","+","Fixation - short","","null","","","","","","","","","","","","",""
"","html-keyboard-response","241","433023","0.0-422.0","uco9hwky","1920","1080","","","","","","","","","","","934","dul","Diagnostic trial","","f","6","8","false","false","LEFT","f","1","","LEFT","true","","",""
"","html-keyboard-response","242","433782","0.0-425.0","uco9hwky","1920","1080","","","","","","","","","","","null","+","Fixation - short","","null","","","","","","","","","","","","",""
"","html-keyboard-response","243","434861","0.0-426.0","uco9hwky","1920","1080","","","","","","","","","","","1078","wwt","Diagnostic trial","","j","6","9","false","true","RIGHT","j","1","","RIGHT","true","","",""
"","html-keyboard-response","244","435615","0.0-429.0","uco9hwky","1920","1080","","","","","","","","","","","null","+","Fixation - short","","null","","","","","","","","","","","","",""
"","html-keyboard-response","245","436400","0.0-430.0","uco9hwky","1920","1080","","","","","","","","","","","784","dul","Diagnostic trial","","f","6","10","false","false","LEFT","f","1","","LEFT","true","","",""
"","html-keyboard-response","246","437157","0.0-433.0","uco9hwky","1920","1080","","","","","","","","","","","null","+","Fixation - short","","null","","","","","","","","","","","","",""
"","html-keyboard-response","247","437832","0.0-434.0","uco9hwky","1920","1080","","","","","","","","","","","675","dul","Diagnostic trial","","f","6","11","false","false","LEFT","f","1","","LEFT","true","","",""
"","html-keyboard-response","248","438590","0.0-437.0","uco9hwky","1920","1080","","","","","","","","","","","null","+","Fixation - short","","null","","","","","","","","","","","","",""
"","html-keyboard-response","249","439273","0.0-438.0","uco9hwky","1920","1080","","","","","","","","","","","682","dul","Diagnostic trial","","j","6","12","false","true","RIGHT","j","1","","LEFT","false","","",""
"","html-keyboard-response","250","440037","0.0-441.0","uco9hwky","1920","1080","","","","","","","","","","","null","+","Fixation - short","","null","","","","","","","","","","","","",""
"","html-keyboard-response","251","440866","0.0-442.0","uco9hwky","1920","1080","","","","","","","","","","","828","wwt","Diagnostic trial","","f","6","13","false","false","LEFT","f","1","","RIGHT","false","","",""
"","html-keyboard-response","252","441624","0.0-445.0","uco9hwky","1920","1080","","","","","","","","","","","null","+","Fixation - short","","null","","","","","","","","","","","","",""
"","html-keyboard-response","253","442183","0.0-446.0","uco9hwky","1920","1080","","","","","","","","","","","558","wwt","Diagnostic trial","","j","6","14","false","true","RIGHT","j","1","","RIGHT","true","","",""
"","html-keyboard-response","254","442947","0.0-449.0","uco9hwky","1920","1080","","","","","","","","","","","null","+","Fixation - short","","null","","","","","","","","","","","","",""
"","html-keyboard-response","255","443580","0.0-450.0","uco9hwky","1920","1080","","","","","","","","","","","632","wwt","Diagnostic trial","","j","6","15","false","true","RIGHT","j","1","","RIGHT","true","","",""
"","html-keyboard-response","256","444332","0.0-453.0","uco9hwky","1920","1080","","","","","","","","","","","null","+","Fixation - short","","null","","","","","","","","","","","","",""
"","html-keyboard-response","257","445403","0.0-454.0","uco9hwky","1920","1080","","","","","","","","","","","1071","wwt","Inducer trial","","f","6","","true","","","f","1","LEFT","","","","",""
"","html-keyboard-response","258","446915","0.0-457.0","uco9hwky","1920","1080","","","","","","","","","","","null","+","Fixation - long","","null","","","","","","","","","","","","",""
"","html-keyboard-response","259","450980","0.0-458.0","uco9hwky","1920","1080","","","","","","","","","","","4065","If dij press RIGHT | If jft press LEFT","Inducer instructions",""," ","7","","","","","","","","","","","",""
"","html-keyboard-response","260","451746","0.0-459.0","uco9hwky","1920","1080","","","","","","","","","","","null","+","Fixation - short","","null","","","","","","","","","","","","",""
"","html-keyboard-response","261","452596","0.0-460.0","uco9hwky","1920","1080","","","","","","","","","","","849","jft","Diagnostic trial","","j","7","0","false","true","RIGHT","j","1","","RIGHT","true","","",""
"","html-keyboard-response","262","453360","0.0-463.0","uco9hwky","1920","1080","","","","","","","","","","","null","+","Fixation - short","","null","","","","","","","","","","","","",""
"","html-keyboard-response","263","454074","0.0-464.0","uco9hwky","1920","1080","","","","","","","","","","","713","dij","Diagnostic trial","","j","7","1","false","true","RIGHT","j","1","","LEFT","false","","",""
"","html-keyboard-response","264","454839","0.0-467.0","uco9hwky","1920","1080","","","","","","","","","","","null","+","Fixation - short","","null","","","","","","","","","","","","",""
"","html-keyboard-response","265","455444","0.0-468.0","uco9hwky","1920","1080","","","","","","","","","","","605","dij","Diagnostic trial","","j","7","2","false","true","RIGHT","j","1","","LEFT","false","","",""
"","html-keyboard-response","266","456196","0.0-471.0","uco9hwky","1920","1080","","","","","","","","","","","null","+","Fixation - short","","null","","","","","","","","","","","","",""
"","html-keyboard-response","267","456786","0.0-472.0","uco9hwky","1920","1080","","","","","","","","","","","590","dij","Diagnostic trial","","j","7","3","false","true","RIGHT","j","1","","LEFT","false","","",""
"","html-keyboard-response","268","457537","0.0-475.0","uco9hwky","1920","1080","","","","","","","","","","","null","+","Fixation - short","","null","","","","","","","","","","","","",""
"","html-keyboard-response","269","458129","0.0-476.0","uco9hwky","1920","1080","","","","","","","","","","","591","jft","Diagnostic trial","","f","7","4","false","false","LEFT","f","1","","RIGHT","false","","",""
"","html-keyboard-response","270","458881","0.0-479.0","uco9hwky","1920","1080","","","","","","","","","","","null","+","Fixation - short","","null","","","","","","","","","","","","",""
"","html-keyboard-response","271","459347","0.0-480.0","uco9hwky","1920","1080","","","","","","","","","","","466","jft","Diagnostic trial","","f","7","5","false","false","LEFT","f","1","","RIGHT","false","","",""
"","html-keyboard-response","272","460111","0.0-483.0","uco9hwky","1920","1080","","","","","","","","","","","null","+","Fixation - short","","null","","","","","","","","","","","","",""
"","html-keyboard-response","273","460728","0.0-484.0","uco9hwky","1920","1080","","","","","","","","","","","617","dij","Diagnostic trial","","f","7","6","false","false","LEFT","f","1","","LEFT","true","","",""
"","html-keyboard-response","274","461482","0.0-487.0","uco9hwky","1920","1080","","","","","","","","","","","null","+","Fixation - short","","null","","","","","","","","","","","","",""
"","html-keyboard-response","275","462699","0.0-488.0","uco9hwky","1920","1080","","","","","","","","","","","1217","jft","Inducer trial","","f","7","","true","","","f","1","LEFT","","","","",""
"","html-keyboard-response","276","464205","0.0-491.0","uco9hwky","1920","1080","","","","","","","","","","","null","+","Fixation - long","","null","","","","","","","","","","","","",""
"","html-keyboard-response","277","467450","0.0-492.0","uco9hwky","1920","1080","","","","","","","","","","","3244","If geb press RIGHT | If bsh press LEFT","Inducer instructions",""," ","8","","","","","","","","","","","",""
"","html-keyboard-response","278","468206","0.0-493.0","uco9hwky","1920","1080","","","","","","","","","","","null","+","Fixation - short","","null","","","","","","","","","","","","",""
"","html-keyboard-response","279","469115","0.0-494.0","uco9hwky","1920","1080","","","","","","","","","","","909","bsh","Diagnostic trial","","j","8","0","false","true","RIGHT","j","1","","RIGHT","true","","",""
"","html-keyboard-response","280","469879","0.0-497.0","uco9hwky","1920","1080","","","","","","","","","","","null","+","Fixation - short","","null","","","","","","","","","","","","",""
"","html-keyboard-response","281","470407","0.0-498.0","uco9hwky","1920","1080","","","","","","","","","","","527","geb","Diagnostic trial","","j","8","1","false","true","RIGHT","j","1","","LEFT","false","","",""
"","html-keyboard-response","282","471161","0.0-501.0","uco9hwky","1920","1080","","","","","","","","","","","null","+","Fixation - short","","null","","","","","","","","","","","","",""
"","html-keyboard-response","283","471624","0.0-502.0","uco9hwky","1920","1080","","","","","","","","","","","462","bsh","Diagnostic trial","","j","8","2","false","true","RIGHT","j","1","","RIGHT","true","","",""
"","html-keyboard-response","284","472375","0.0-505.0","uco9hwky","1920","1080","","","","","","","","","","","null","+","Fixation - short","","null","","","","","","","","","","","","",""
"","html-keyboard-response","285","472952","0.0-506.0","uco9hwky","1920","1080","","","","","","","","","","","576","bsh","Diagnostic trial","","f","8","3","false","false","LEFT","f","1","","RIGHT","false","","",""
"","html-keyboard-response","286","473713","0.0-509.0","uco9hwky","1920","1080","","","","","","","","","","","null","+","Fixation - short","","null","","","","","","","","","","","","",""
"","html-keyboard-response","287","474274","0.0-510.0","uco9hwky","1920","1080","","","","","","","","","","","560","geb","Diagnostic trial","","f","8","4","false","false","LEFT","f","1","","LEFT","true","","",""
"","html-keyboard-response","288","475036","0.0-513.0","uco9hwky","1920","1080","","","","","","","","","","","null","+","Fixation - short","","null","","","","","","","","","","","","",""
"","html-keyboard-response","289","476323","0.0-514.0","uco9hwky","1920","1080","","","","","","","","","","","1286","bsh","Inducer trial","","f","8","","true","","","f","1","LEFT","","","","",""
"","html-keyboard-response","290","477839","0.0-517.0","uco9hwky","1920","1080","","","","","","","","","","","null","+","Fixation - long","","null","","","","","","","","","","","","",""
"","html-keyboard-response","291","480453","0.0-518.0","uco9hwky","1920","1080","","","","","","","","","","","2613","If jsf press RIGHT | If kmh press LEFT","Inducer instructions",""," ","9","","","","","","","","","","","",""
"","html-keyboard-response","292","481205","0.0-519.0","uco9hwky","1920","1080","","","","","","","","","","","null","+","Fixation - short","","null","","","","","","","","","","","","",""
"","html-keyboard-response","293","481807","0.0-520.0","uco9hwky","1920","1080","","","","","","","","","","","602","jsf","Diagnostic trial","","j","9","0","false","true","RIGHT","j","1","","LEFT","false","","",""
"","html-keyboard-response","294","482560","0.0-523.0","uco9hwky","1920","1080","","","","","","","","","","","null","+","Fixation - short","","null","","","","","","","","","","","","",""
"","html-keyboard-response","295","483153","0.0-524.0","uco9hwky","1920","1080","","","","","","","","","","","593","kmh","Diagnostic trial","","f","9","1","false","false","LEFT","f","1","","RIGHT","false","","",""
"","html-keyboard-response","296","483915","0.0-527.0","uco9hwky","1920","1080","","","","","","","","","","","null","+","Fixation - short","","null","","","","","","","","","","","","",""
"","html-keyboard-response","297","484682","0.0-528.0","uco9hwky","1920","1080","","","","","","","","","","","767","jsf","Diagnostic trial","","j","9","2","false","true","RIGHT","j","1","","LEFT","false","","",""
"","html-keyboard-response","298","485447","0.0-531.0","uco9hwky","1920","1080","","","","","","","","","","","null","+","Fixation - short","","null","","","","","","","","","","","","",""
"","html-keyboard-response","299","486008","0.0-532.0","uco9hwky","1920","1080","","","","","","","","","","","561","kmh","Diagnostic trial","","f","9","3","false","false","LEFT","f","1","","RIGHT","false","","",""
"","html-keyboard-response","300","486774","0.0-535.0","uco9hwky","1920","1080","","","","","","","","","","","null","+","Fixation - short","","null","","","","","","","","","","","","",""
"","html-keyboard-response","301","487274","0.0-536.0","uco9hwky","1920","1080","","","","","","","","","","","500","jsf","Diagnostic trial","","j","9","4","false","true","RIGHT","j","1","","LEFT","false","","",""
"","html-keyboard-response","302","488028","0.0-539.0","uco9hwky","1920","1080","","","","","","","","","","","null","+","Fixation - short","","null","","","","","","","","","","","","",""
"","html-keyboard-response","303","488552","0.0-540.0","uco9hwky","1920","1080","","","","","","","","","","","524","jsf","Diagnostic trial","","j","9","5","false","true","RIGHT","j","1","","LEFT","false","","",""
"","html-keyboard-response","304","489307","0.0-543.0","uco9hwky","1920","1080","","","","","","","","","","","null","+","Fixation - short","","null","","","","","","","","","","","","",""
"","html-keyboard-response","305","489941","0.0-544.0","uco9hwky","1920","1080","","","","","","","","","","","634","kmh","Inducer trial","","f","9","","true","","","f","1","LEFT","","","","",""
"","html-keyboard-response","306","491442","0.0-547.0","uco9hwky","1920","1080","","","","","","","","","","","null","+","Fixation - long","","null","","","","","","","","","","","","",""
"","html-keyboard-response","307","496589","0.0-548.0","uco9hwky","1920","1080","","","","","","","","","","","5146","If efg press RIGHT | If guf press LEFT","Inducer instructions",""," ","10","","","","","","","","","","","",""
"","html-keyboard-response","308","497346","0.0-549.0","uco9hwky","1920","1080","","","","","","","","","","","null","+","Fixation - short","","null","","","","","","","","","","","","",""
"","html-keyboard-response","309","498180","0.0-550.0","uco9hwky","1920","1080","","","","","","","","","","","833","efg","Diagnostic trial","","f","10","0","false","false","LEFT","f","1","","LEFT","true","","",""
"","html-keyboard-response","310","498936","0.0-553.0","uco9hwky","1920","1080","","","","","","","","","","","null","+","Fixation - short","","null","","","","","","","","","","","","",""
"","html-keyboard-response","311","499413","0.0-554.0","uco9hwky","1920","1080","","","","","","","","","","","476","efg","Diagnostic trial","","f","10","1","false","false","LEFT","f","1","","LEFT","true","","",""
"","html-keyboard-response","312","500173","0.0-557.0","uco9hwky","1920","1080","","","","","","","","","","","null","+","Fixation - short","","null","","","","","","","","","","","","",""
"","html-keyboard-response","313","500720","0.0-558.0","uco9hwky","1920","1080","","","","","","","","","","","547","guf","Diagnostic trial","","f","10","2","false","false","LEFT","f","1","","RIGHT","false","","",""
"","html-keyboard-response","314","501479","0.0-561.0","uco9hwky","1920","1080","","","","","","","","","","","null","+","Fixation - short","","null","","","","","","","","","","","","",""
"","html-keyboard-response","315","502248","0.0-562.0","uco9hwky","1920","1080","","","","","","","","","","","769","guf","Diagnostic trial","","j","10","3","false","true","RIGHT","j","1","","RIGHT","true","","",""
"","html-keyboard-response","316","503003","0.0-565.0","uco9hwky","1920","1080","","","","","","","","","","","null","+","Fixation - short","","null","","","","","","","","","","","","",""
"","html-keyboard-response","317","503918","0.0-566.0","uco9hwky","1920","1080","","","","","","","","","","","914","guf","Inducer trial","","f","10","","true","","","f","1","LEFT","","","","",""
"","html-keyboard-response","318","505428","0.0-569.0","uco9hwky","1920","1080","","","","","","","","","","","null","+","Fixation - long","","null","","","","","","","","","","","","",""
"","html-keyboard-response","319","509220","0.0-570.0","uco9hwky","1920","1080","","","","","","","","","","","3792","If dnc press RIGHT | If saj press LEFT","Inducer instructions",""," ","11","","","","","","","","","","","",""
"","html-keyboard-response","320","509973","0.0-571.0","uco9hwky","1920","1080","","","","","","","","","","","null","+","Fixation - short","","null","","","","","","","","","","","","",""
"","html-keyboard-response","321","510565","0.0-572.0","uco9hwky","1920","1080","","","","","","","","","","","592","dnc","Diagnostic trial","","j","11","0","false","true","RIGHT","j","1","","LEFT","false","","",""
"","html-keyboard-response","322","511329","0.0-575.0","uco9hwky","1920","1080","","","","","","","","","","","null","+","Fixation - short","","null","","","","","","","","","","","","",""
"","html-keyboard-response","323","511806","0.0-576.0","uco9hwky","1920","1080","","","","","","","","","","","477","dnc","Diagnostic trial","","j","11","1","false","true","RIGHT","j","1","","LEFT","false","","",""
"","html-keyboard-response","324","512563","0.0-579.0","uco9hwky","1920","1080","","","","","","","","","","","null","+","Fixation - short","","null","","","","","","","","","","","","",""
"","html-keyboard-response","325","513069","0.0-580.0","uco9hwky","1920","1080","","","","","","","","","","","506","dnc","Diagnostic trial","","f","11","2","false","false","LEFT","f","1","","LEFT","true","","",""
"","html-keyboard-response","326","513827","0.0-583.0","uco9hwky","1920","1080","","","","","","","","","","","null","+","Fixation - short","","null","","","","","","","","","","","","",""
"","html-keyboard-response","327","514367","0.0-584.0","uco9hwky","1920","1080","","","","","","","","","","","540","saj","Diagnostic trial","","j","11","3","false","true","RIGHT","j","1","","RIGHT","true","","",""
"","html-keyboard-response","328","515127","0.0-587.0","uco9hwky","1920","1080","","","","","","","","","","","null","+","Fixation - short","","null","","","","","","","","","","","","",""
"","html-keyboard-response","329","515607","0.0-588.0","uco9hwky","1920","1080","","","","","","","","","","","480","saj","Diagnostic trial","","f","11","4","false","false","LEFT","f","1","","RIGHT","false","","",""
"","html-keyboard-response","330","516360","0.0-591.0","uco9hwky","1920","1080","","","","","","","","","","","null","+","Fixation - short","","null","","","","","","","","","","","","",""
"","html-keyboard-response","331","516812","0.0-592.0","uco9hwky","1920","1080","","","","","","","","","","","452","saj","Diagnostic trial","","f","11","5","false","false","LEFT","f","1","","RIGHT","false","","",""
"","html-keyboard-response","332","517566","0.0-595.0","uco9hwky","1920","1080","","","","","","","","","","","null","+","Fixation - short","","null","","","","","","","","","","","","",""
"","html-keyboard-response","333","518398","0.0-596.0","uco9hwky","1920","1080","","","","","","","","","","","832","dnc","Diagnostic trial","","j","11","6","false","true","RIGHT","j","1","","LEFT","false","","",""
"","html-keyboard-response","334","519152","0.0-599.0","uco9hwky","1920","1080","","","","","","","","","","","null","+","Fixation - short","","null","","","","","","","","","","","","",""
"","html-keyboard-response","335","519802","0.0-600.0","uco9hwky","1920","1080","","","","","","","","","","","650","saj","Diagnostic trial","","f","11","7","false","false","LEFT","f","1","","RIGHT","false","","",""
"","html-keyboard-response","336","520568","0.0-603.0","uco9hwky","1920","1080","","","","","","","","","","","null","+","Fixation - short","","null","","","","","","","","","","","","",""
"","html-keyboard-response","337","521193","0.0-604.0","uco9hwky","1920","1080","","","","","","","","","","","625","saj","Diagnostic trial","","j","11","8","false","true","RIGHT","j","1","","RIGHT","true","","",""
"","html-keyboard-response","338","521957","0.0-607.0","uco9hwky","1920","1080","","","","","","","","","","","null","+","Fixation - short","","null","","","","","","","","","","","","",""
"","html-keyboard-response","339","522602","0.0-608.0","uco9hwky","1920","1080","","","","","","","","","","","645","saj","Diagnostic trial","","j","11","9","false","true","RIGHT","j","1","","RIGHT","true","","",""
"","html-keyboard-response","340","523357","0.0-611.0","uco9hwky","1920","1080","","","","","","","","","","","null","+","Fixation - short","","null","","","","","","","","","","","","",""
"","html-keyboard-response","341","524004","0.0-612.0","uco9hwky","1920","1080","","","","","","","","","","","647","dnc","Diagnostic trial","","j","11","10","false","true","RIGHT","j","1","","LEFT","false","","",""
"","html-keyboard-response","342","524760","0.0-615.0","uco9hwky","1920","1080","","","","","","","","","","","null","+","Fixation - short","","null","","","","","","","","","","","","",""
"","html-keyboard-response","343","525328","0.0-616.0","uco9hwky","1920","1080","","","","","","","","","","","568","dnc","Diagnostic trial","","j","11","11","false","true","RIGHT","j","1","","LEFT","false","","",""
"","html-keyboard-response","344","526085","0.0-619.0","uco9hwky","1920","1080","","","","","","","","","","","null","+","Fixation - short","","null","","","","","","","","","","","","",""
"","html-keyboard-response","345","526708","0.0-620.0","uco9hwky","1920","1080","","","","","","","","","","","623","saj","Diagnostic trial","","j","11","12","false","true","RIGHT","j","1","","RIGHT","true","","",""
"","html-keyboard-response","346","527460","0.0-623.0","uco9hwky","1920","1080","","","","","","","","","","","null","+","Fixation - short","","null","","","","","","","","","","","","",""
"","html-keyboard-response","347","528044","0.0-624.0","uco9hwky","1920","1080","","","","","","","","","","","583","dnc","Diagnostic trial","","f","11","13","false","false","LEFT","f","1","","LEFT","true","","",""
"","html-keyboard-response","348","528803","0.0-627.0","uco9hwky","1920","1080","","","","","","","","","","","null","+","Fixation - short","","null","","","","","","","","","","","","",""
"","html-keyboard-response","349","529311","0.0-628.0","uco9hwky","1920","1080","","","","","","","","","","","508","dnc","Diagnostic trial","","j","11","14","false","true","RIGHT","j","1","","LEFT","false","","",""
"","html-keyboard-response","350","530067","0.0-631.0","uco9hwky","1920","1080","","","","","","","","","","","null","+","Fixation - short","","null","","","","","","","","","","","","",""
"","html-keyboard-response","351","530646","0.0-632.0","uco9hwky","1920","1080","","","","","","","","","","","579","dnc","Diagnostic trial","","f","11","15","false","false","LEFT","f","1","","LEFT","true","","",""
"","html-keyboard-response","352","531401","0.0-635.0","uco9hwky","1920","1080","","","","","","","","","","","null","+","Fixation - short","","null","","","","","","","","","","","","",""
"","html-keyboard-response","353","533032","0.0-636.0","uco9hwky","1920","1080","","","","","","","","","","","1630","dnc","Inducer trial","","j","11","","true","","","j","1","RIGHT","","","","",""
"","html-keyboard-response","354","534547","0.0-639.0","uco9hwky","1920","1080","","","","","","","","","","","null","+","Fixation - long","","null","","","","","","","","","","","","",""
"","html-keyboard-response","355","538790","0.0-640.0","uco9hwky","1920","1080","","","","","","","","","","","4243","If cpt press RIGHT | If ofa press LEFT","Inducer instructions",""," ","12","","","","","","","","","","","",""
"","html-keyboard-response","356","539551","0.0-641.0","uco9hwky","1920","1080","","","","","","","","","","","null","+","Fixation - short","","null","","","","","","","","","","","","",""
"","html-keyboard-response","357","540219","0.0-642.0","uco9hwky","1920","1080","","","","","","","","","","","667","cpt","Diagnostic trial","","j","12","0","false","true","RIGHT","j","1","","LEFT","false","","",""
"","html-keyboard-response","358","540984","0.0-645.0","uco9hwky","1920","1080","","","","","","","","","","","null","+","Fixation - short","","null","","","","","","","","","","","","",""
"","html-keyboard-response","359","541619","0.0-646.0","uco9hwky","1920","1080","","","","","","","","","","","634","cpt","Diagnostic trial","","f","12","1","false","false","LEFT","f","1","","LEFT","true","","",""
"","html-keyboard-response","360","542385","0.0-649.0","uco9hwky","1920","1080","","","","","","","","","","","null","+","Fixation - short","","null","","","","","","","","","","","","",""
"","html-keyboard-response","361","543122","0.0-650.0","uco9hwky","1920","1080","","","","","","","","","","","737","ofa","Diagnostic trial","","f","12","2","false","false","LEFT","f","1","","RIGHT","false","","",""
"","html-keyboard-response","362","543877","0.0-653.0","uco9hwky","1920","1080","","","","","","","","","","","null","+","Fixation - short","","null","","","","","","","","","","","","",""
"","html-keyboard-response","363","545132","0.0-654.0","uco9hwky","1920","1080","","","","","","","","","","","1255","cpt","Diagnostic trial","","f","12","3","false","false","LEFT","f","1","","LEFT","true","","",""
"","html-keyboard-response","364","545888","0.0-657.0","uco9hwky","1920","1080","","","","","","","","","","","null","+","Fixation - short","","null","","","","","","","","","","","","",""
"","html-keyboard-response","365","546510","0.0-658.0","uco9hwky","1920","1080","","","","","","","","","","","622","cpt","Diagnostic trial","","j","12","4","false","true","RIGHT","j","1","","LEFT","false","","",""
"","html-keyboard-response","366","547272","0.0-661.0","uco9hwky","1920","1080","","","","","","","","","","","null","+","Fixation - short","","null","","","","","","","","","","","","",""
"","html-keyboard-response","367","547839","0.0-662.0","uco9hwky","1920","1080","","","","","","","","","","","565","cpt","Diagnostic trial","","f","12","5","false","false","LEFT","f","1","","LEFT","true","","",""
"","html-keyboard-response","368","548598","0.0-665.0","uco9hwky","1920","1080","","","","","","","","","","","null","+","Fixation - short","","null","","","","","","","","","","","","",""
"","html-keyboard-response","369","549530","0.0-666.0","uco9hwky","1920","1080","","","","","","","","","","","932","ofa","Diagnostic trial","","j","12","6","false","true","RIGHT","j","1","","RIGHT","true","","",""
"","html-keyboard-response","370","550292","0.0-669.0","uco9hwky","1920","1080","","","","","","","","","","","null","+","Fixation - short","","null","","","","","","","","","","","","",""
"","html-keyboard-response","371","551392","0.0-670.0","uco9hwky","1920","1080","","","","","","","","","","","1100","ofa","Inducer trial","","f","12","","true","","","f","1","LEFT","","","","",""
"","html-keyboard-response","372","552893","0.0-673.0","uco9hwky","1920","1080","","","","","","","","","","","null","+","Fixation - long","","null","","","","","","","","","","","","",""
"","html-keyboard-response","373","557553","0.0-674.0","uco9hwky","1920","1080","","","","","","","","","","","4660","If gso press RIGHT | If frn press LEFT","Inducer instructions",""," ","13","","","","","","","","","","","",""
"","html-keyboard-response","374","558305","0.0-675.0","uco9hwky","1920","1080","","","","","","","","","","","null","+","Fixation - short","","null","","","","","","","","","","","","",""
"","html-keyboard-response","375","558751","0.0-676.0","uco9hwky","1920","1080","","","","","","","","","","","446","gso","Diagnostic trial","","j","13","0","false","true","RIGHT","j","1","","LEFT","false","","",""
"","html-keyboard-response","376","559511","0.0-679.0","uco9hwky","1920","1080","","","","","","","","","","","null","+","Fixation - short","","null","","","","","","","","","","","","",""
"","html-keyboard-response","377","559978","0.0-680.0","uco9hwky","1920","1080","","","","","","","","","","","466","gso","Diagnostic trial","","j","13","1","false","true","RIGHT","j","1","","LEFT","false","","",""
"","html-keyboard-response","378","560738","0.0-683.0","uco9hwky","1920","1080","","","","","","","","","","","null","+","Fixation - short","","null","","","","","","","","","","","","",""
"","html-keyboard-response","379","561165","0.0-684.0","uco9hwky","1920","1080","","","","","","","","","","","427","frn","Diagnostic trial","","f","13","2","false","false","LEFT","f","1","","RIGHT","false","","",""
"","html-keyboard-response","380","561924","0.0-687.0","uco9hwky","1920","1080","","","","","","","","","","","null","+","Fixation - short","","null","","","","","","","","","","","","",""
"","html-keyboard-response","381","562417","0.0-688.0","uco9hwky","1920","1080","","","","","","","","","","","493","gso","Diagnostic trial","","f","13","3","false","false","LEFT","f","1","","LEFT","true","","",""
"","html-keyboard-response","382","563175","0.0-691.0","uco9hwky","1920","1080","","","","","","","","","","","null","+","Fixation - short","","null","","","","","","","","","","","","",""
"","html-keyboard-response","383","563727","0.0-692.0","uco9hwky","1920","1080","","","","","","","","","","","552","gso","Diagnostic trial","","j","13","4","false","true","RIGHT","j","1","","LEFT","false","","",""
"","html-keyboard-response","384","564485","0.0-695.0","uco9hwky","1920","1080","","","","","","","","","","","null","+","Fixation - short","","null","","","","","","","","","","","","",""
"","html-keyboard-response","385","565505","0.0-696.0","uco9hwky","1920","1080","","","","","","","","","","","1020","frn","Inducer trial","","f","13","","true","","","f","1","LEFT","","","","",""
"","html-keyboard-response","386","567010","0.0-699.0","uco9hwky","1920","1080","","","","","","","","","","","null","+","Fixation - long","","null","","","","","","","","","","","","",""
"","html-keyboard-response","387","571300","0.0-700.0","uco9hwky","1920","1080","","","","","","","","","","","4289","If ebe press RIGHT | If bms press LEFT","Inducer instructions",""," ","14","","","","","","","","","","","",""
"","html-keyboard-response","388","572052","0.0-701.0","uco9hwky","1920","1080","","","","","","","","","","","null","+","Fixation - short","","null","","","","","","","","","","","","",""
"","html-keyboard-response","389","572583","0.0-702.0","uco9hwky","1920","1080","","","","","","","","","","","530","ebe","Diagnostic trial","","f","14","0","false","false","LEFT","f","1","","LEFT","true","","",""
"","html-keyboard-response","390","573344","0.0-705.0","uco9hwky","1920","1080","","","","","","","","","","","null","+","Fixation - short","","null","","","","","","","","","","","","",""
"","html-keyboard-response","391","574165","0.0-706.0","uco9hwky","1920","1080","","","","","","","","","","","820","ebe","Diagnostic trial","","j","14","1","false","true","RIGHT","j","1","","LEFT","false","","",""
"","html-keyboard-response","392","574927","0.0-709.0","uco9hwky","1920","1080","","","","","","","","","","","null","+","Fixation - short","","null","","","","","","","","","","","","",""
"","html-keyboard-response","393","575969","0.0-710.0","uco9hwky","1920","1080","","","","","","","","","","","1041","bms","Diagnostic trial","","j","14","2","false","true","RIGHT","j","1","","RIGHT","true","","",""
"","html-keyboard-response","394","576727","0.0-713.0","uco9hwky","1920","1080","","","","","","","","","","","null","+","Fixation - short","","null","","","","","","","","","","","","",""
"","html-keyboard-response","395","577269","0.0-714.0","uco9hwky","1920","1080","","","","","","","","","","","541","bms","Diagnostic trial","","j","14","3","false","true","RIGHT","j","1","","RIGHT","true","","",""
"","html-keyboard-response","396","578034","0.0-717.0","uco9hwky","1920","1080","","","","","","","","","","","null","+","Fixation - short","","null","","","","","","","","","","","","",""
"","html-keyboard-response","397","578606","0.0-718.0","uco9hwky","1920","1080","","","","","","","","","","","571","bms","Diagnostic trial","","f","14","4","false","false","LEFT","f","1","","RIGHT","false","","",""
"","html-keyboard-response","398","579360","0.0-721.0","uco9hwky","1920","1080","","","","","","","","","","","null","+","Fixation - short","","null","","","","","","","","","","","","",""
"","html-keyboard-response","399","579844","0.0-722.0","uco9hwky","1920","1080","","","","","","","","","","","483","bms","Diagnostic trial","","j","14","5","false","true","RIGHT","j","1","","RIGHT","true","","",""
"","html-keyboard-response","400","580595","0.0-725.0","uco9hwky","1920","1080","","","","","","","","","","","null","+","Fixation - short","","null","","","","","","","","","","","","",""
"","html-keyboard-response","401","581056","0.0-726.0","uco9hwky","1920","1080","","","","","","","","","","","461","bms","Diagnostic trial","","j","14","6","false","true","RIGHT","j","1","","RIGHT","true","","",""
"","html-keyboard-response","402","581808","0.0-729.0","uco9hwky","1920","1080","","","","","","","","","","","null","+","Fixation - short","","null","","","","","","","","","","","","",""
"","html-keyboard-response","403","582427","0.0-730.0","uco9hwky","1920","1080","","","","","","","","","","","619","ebe","Diagnostic trial","","j","14","7","false","true","RIGHT","j","1","","LEFT","false","","",""
"","html-keyboard-response","404","583191","0.0-733.0","uco9hwky","1920","1080","","","","","","","","","","","null","+","Fixation - short","","null","","","","","","","","","","","","",""
"","html-keyboard-response","405","583745","0.0-734.0","uco9hwky","1920","1080","","","","","","","","","","","554","ebe","Diagnostic trial","","f","14","8","false","false","LEFT","f","1","","LEFT","true","","",""
"","html-keyboard-response","406","584500","0.0-737.0","uco9hwky","1920","1080","","","","","","","","","","","null","+","Fixation - short","","null","","","","","","","","","","","","",""
"","html-keyboard-response","407","585536","0.0-738.0","uco9hwky","1920","1080","","","","","","","","","","","1035","bms","Diagnostic trial","","f","14","9","false","false","LEFT","f","1","","RIGHT","false","","",""
"","html-keyboard-response","408","586297","0.0-741.0","uco9hwky","1920","1080","","","","","","","","","","","null","+","Fixation - short","","null","","","","","","","","","","","","",""
"","html-keyboard-response","409","587193","0.0-742.0","uco9hwky","1920","1080","","","","","","","","","","","896","ebe","Inducer trial","","j","14","","true","","","j","1","RIGHT","","","","",""
"","html-keyboard-response","410","588700","0.0-745.0","uco9hwky","1920","1080","","","","","","","","","","","null","+","Fixation - long","","null","","","","","","","","","","","","",""
"","html-keyboard-response","411","593071","0.0-746.0","uco9hwky","1920","1080","","","","","","","","","","","4370","If upf press RIGHT | If zpl press LEFT","Inducer instructions",""," ","15","","","","","","","","","","","",""
"","html-keyboard-response","412","593831","0.0-747.0","uco9hwky","1920","1080","","","","","","","","","","","null","+","Fixation - short","","null","","","","","","","","","","","","",""
"","html-keyboard-response","413","594458","0.0-748.0","uco9hwky","1920","1080","","","","","","","","","","","627","zpl","Diagnostic trial","","f","15","0","false","false","LEFT","f","1","","RIGHT","false","","",""
"","html-keyboard-response","414","595214","0.0-751.0","uco9hwky","1920","1080","","","","","","","","","","","null","+","Fixation - short","","null","","","","","","","","","","","","",""
"","html-keyboard-response","415","595790","0.0-752.0","uco9hwky","1920","1080","","","","","","","","","","","575","zpl","Diagnostic trial","","j","15","1","false","true","RIGHT","j","1","","RIGHT","true","","",""
"","html-keyboard-response","416","596545","0.0-755.0","uco9hwky","1920","1080","","","","","","","","","","","null","+","Fixation - short","","null","","","","","","","","","","","","",""
"","html-keyboard-response","417","597484","0.0-756.0","uco9hwky","1920","1080","","","","","","","","","","","939","zpl","Diagnostic trial","","f","15","2","false","false","LEFT","f","1","","RIGHT","false","","",""
"","html-keyboard-response","418","598248","0.0-759.0","uco9hwky","1920","1080","","","","","","","","","","","null","+","Fixation - short","","null","","","","","","","","","","","","",""
"","html-keyboard-response","419","598928","0.0-760.0","uco9hwky","1920","1080","","","","","","","","","","","680","zpl","Diagnostic trial","","f","15","3","false","false","LEFT","f","1","","RIGHT","false","","",""
"","html-keyboard-response","420","599692","0.0-763.0","uco9hwky","1920","1080","","","","","","","","","","","null","+","Fixation - short","","null","","","","","","","","","","","","",""
"","html-keyboard-response","421","600412","0.0-764.0","uco9hwky","1920","1080","","","","","","","","","","","720","zpl","Diagnostic trial","","j","15","4","false","true","RIGHT","j","1","","RIGHT","true","","",""
"","html-keyboard-response","422","601168","0.0-767.0","uco9hwky","1920","1080","","","","","","","","","","","null","+","Fixation - short","","null","","","","","","","","","","","","",""
"","html-keyboard-response","423","601773","0.0-768.0","uco9hwky","1920","1080","","","","","","","","","","","605","zpl","Diagnostic trial","","j","15","5","false","true","RIGHT","j","1","","RIGHT","true","","",""
"","html-keyboard-response","424","602527","0.0-771.0","uco9hwky","1920","1080","","","","","","","","","","","null","+","Fixation - short","","null","","","","","","","","","","","","",""
"","html-keyboard-response","425","603258","0.0-772.0","uco9hwky","1920","1080","","","","","","","","","","","730","zpl","Diagnostic trial","","f","15","6","false","false","LEFT","f","1","","RIGHT","false","","",""
"","html-keyboard-response","426","604009","0.0-775.0","uco9hwky","1920","1080","","","","","","","","","","","null","+","Fixation - short","","null","","","","","","","","","","","","",""
"","html-keyboard-response","427","604871","0.0-776.0","uco9hwky","1920","1080","","","","","","","","","","","861","zpl","Diagnostic trial","","f","15","7","false","false","LEFT","f","1","","RIGHT","false","","",""
"","html-keyboard-response","428","605634","0.0-779.0","uco9hwky","1920","1080","","","","","","","","","","","null","+","Fixation - short","","null","","","","","","","","","","","","",""
"","html-keyboard-response","429","606347","0.0-780.0","uco9hwky","1920","1080","","","","","","","","","","","712","zpl","Diagnostic trial","","f","15","8","false","false","LEFT","f","1","","RIGHT","false","","",""
"","html-keyboard-response","430","607109","0.0-783.0","uco9hwky","1920","1080","","","","","","","","","","","null","+","Fixation - short","","null","","","","","","","","","","","","",""
"","html-keyboard-response","431","608309","0.0-784.0","uco9hwky","1920","1080","","","","","","","","","","","1199","upf","Diagnostic trial","","f","15","9","false","false","LEFT","f","1","","LEFT","true","","",""
"","html-keyboard-response","432","609060","0.0-787.0","uco9hwky","1920","1080","","","","","","","","","","","null","+","Fixation - short","","null","","","","","","","","","","","","",""
"","html-keyboard-response","433","610010","0.0-788.0","uco9hwky","1920","1080","","","","","","","","","","","949","upf","Diagnostic trial","","j","15","10","false","true","RIGHT","j","1","","LEFT","false","","",""
"","html-keyboard-response","434","610767","0.0-791.0","uco9hwky","1920","1080","","","","","","","","","","","null","+","Fixation - short","","null","","","","","","","","","","","","",""
"","html-keyboard-response","435","611591","0.0-792.0","uco9hwky","1920","1080","","","","","","","","","","","824","upf","Diagnostic trial","","j","15","11","false","true","RIGHT","j","1","","LEFT","false","","",""
"","html-keyboard-response","436","612353","0.0-795.0","uco9hwky","1920","1080","","","","","","","","","","","null","+","Fixation - short","","null","","","","","","","","","","","","",""
"","html-keyboard-response","437","613075","0.0-796.0","uco9hwky","1920","1080","","","","","","","","","","","721","zpl","Diagnostic trial","","f","15","12","false","false","LEFT","f","1","","RIGHT","false","","",""
"","html-keyboard-response","438","613837","0.0-799.0","uco9hwky","1920","1080","","","","","","","","","","","null","+","Fixation - short","","null","","","","","","","","","","","","",""
"","html-keyboard-response","439","614740","0.0-800.0","uco9hwky","1920","1080","","","","","","","","","","","902","upf","Inducer trial","","f","15","","true","","","j","0","RIGHT","","","","",""
"","call-function","440","614740","0.0-802.0-0.0","uco9hwky","","","","","","","","","","","","","","","","","","","","","","","","","","","","","",""
"","html-keyboard-response","441","615055","0.0-802.0-1.0","uco9hwky","1920","1080","","","","","","","","","","","null","Wrong","Feedback","","null","","","","","","","","","","","","",""
"","call-function","442","615055","0.0-802.0-2.0","uco9hwky","","","","","","","","","","","","","","","","","","","","","","","","","","","","","",""
"","html-keyboard-response","443","616565","0.0-803.0","uco9hwky","1920","1080","","","","","","","","","","","null","+","Fixation - long","","null","","","","","","","","","","","","",""
"","html-keyboard-response","444","622527","0.0-804.0","uco9hwky","1920","1080","","","","","","","","","","","5961","If jcr press RIGHT | If cmj press LEFT","Inducer instructions",""," ","16","","","","","","","","","","","",""
"","html-keyboard-response","445","623284","0.0-805.0","uco9hwky","1920","1080","","","","","","","","","","","null","+","Fixation - short","","null","","","","","","","","","","","","",""
"","html-keyboard-response","446","623986","0.0-806.0","uco9hwky","1920","1080","","","","","","","","","","","701","cmj","Diagnostic trial","","f","16","0","false","false","LEFT","f","1","","RIGHT","false","","",""
"","html-keyboard-response","447","624748","0.0-809.0","uco9hwky","1920","1080","","","","","","","","","","","null","+","Fixation - short","","null","","","","","","","","","","","","",""
"","html-keyboard-response","448","625458","0.0-810.0","uco9hwky","1920","1080","","","","","","","","","","","709","cmj","Diagnostic trial","","f","16","1","false","false","LEFT","f","1","","RIGHT","false","","",""
"","html-keyboard-response","449","626210","0.0-813.0","uco9hwky","1920","1080","","","","","","","","","","","null","+","Fixation - short","","null","","","","","","","","","","","","",""
"","html-keyboard-response","450","626846","0.0-814.0","uco9hwky","1920","1080","","","","","","","","","","","636","jcr","Diagnostic trial","","j","16","2","false","true","RIGHT","j","1","","LEFT","false","","",""
"","html-keyboard-response","451","627601","0.0-817.0","uco9hwky","1920","1080","","","","","","","","","","","null","+","Fixation - short","","null","","","","","","","","","","","","",""
"","html-keyboard-response","452","628456","0.0-818.0","uco9hwky","1920","1080","","","","","","","","","","","854","cmj","Diagnostic trial","","j","16","3","false","true","RIGHT","j","1","","RIGHT","true","","",""
"","html-keyboard-response","453","629209","0.0-821.0","uco9hwky","1920","1080","","","","","","","","","","","null","+","Fixation - short","","null","","","","","","","","","","","","",""
"","html-keyboard-response","454","629761","0.0-822.0","uco9hwky","1920","1080","","","","","","","","","","","551","jcr","Diagnostic trial","","f","16","4","false","false","LEFT","f","1","","LEFT","true","","",""
"","html-keyboard-response","455","630513","0.0-825.0","uco9hwky","1920","1080","","","","","","","","","","","null","+","Fixation - short","","null","","","","","","","","","","","","",""
"","html-keyboard-response","456","631029","0.0-826.0","uco9hwky","1920","1080","","","","","","","","","","","515","cmj","Diagnostic trial","","f","16","5","false","false","LEFT","f","1","","RIGHT","false","","",""
"","html-keyboard-response","457","631790","0.0-829.0","uco9hwky","1920","1080","","","","","","","","","","","null","+","Fixation - short","","null","","","","","","","","","","","","",""
"","html-keyboard-response","458","632495","0.0-830.0","uco9hwky","1920","1080","","","","","","","","","","","704","jcr","Diagnostic trial","","f","16","6","false","false","LEFT","f","1","","LEFT","true","","",""
"","html-keyboard-response","459","633259","0.0-833.0","uco9hwky","1920","1080","","","","","","","","","","","null","+","Fixation - short","","null","","","","","","","","","","","","",""
"","html-keyboard-response","460","633762","0.0-834.0","uco9hwky","1920","1080","","","","","","","","","","","503","jcr","Diagnostic trial","","f","16","7","false","false","LEFT","f","1","","LEFT","true","","",""
"","html-keyboard-response","461","634523","0.0-837.0","uco9hwky","1920","1080","","","","","","","","","","","null","+","Fixation - short","","null","","","","","","","","","","","","",""
"","html-keyboard-response","462","635033","0.0-838.0","uco9hwky","1920","1080","","","","","","","","","","","510","cmj","Diagnostic trial","","j","16","8","false","true","RIGHT","j","1","","RIGHT","true","","",""
"","html-keyboard-response","463","635788","0.0-841.0","uco9hwky","1920","1080","","","","","","","","","","","null","+","Fixation - short","","null","","","","","","","","","","","","",""
"","html-keyboard-response","464","636368","0.0-842.0","uco9hwky","1920","1080","","","","","","","","","","","579","jcr","Diagnostic trial","","j","16","9","false","true","RIGHT","j","1","","LEFT","false","","",""
"","html-keyboard-response","465","637122","0.0-845.0","uco9hwky","1920","1080","","","","","","","","","","","null","+","Fixation - short","","null","","","","","","","","","","","","",""
"","html-keyboard-response","466","637773","0.0-846.0","uco9hwky","1920","1080","","","","","","","","","","","650","jcr","Diagnostic trial","","f","16","10","false","false","LEFT","f","1","","LEFT","true","","",""
"","html-keyboard-response","467","638539","0.0-849.0","uco9hwky","1920","1080","","","","","","","","","","","null","+","Fixation - short","","null","","","","","","","","","","","","",""
"","html-keyboard-response","468","639665","0.0-850.0","uco9hwky","1920","1080","","","","","","","","","","","1126","cmj","Inducer trial","","f","16","","true","","","f","1","LEFT","","","","",""
"","html-keyboard-response","469","641172","0.0-853.0","uco9hwky","1920","1080","","","","","","","","","","","null","+","Fixation - long","","null","","","","","","","","","","","","",""
"","html-keyboard-response","470","645440","0.0-854.0","uco9hwky","1920","1080","","","","","","","","","","","4268","If imm press RIGHT | If oez press LEFT","Inducer instructions",""," ","17","","","","","","","","","","","",""
"","html-keyboard-response","471","646191","0.0-855.0","uco9hwky","1920","1080","","","","","","","","","","","null","+","Fixation - short","","null","","","","","","","","","","","","",""
"","html-keyboard-response","472","646726","0.0-856.0","uco9hwky","1920","1080","","","","","","","","","","","534","oez","Diagnostic trial","","j","17","0","false","true","RIGHT","j","1","","RIGHT","true","","",""
"","html-keyboard-response","473","647483","0.0-859.0","uco9hwky","1920","1080","","","","","","","","","","","null","+","Fixation - short","","null","","","","","","","","","","","","",""
"","html-keyboard-response","474","648078","0.0-860.0","uco9hwky","1920","1080","","","","","","","","","","","594","oez","Diagnostic trial","","f","17","1","false","false","LEFT","f","1","","RIGHT","false","","",""
"","html-keyboard-response","475","648837","0.0-863.0","uco9hwky","1920","1080","","","","","","","","","","","null","+","Fixation - short","","null","","","","","","","","","","","","",""
"","html-keyboard-response","476","649675","0.0-864.0","uco9hwky","1920","1080","","","","","","","","","","","837","imm","Diagnostic trial","","f","17","2","false","false","LEFT","f","1","","LEFT","true","","",""
"","html-keyboard-response","477","650441","0.0-867.0","uco9hwky","1920","1080","","","","","","","","","","","null","+","Fixation - short","","null","","","","","","","","","","","","",""
"","html-keyboard-response","478","651076","0.0-868.0","uco9hwky","1920","1080","","","","","","","","","","","635","oez","Diagnostic trial","","j","17","3","false","true","RIGHT","j","1","","RIGHT","true","","",""
"","html-keyboard-response","479","651839","0.0-871.0","uco9hwky","1920","1080","","","","","","","","","","","null","+","Fixation - short","","null","","","","","","","","","","","","",""
"","html-keyboard-response","480","652642","0.0-872.0","uco9hwky","1920","1080","","","","","","","","","","","803","oez","Diagnostic trial","","f","17","4","false","false","LEFT","f","1","","RIGHT","false","","",""
"","html-keyboard-response","481","653396","0.0-875.0","uco9hwky","1920","1080","","","","","","","","","","","null","+","Fixation - short","","null","","","","","","","","","","","","",""
"","html-keyboard-response","482","653992","0.0-876.0","uco9hwky","1920","1080","","","","","","","","","","","596","oez","Diagnostic trial","","f","17","5","false","false","LEFT","f","1","","RIGHT","false","","",""
"","html-keyboard-response","483","654746","0.0-879.0","uco9hwky","1920","1080","","","","","","","","","","","null","+","Fixation - short","","null","","","","","","","","","","","","",""
"","html-keyboard-response","484","655345","0.0-880.0","uco9hwky","1920","1080","","","","","","","","","","","598","oez","Diagnostic trial","","j","17","6","false","true","RIGHT","j","1","","RIGHT","true","","",""
"","html-keyboard-response","485","656099","0.0-883.0","uco9hwky","1920","1080","","","","","","","","","","","null","+","Fixation - short","","null","","","","","","","","","","","","",""
"","html-keyboard-response","486","657315","0.0-884.0","uco9hwky","1920","1080","","","","","","","","","","","1215","imm","Inducer trial","","j","17","","true","","","j","1","RIGHT","","","","",""
"","html-keyboard-response","487","658817","0.0-887.0","uco9hwky","1920","1080","","","","","","","","","","","null","+","Fixation - long","","null","","","","","","","","","","","","",""
"","html-keyboard-response","488","663663","0.0-888.0","uco9hwky","1920","1080","","","","","","","","","","","4846","If mmo press RIGHT | If mda press LEFT","Inducer instructions",""," ","18","","","","","","","","","","","",""
"","html-keyboard-response","489","664419","0.0-889.0","uco9hwky","1920","1080","","","","","","","","","","","null","+","Fixation - short","","null","","","","","","","","","","","","",""
"","html-keyboard-response","490","665119","0.0-890.0","uco9hwky","1920","1080","","","","","","","","","","","700","mmo","Diagnostic trial","","j","18","0","false","true","RIGHT","j","1","","LEFT","false","","",""
"","html-keyboard-response","491","665871","0.0-893.0","uco9hwky","1920","1080","","","","","","","","","","","null","+","Fixation - short","","null","","","","","","","","","","","","",""
"","html-keyboard-response","492","666867","0.0-894.0","uco9hwky","1920","1080","","","","","","","","","","","995","mda","Diagnostic trial","","f","18","1","false","false","LEFT","f","1","","RIGHT","false","","",""
"","html-keyboard-response","493","667633","0.0-897.0","uco9hwky","1920","1080","","","","","","","","","","","null","+","Fixation - short","","null","","","","","","","","","","","","",""
"","html-keyboard-response","494","668235","0.0-898.0","uco9hwky","1920","1080","","","","","","","","","","","602","mda","Diagnostic trial","","f","18","2","false","false","LEFT","f","1","","RIGHT","false","","",""
