"value","trial_type","trial_index","time_elapsed","internal_node_id","id","width","height","webaudio","browser","browser_version","mobile","os","fullscreen","vsync_rate","webcam","microphone","view_history","rt","stimulus","trial_info","success","response","inducer_run","diagnostic_run","inducer_trial","italic","correct_diag_response_side","correct_response_key","correct_response","correct_indu_response_side","correct_inducer_response_side","congruent","accuracy","open_feedback","interactive"
"","call-function","0","4","0.0-0.0","f4qbme8s","","","","","","","","","","","","","","","","","","","","","","","","","","","","","",""
"","browser-check","1","997","0.0-1.0","f4qbme8s","1280","559","true","chrome","121.0.0","false","Windows 10","true","60.86","true","true","","","","","","","","","","","","","","","","","","",""
"","instructions","2","33354","0.0-2.0","f4qbme8s","","","","","","","","","","","","[{""page_index"":0,""viewing_time"":4467},{""page_index"":1,""viewing_time"":22867},{""page_index"":2,""viewing_time"":5022}]","32356","The experiment and consent","The experiment and consent","","","","","","","","","","","","","","",""
"","fullscreen","3","42997","0.0-3.0","f4qbme8s","1280","720","","","","","","","","","","","8634","","Full screen","true","","","","","","","","","","","","","",""
"","instructions","4","89544","0.0-4.0","f4qbme8s","1280","720","","","","","","","","","","[{""page_index"":0,""viewing_time"":37461},{""page_index"":1,""viewing_time"":9086}]","46547","Instructions","Basic overview explanation","","","","","","","","","","","","","","",""
"","html-keyboard-response","5","104792","0.0-5.0","f4qbme8s","1280","720","","","","","","","","","","","13735","If italic press LEFT | If upright press RIGHT","Diagnostic instructions",""," ","","","","","","","","","","","","",""
"","html-keyboard-response","6","105552","0.0-6.0","f4qbme8s","1280","720","","","","","","","","","","","null","+","Fixation - short","","null","","","","","","","","","","","","",""
"","html-keyboard-response","7","106721","0.0-7.0","f4qbme8s","1280","720","","","","","","","","","","","1168","ume","Practice diganostic trial","","j","practice","0","false","0","RIGHT","j","1","","","","","",""
"","html-keyboard-response","8","107476","0.0-10.0","f4qbme8s","1280","720","","","","","","","","","","","null","+","Fixation - short","","null","","","","","","","","","","","","",""
"","html-keyboard-response","9","108287","0.0-11.0","f4qbme8s","1280","720","","","","","","","","","","","810","ume","Practice diganostic trial","","f","practice","1","false","1","LEFT","f","1","","","","","",""
"","html-keyboard-response","10","109040","0.0-14.0","f4qbme8s","1280","720","","","","","","","","","","","null","+","Fixation - short","","null","","","","","","","","","","","","",""
"","html-keyboard-response","11","109903","0.0-15.0","f4qbme8s","1280","720","","","","","","","","","","","862","ufc","Practice diganostic trial","","f","practice","2","false","1","LEFT","f","1","","","","","",""
"","html-keyboard-response","12","110657","0.0-18.0","f4qbme8s","1280","720","","","","","","","","","","","null","+","Fixation - short","","null","","","","","","","","","","","","",""
"","html-keyboard-response","13","111387","0.0-19.0","f4qbme8s","1280","720","","","","","","","","","","","730","ufc","Practice diganostic trial","","j","practice","3","false","0","RIGHT","j","1","","","","","",""
"","html-keyboard-response","14","112145","0.0-22.0","f4qbme8s","1280","720","","","","","","","","","","","null","+","Fixation - short","","null","","","","","","","","","","","","",""
"","html-keyboard-response","15","112780","0.0-23.0","f4qbme8s","1280","720","","","","","","","","","","","634","ume","Practice diganostic trial","","f","practice","4","false","1","LEFT","f","1","","","","","",""
"","html-keyboard-response","16","113541","0.0-26.0","f4qbme8s","1280","720","","","","","","","","","","","null","+","Fixation - short","","null","","","","","","","","","","","","",""
"","html-keyboard-response","17","113967","0.0-27.0","f4qbme8s","1280","720","","","","","","","","","","","425","ume","Practice diganostic trial","","j","practice","5","false","0","RIGHT","j","1","","","","","",""
"","html-keyboard-response","18","114721","0.0-30.0","f4qbme8s","1280","720","","","","","","","","","","","null","+","Fixation - short","","null","","","","","","","","","","","","",""
"","html-keyboard-response","19","115641","0.0-31.0","f4qbme8s","1280","720","","","","","","","","","","","919","ume","Practice diganostic trial","","j","practice","6","false","0","RIGHT","j","1","","","","","",""
"","html-keyboard-response","20","116406","0.0-34.0","f4qbme8s","1280","720","","","","","","","","","","","null","+","Fixation - short","","null","","","","","","","","","","","","",""
"","html-keyboard-response","21","117165","0.0-35.0","f4qbme8s","1280","720","","","","","","","","","","","758","ufc","Practice diganostic trial","","j","practice","7","false","0","RIGHT","j","1","","","","","",""
"","html-keyboard-response","22","117922","0.0-38.0","f4qbme8s","1280","720","","","","","","","","","","","null","+","Fixation - short","","null","","","","","","","","","","","","",""
"","html-keyboard-response","23","118487","0.0-39.0","f4qbme8s","1280","720","","","","","","","","","","","565","ume","Practice diganostic trial","","f","practice","8","false","1","LEFT","f","1","","","","","",""
"","html-keyboard-response","24","119252","0.0-42.0","f4qbme8s","1280","720","","","","","","","","","","","null","+","Fixation - short","","null","","","","","","","","","","","","",""
"","html-keyboard-response","25","119762","0.0-43.0","f4qbme8s","1280","720","","","","","","","","","","","510","ufc","Practice diganostic trial","","j","practice","9","false","0","RIGHT","j","1","","","","","",""
"","html-keyboard-response","26","120526","0.0-46.0","f4qbme8s","1280","720","","","","","","","","","","","null","+","Fixation - short","","null","","","","","","","","","","","","",""
"","html-keyboard-response","27","121189","0.0-47.0","f4qbme8s","1280","720","","","","","","","","","","","663","ufc","Practice diganostic trial","","j","practice","10","false","0","RIGHT","j","1","","","","","",""
"","html-keyboard-response","28","121953","0.0-50.0","f4qbme8s","1280","720","","","","","","","","","","","null","+","Fixation - short","","null","","","","","","","","","","","","",""
"","html-keyboard-response","29","122393","0.0-51.0","f4qbme8s","1280","720","","","","","","","","","","","439","ume","Practice diganostic trial","","j","practice","11","false","0","RIGHT","j","1","","","","","",""
"","html-keyboard-response","30","123156","0.0-54.0","f4qbme8s","1280","720","","","","","","","","","","","null","+","Fixation - short","","null","","","","","","","","","","","","",""
"","html-keyboard-response","31","123859","0.0-55.0","f4qbme8s","1280","720","","","","","","","","","","","702","ufc","Practice diganostic trial","","f","practice","12","false","1","LEFT","f","1","","","","","",""
"","html-keyboard-response","32","124611","0.0-58.0","f4qbme8s","1280","720","","","","","","","","","","","null","+","Fixation - short","","null","","","","","","","","","","","","",""
"","html-keyboard-response","33","125264","0.0-59.0","f4qbme8s","1280","720","","","","","","","","","","","653","ume","Practice diganostic trial","","j","practice","13","false","1","LEFT","f","0","","","","","",""
"","call-function","34","125265","0.0-61.0-0.0","f4qbme8s","","","","","","","","","","","","","","","","","","","","","","","","","","","","","",""
"","html-keyboard-response","35","125567","0.0-61.0-1.0","f4qbme8s","1280","720","","","","","","","","","","","null","Wrong","Feedback","","null","","","","","","","","","","","","",""
"","call-function","36","125567","0.0-61.0-2.0","f4qbme8s","","","","","","","","","","","","","","","","","","","","","","","","","","","","","",""
"","html-keyboard-response","37","126321","0.0-62.0","f4qbme8s","1280","720","","","","","","","","","","","null","+","Fixation - short","","null","","","","","","","","","","","","",""
"","html-keyboard-response","38","127178","0.0-63.0","f4qbme8s","1280","720","","","","","","","","","","","856","ufc","Practice diganostic trial","","f","practice","14","false","1","LEFT","f","1","","","","","",""
"","html-keyboard-response","39","127929","0.0-66.0","f4qbme8s","1280","720","","","","","","","","","","","null","+","Fixation - short","","null","","","","","","","","","","","","",""
"","html-keyboard-response","40","128494","0.0-67.0","f4qbme8s","1280","720","","","","","","","","","","","565","ufc","Practice diganostic trial","","f","practice","15","false","1","LEFT","f","1","","","","","",""
"","html-keyboard-response","41","129259","0.0-70.0","f4qbme8s","1280","720","","","","","","","","","","","null","+","Fixation - short","","null","","","","","","","","","","","","",""
"","instructions","42","134584","0.0-71.0","f4qbme8s","1280","720","","","","","","","","","","[{""page_index"":0,""viewing_time"":5325}]","5325","Instructions","Final experiment explanation","","","","","","","","","","","","","","",""
"","html-keyboard-response","43","143731","0.0-72.0","f4qbme8s","1280","720","","","","","","","","","","","7632","If goj press LEFT | If xlv press RIGHT","Practice inducer instructions",""," ","practice","","","","","","","","","","","",""
"","html-keyboard-response","44","144849","0.0-73.0","f4qbme8s","1280","720","","","","","","","","","","","1118","","Practice inducer trial","","j","practice","","true","","","j","1","RIGHT","","","","",""
"","html-keyboard-response","45","145612","0.0-76.0","f4qbme8s","1280","720","","","","","","","","","","","null","+","Fixation - short","","null","","","","","","","","","","","","",""
"","html-keyboard-response","46","154463","0.0-77.0","f4qbme8s","1280","720","","","","","","","","","","","8850","If asn press LEFT | If dnc press RIGHT","Practice inducer instructions",""," ","practice","","","","","","","","","","","",""
"","html-keyboard-response","47","155389","0.0-78.0","f4qbme8s","1280","720","","","","","","","","","","","925","","Practice inducer trial","","f","practice","","true","","","f","1","LEFT","","","","",""
"","html-keyboard-response","48","156154","0.0-81.0","f4qbme8s","1280","720","","","","","","","","","","","null","+","Fixation - short","","null","","","","","","","","","","","","",""
"","html-keyboard-response","49","160975","0.0-82.0","f4qbme8s","1280","720","","","","","","","","","","","4820","If pmf press LEFT | If tkb press RIGHT","Practice inducer instructions",""," ","practice","","","","","","","","","","","",""
"","html-keyboard-response","50","161669","0.0-83.0","f4qbme8s","1280","720","","","","","","","","","","","693","","Practice inducer trial","","j","practice","","true","","","f","0","LEFT","","","","",""
"","call-function","51","161669","0.0-85.0-0.0","f4qbme8s","","","","","","","","","","","","","","","","","","","","","","","","","","","","","",""
"","html-keyboard-response","52","161980","0.0-85.0-1.0","f4qbme8s","1280","720","","","","","","","","","","","null","Wrong","Feedback","","null","","","","","","","","","","","","",""
"","call-function","53","161981","0.0-85.0-2.0","f4qbme8s","","","","","","","","","","","","","","","","","","","","","","","","","","","","","",""
"","html-keyboard-response","54","162747","0.0-86.0","f4qbme8s","1280","720","","","","","","","","","","","null","+","Fixation - short","","null","","","","","","","","","","","","",""
"","html-keyboard-response","55","165870","0.0-87.0","f4qbme8s","1280","720","","","","","","","","","","","3123","If pxv press LEFT | If jcr press RIGHT","Practice inducer instructions",""," ","practice","","","","","","","","","","","",""
"","html-keyboard-response","56","166837","0.0-88.0","f4qbme8s","1280","720","","","","","","","","","","","966","","Practice inducer trial","","j","practice","","true","","","j","1","RIGHT","","","","",""
"","html-keyboard-response","57","167601","0.0-91.0","f4qbme8s","1280","720","","","","","","","","","","","null","+","Fixation - short","","null","","","","","","","","","","","","",""
"","html-keyboard-response","58","170164","0.0-92.0","f4qbme8s","1280","720","","","","","","","","","","","2562","If sjn press LEFT | If ydi press RIGHT","Practice inducer instructions",""," ","practice","","","","","","","","","","","",""
"","html-keyboard-response","59","170856","0.0-93.0","f4qbme8s","1280","720","","","","","","","","","","","692","","Practice inducer trial","","f","practice","","true","","","f","1","LEFT","","","","",""
"","html-keyboard-response","60","171621","0.0-96.0","f4qbme8s","1280","720","","","","","","","","","","","null","+","Fixation - short","","null","","","","","","","","","","","","",""
"","html-keyboard-response","61","176659","0.0-97.0","f4qbme8s","1280","720","","","","","","","","","","","5037","If mts press LEFT | If jey press RIGHT","Practice inducer instructions",""," ","practice","","","","","","","","","","","",""
"","html-keyboard-response","62","177811","0.0-98.0","f4qbme8s","1280","720","","","","","","","","","","","1151","","Practice inducer trial","","j","practice","","true","","","j","1","RIGHT","","","","",""
"","html-keyboard-response","63","178568","0.0-101.0","f4qbme8s","1280","720","","","","","","","","","","","null","+","Fixation - short","","null","","","","","","","","","","","","",""
"","html-keyboard-response","64","181520","0.0-102.0","f4qbme8s","1280","720","","","","","","","","","","","2952","End practice","End of practice",""," ","","","","","","","","","","","","",""
"","html-keyboard-response","65","183023","0.0-103.0","f4qbme8s","1280","720","","","","","","","","","","","null","+","Fixation - long","","null","","","","","","","","","","","","",""
"","html-keyboard-response","66","186599","0.0-104.0","f4qbme8s","1280","720","","","","","","","","","","","3575","If lpn press LEFT | If epy press RIGHT","Inducer instructions",""," ","0","","","","","","","","","","","",""
"","html-keyboard-response","67","187355","0.0-105.0","f4qbme8s","1280","720","","","","","","","","","","","null","+","Fixation - short","","null","","","","","","","","","","","","",""
"","html-keyboard-response","68","187798","0.0-106.0","f4qbme8s","1280","720","","","","","","","","","","","442","lpn","Diagnostic trial","","f","0","0","false","true","LEFT","f","1","","LEFT","true","","",""
"","html-keyboard-response","69","188561","0.0-109.0","f4qbme8s","1280","720","","","","","","","","","","","null","+","Fixation - short","","null","","","","","","","","","","","","",""
"","html-keyboard-response","70","189446","0.0-110.0","f4qbme8s","1280","720","","","","","","","","","","","884","epy","Diagnostic trial","","j","0","1","false","true","LEFT","f","0","","RIGHT","false","","",""
"","call-function","71","189446","0.0-112.0-0.0","f4qbme8s","","","","","","","","","","","","","","","","","","","","","","","","","","","","","",""
"","html-keyboard-response","72","189754","0.0-112.0-1.0","f4qbme8s","1280","720","","","","","","","","","","","null","Wrong","Feedback","","null","","","","","","","","","","","","",""
"","call-function","73","189755","0.0-112.0-2.0","f4qbme8s","","","","","","","","","","","","","","","","","","","","","","","","","","","","","",""
"","html-keyboard-response","74","190518","0.0-113.0","f4qbme8s","1280","720","","","","","","","","","","","null","+","Fixation - short","","null","","","","","","","","","","","","",""
"","html-keyboard-response","75","191233","0.0-114.0","f4qbme8s","1280","720","","","","","","","","","","","715","lpn","Diagnostic trial","","f","0","2","false","true","LEFT","f","1","","LEFT","true","","",""
"","html-keyboard-response","76","191993","0.0-117.0","f4qbme8s","1280","720","","","","","","","","","","","null","+","Fixation - short","","null","","","","","","","","","","","","",""
"","html-keyboard-response","77","192706","0.0-118.0","f4qbme8s","1280","720","","","","","","","","","","","712","epy","Diagnostic trial","","j","0","3","false","true","LEFT","f","0","","RIGHT","false","","",""
"","call-function","78","192707","0.0-120.0-0.0","f4qbme8s","","","","","","","","","","","","","","","","","","","","","","","","","","","","","",""
"","html-keyboard-response","79","193023","0.0-120.0-1.0","f4qbme8s","1280","720","","","","","","","","","","","null","Wrong","Feedback","","null","","","","","","","","","","","","",""
"","call-function","80","193023","0.0-120.0-2.0","f4qbme8s","","","","","","","","","","","","","","","","","","","","","","","","","","","","","",""
"","html-keyboard-response","81","193788","0.0-121.0","f4qbme8s","1280","720","","","","","","","","","","","null","+","Fixation - short","","null","","","","","","","","","","","","",""
"","html-keyboard-response","82","194239","0.0-122.0","f4qbme8s","1280","720","","","","","","","","","","","450","lpn","Diagnostic trial","","f","0","4","false","true","LEFT","f","1","","LEFT","true","","",""
"","html-keyboard-response","83","194991","0.0-125.0","f4qbme8s","1280","720","","","","","","","","","","","null","+","Fixation - short","","null","","","","","","","","","","","","",""
"","html-keyboard-response","84","195510","0.0-126.0","f4qbme8s","1280","720","","","","","","","","","","","519","epy","Diagnostic trial","","f","0","5","false","false","RIGHT","j","0","","RIGHT","true","","",""
"","call-function","85","195511","0.0-128.0-0.0","f4qbme8s","","","","","","","","","","","","","","","","","","","","","","","","","","","","","",""
"","html-keyboard-response","86","195818","0.0-128.0-1.0","f4qbme8s","1280","720","","","","","","","","","","","null","Wrong","Feedback","","null","","","","","","","","","","","","",""
"","call-function","87","195819","0.0-128.0-2.0","f4qbme8s","","","","","","","","","","","","","","","","","","","","","","","","","","","","","",""
"","html-keyboard-response","88","196573","0.0-129.0","f4qbme8s","1280","720","","","","","","","","","","","null","+","Fixation - short","","null","","","","","","","","","","","","",""
"","html-keyboard-response","89","197084","0.0-130.0","f4qbme8s","1280","720","","","","","","","","","","","510","epy","Diagnostic trial","","f","0","6","false","false","RIGHT","j","0","","RIGHT","true","","",""
"","call-function","90","197085","0.0-132.0-0.0","f4qbme8s","","","","","","","","","","","","","","","","","","","","","","","","","","","","","",""
"","html-keyboard-response","91","197401","0.0-132.0-1.0","f4qbme8s","1280","720","","","","","","","","","","","null","Wrong","Feedback","","null","","","","","","","","","","","","",""
"","call-function","92","197401","0.0-132.0-2.0","f4qbme8s","","","","","","","","","","","","","","","","","","","","","","","","","","","","","",""
"","html-keyboard-response","93","198164","0.0-133.0","f4qbme8s","1280","720","","","","","","","","","","","null","+","Fixation - short","","null","","","","","","","","","","","","",""
"","html-keyboard-response","94","199183","0.0-134.0","f4qbme8s","1280","720","","","","","","","","","","","1017","lpn","Inducer trial","","f","0","","true","","","f","1","LEFT","","","","",""
"","html-keyboard-response","95","200687","0.0-137.0","f4qbme8s","1280","720","","","","","","","","","","","null","+","Fixation - long","","null","","","","","","","","","","","","",""
"","html-keyboard-response","96","203070","0.0-138.0","f4qbme8s","1280","720","","","","","","","","","","","2382","If saj press LEFT | If swr press RIGHT","Inducer instructions",""," ","1","","","","","","","","","","","",""
"","html-keyboard-response","97","203826","0.0-139.0","f4qbme8s","1280","720","","","","","","","","","","","null","+","Fixation - short","","null","","","","","","","","","","","","",""
"","html-keyboard-response","98","204566","0.0-140.0","f4qbme8s","1280","720","","","","","","","","","","","740","swr","Diagnostic trial","","j","1","0","false","true","LEFT","f","0","","RIGHT","false","","",""
"","call-function","99","204567","0.0-142.0-0.0","f4qbme8s","","","","","","","","","","","","","","","","","","","","","","","","","","","","","",""
"","html-keyboard-response","100","204874","0.0-142.0-1.0","f4qbme8s","1280","720","","","","","","","","","","","null","Wrong","Feedback","","null","","","","","","","","","","","","",""
"","call-function","101","204875","0.0-142.0-2.0","f4qbme8s","","","","","","","","","","","","","","","","","","","","","","","","","","","","","",""
"","html-keyboard-response","102","205636","0.0-143.0","f4qbme8s","1280","720","","","","","","","","","","","null","+","Fixation - short","","null","","","","","","","","","","","","",""
"","html-keyboard-response","103","206293","0.0-144.0","f4qbme8s","1280","720","","","","","","","","","","","656","saj","Diagnostic trial","","f","1","1","false","true","LEFT","f","1","","LEFT","true","","",""
"","html-keyboard-response","104","207047","0.0-147.0","f4qbme8s","1280","720","","","","","","","","","","","null","+","Fixation - short","","null","","","","","","","","","","","","",""
"","html-keyboard-response","105","207694","0.0-148.0","f4qbme8s","1280","720","","","","","","","","","","","646","swr","Diagnostic trial","","j","1","2","false","false","RIGHT","j","1","","RIGHT","true","","",""
"","html-keyboard-response","106","208447","0.0-151.0","f4qbme8s","1280","720","","","","","","","","","","","null","+","Fixation - short","","null","","","","","","","","","","","","",""
"","html-keyboard-response","107","209120","0.0-152.0","f4qbme8s","1280","720","","","","","","","","","","","672","swr","Diagnostic trial","","j","1","3","false","true","LEFT","f","0","","RIGHT","false","","",""
"","call-function","108","209120","0.0-154.0-0.0","f4qbme8s","","","","","","","","","","","","","","","","","","","","","","","","","","","","","",""
"","html-keyboard-response","109","209429","0.0-154.0-1.0","f4qbme8s","1280","720","","","","","","","","","","","null","Wrong","Feedback","","null","","","","","","","","","","","","",""
"","call-function","110","209430","0.0-154.0-2.0","f4qbme8s","","","","","","","","","","","","","","","","","","","","","","","","","","","","","",""
"","html-keyboard-response","111","210192","0.0-155.0","f4qbme8s","1280","720","","","","","","","","","","","null","+","Fixation - short","","null","","","","","","","","","","","","",""
"","html-keyboard-response","112","211129","0.0-156.0","f4qbme8s","1280","720","","","","","","","","","","","936","swr","Inducer trial","","j","1","","true","","","j","1","RIGHT","","","","",""
"","html-keyboard-response","113","212637","0.0-159.0","f4qbme8s","1280","720","","","","","","","","","","","null","+","Fixation - long","","null","","","","","","","","","","","","",""
"","html-keyboard-response","114","214254","0.0-160.0","f4qbme8s","1280","720","","","","","","","","","","","1617","If rif press LEFT | If ttm press RIGHT","Inducer instructions",""," ","2","","","","","","","","","","","",""
"","html-keyboard-response","115","215011","0.0-161.0","f4qbme8s","1280","720","","","","","","","","","","","null","+","Fixation - short","","null","","","","","","","","","","","","",""
"","html-keyboard-response","116","216599","0.0-162.0","f4qbme8s","1280","720","","","","","","","","","","","1588","rif","Diagnostic trial","","f","2","0","false","true","LEFT","f","1","","LEFT","true","","",""
"","html-keyboard-response","117","217351","0.0-165.0","f4qbme8s","1280","720","","","","","","","","","","","null","+","Fixation - short","","null","","","","","","","","","","","","",""
"","html-keyboard-response","118","218199","0.0-166.0","f4qbme8s","1280","720","","","","","","","","","","","847","rif","Diagnostic trial","","f","2","1","false","true","LEFT","f","1","","LEFT","true","","",""
"","html-keyboard-response","119","218960","0.0-169.0","f4qbme8s","1280","720","","","","","","","","","","","null","+","Fixation - short","","null","","","","","","","","","","","","",""
"","html-keyboard-response","120","219733","0.0-170.0","f4qbme8s","1280","720","","","","","","","","","","","773","ttm","Diagnostic trial","","j","2","2","false","false","RIGHT","j","1","","RIGHT","true","","",""
"","html-keyboard-response","121","220495","0.0-173.0","f4qbme8s","1280","720","","","","","","","","","","","null","+","Fixation - short","","null","","","","","","","","","","","","",""
"","html-keyboard-response","122","221375","0.0-174.0","f4qbme8s","1280","720","","","","","","","","","","","879","rif","Diagnostic trial","","f","2","3","false","false","RIGHT","j","0","","LEFT","false","","",""
"","call-function","123","221375","0.0-176.0-0.0","f4qbme8s","","","","","","","","","","","","","","","","","","","","","","","","","","","","","",""
"","html-keyboard-response","124","221682","0.0-176.0-1.0","f4qbme8s","1280","720","","","","","","","","","","","null","Wrong","Feedback","","null","","","","","","","","","","","","",""
"","call-function","125","221682","0.0-176.0-2.0","f4qbme8s","","","","","","","","","","","","","","","","","","","","","","","","","","","","","",""
"","html-keyboard-response","126","222436","0.0-177.0","f4qbme8s","1280","720","","","","","","","","","","","null","+","Fixation - short","","null","","","","","","","","","","","","",""
"","html-keyboard-response","127","223044","0.0-178.0","f4qbme8s","1280","720","","","","","","","","","","","607","rif","Diagnostic trial","","j","2","4","false","true","LEFT","f","0","","LEFT","true","","",""
"","call-function","128","223044","0.0-180.0-0.0","f4qbme8s","","","","","","","","","","","","","","","","","","","","","","","","","","","","","",""
"","html-keyboard-response","129","223358","0.0-180.0-1.0","f4qbme8s","1280","720","","","","","","","","","","","null","Wrong","Feedback","","null","","","","","","","","","","","","",""
"","call-function","130","223358","0.0-180.0-2.0","f4qbme8s","","","","","","","","","","","","","","","","","","","","","","","","","","","","","",""
"","html-keyboard-response","131","224124","0.0-181.0","f4qbme8s","1280","720","","","","","","","","","","","null","+","Fixation - short","","null","","","","","","","","","","","","",""
"","html-keyboard-response","132","224773","0.0-182.0","f4qbme8s","1280","720","","","","","","","","","","","648","rif","Diagnostic trial","","f","2","5","false","false","RIGHT","j","0","","LEFT","false","","",""
"","call-function","133","224773","0.0-184.0-0.0","f4qbme8s","","","","","","","","","","","","","","","","","","","","","","","","","","","","","",""
"","html-keyboard-response","134","225083","0.0-184.0-1.0","f4qbme8s","1280","720","","","","","","","","","","","null","Wrong","Feedback","","null","","","","","","","","","","","","",""
"","call-function","135","225084","0.0-184.0-2.0","f4qbme8s","","","","","","","","","","","","","","","","","","","","","","","","","","","","","",""
"","html-keyboard-response","136","225849","0.0-185.0","f4qbme8s","1280","720","","","","","","","","","","","null","+","Fixation - short","","null","","","","","","","","","","","","",""
"","html-keyboard-response","137","226288","0.0-186.0","f4qbme8s","1280","720","","","","","","","","","","","439","rif","Diagnostic trial","","j","2","6","false","true","LEFT","f","0","","LEFT","true","","",""
"","call-function","138","226289","0.0-188.0-0.0","f4qbme8s","","","","","","","","","","","","","","","","","","","","","","","","","","","","","",""
"","html-keyboard-response","139","226601","0.0-188.0-1.0","f4qbme8s","1280","720","","","","","","","","","","","null","Wrong","Feedback","","null","","","","","","","","","","","","",""
"","call-function","140","226602","0.0-188.0-2.0","f4qbme8s","","","","","","","","","","","","","","","","","","","","","","","","","","","","","",""
"","html-keyboard-response","141","227355","0.0-189.0","f4qbme8s","1280","720","","","","","","","","","","","null","+","Fixation - short","","null","","","","","","","","","","","","",""
"","html-keyboard-response","142","227784","0.0-190.0","f4qbme8s","1280","720","","","","","","","","","","","428","rif","Diagnostic trial","","f","2","7","false","false","RIGHT","j","0","","LEFT","false","","",""
"","call-function","143","227784","0.0-192.0-0.0","f4qbme8s","","","","","","","","","","","","","","","","","","","","","","","","","","","","","",""
"","html-keyboard-response","144","228086","0.0-192.0-1.0","f4qbme8s","1280","720","","","","","","","","","","","null","Wrong","Feedback","","null","","","","","","","","","","","","",""
"","call-function","145","228087","0.0-192.0-2.0","f4qbme8s","","","","","","","","","","","","","","","","","","","","","","","","","","","","","",""
"","html-keyboard-response","146","228849","0.0-193.0","f4qbme8s","1280","720","","","","","","","","","","","null","+","Fixation - short","","null","","","","","","","","","","","","",""
"","html-keyboard-response","147","229335","0.0-194.0","f4qbme8s","1280","720","","","","","","","","","","","486","rif","Diagnostic trial","","f","2","8","false","false","RIGHT","j","0","","LEFT","false","","",""
"","call-function","148","229336","0.0-196.0-0.0","f4qbme8s","","","","","","","","","","","","","","","","","","","","","","","","","","","","","",""
"","html-keyboard-response","149","229645","0.0-196.0-1.0","f4qbme8s","1280","720","","","","","","","","","","","null","Wrong","Feedback","","null","","","","","","","","","","","","",""
"","call-function","150","229645","0.0-196.0-2.0","f4qbme8s","","","","","","","","","","","","","","","","","","","","","","","","","","","","","",""
"","html-keyboard-response","151","230396","0.0-197.0","f4qbme8s","1280","720","","","","","","","","","","","null","+","Fixation - short","","null","","","","","","","","","","","","",""
"","html-keyboard-response","152","231687","0.0-198.0","f4qbme8s","1280","720","","","","","","","","","","","1290","ttm","Diagnostic trial","","j","2","9","false","true","LEFT","f","0","","RIGHT","false","","",""
"","call-function","153","231687","0.0-200.0-0.0","f4qbme8s","","","","","","","","","","","","","","","","","","","","","","","","","","","","","",""
"","html-keyboard-response","154","231992","0.0-200.0-1.0","f4qbme8s","1280","720","","","","","","","","","","","null","Wrong","Feedback","","null","","","","","","","","","","","","",""
"","call-function","155","231992","0.0-200.0-2.0","f4qbme8s","","","","","","","","","","","","","","","","","","","","","","","","","","","","","",""
"","html-keyboard-response","156","232757","0.0-201.0","f4qbme8s","1280","720","","","","","","","","","","","null","+","Fixation - short","","null","","","","","","","","","","","","",""
"","html-keyboard-response","157","233522","0.0-202.0","f4qbme8s","1280","720","","","","","","","","","","","764","rif","Inducer trial","","j","2","","true","","","f","0","LEFT","","","","",""
"","call-function","158","233522","0.0-204.0-0.0","f4qbme8s","","","","","","","","","","","","","","","","","","","","","","","","","","","","","",""
"","html-keyboard-response","159","233836","0.0-204.0-1.0","f4qbme8s","1280","720","","","","","","","","","","","null","Wrong","Feedback","","null","","","","","","","","","","","","",""
"","call-function","160","233837","0.0-204.0-2.0","f4qbme8s","","","","","","","","","","","","","","","","","","","","","","","","","","","","","",""
"","html-keyboard-response","161","235346","0.0-205.0","f4qbme8s","1280","720","","","","","","","","","","","null","+","Fixation - long","","null","","","","","","","","","","","","",""
"","html-keyboard-response","162","236694","0.0-206.0","f4qbme8s","1280","720","","","","","","","","","","","1348","If dij press LEFT | If gfm press RIGHT","Inducer instructions",""," ","3","","","","","","","","","","","",""
"","html-keyboard-response","163","237457","0.0-207.0","f4qbme8s","1280","720","","","","","","","","","","","null","+","Fixation - short","","null","","","","","","","","","","","","",""
"","html-keyboard-response","164","238183","0.0-208.0","f4qbme8s","1280","720","","","","","","","","","","","726","dij","Diagnostic trial","","f","3","0","false","true","LEFT","f","1","","LEFT","true","","",""
"","html-keyboard-response","165","238936","0.0-211.0","f4qbme8s","1280","720","","","","","","","","","","","null","+","Fixation - short","","null","","","","","","","","","","","","",""
"","html-keyboard-response","166","239641","0.0-212.0","f4qbme8s","1280","720","","","","","","","","","","","704","dij","Diagnostic trial","","f","3","1","false","false","RIGHT","j","0","","LEFT","false","","",""
"","call-function","167","239641","0.0-214.0-0.0","f4qbme8s","","","","","","","","","","","","","","","","","","","","","","","","","","","","","",""
"","html-keyboard-response","168","239956","0.0-214.0-1.0","f4qbme8s","1280","720","","","","","","","","","","","null","Wrong","Feedback","","null","","","","","","","","","","","","",""
"","call-function","169","239957","0.0-214.0-2.0","f4qbme8s","","","","","","","","","","","","","","","","","","","","","","","","","","","","","",""
"","html-keyboard-response","170","240711","0.0-215.0","f4qbme8s","1280","720","","","","","","","","","","","null","+","Fixation - short","","null","","","","","","","","","","","","",""
"","html-keyboard-response","171","241711","0.0-216.0","f4qbme8s","1280","720","","","","","","","","","","","1000","gfm","Diagnostic trial","","j","3","2","false","false","RIGHT","j","1","","RIGHT","true","","",""
"","html-keyboard-response","172","242476","0.0-219.0","f4qbme8s","1280","720","","","","","","","","","","","null","+","Fixation - short","","null","","","","","","","","","","","","",""
"","html-keyboard-response","173","243736","0.0-220.0","f4qbme8s","1280","720","","","","","","","","","","","1259","gfm","Diagnostic trial","","j","3","3","false","false","RIGHT","j","1","","RIGHT","true","","",""
"","html-keyboard-response","174","244491","0.0-223.0","f4qbme8s","1280","720","","","","","","","","","","","null","+","Fixation - short","","null","","","","","","","","","","","","",""
"","html-keyboard-response","175","245015","0.0-224.0","f4qbme8s","1280","720","","","","","","","","","","","523","gfm","Diagnostic trial","","j","3","4","false","true","LEFT","f","0","","RIGHT","false","","",""
"","call-function","176","245015","0.0-226.0-0.0","f4qbme8s","","","","","","","","","","","","","","","","","","","","","","","","","","","","","",""
"","html-keyboard-response","177","245325","0.0-226.0-1.0","f4qbme8s","1280","720","","","","","","","","","","","null","Wrong","Feedback","","null","","","","","","","","","","","","",""
"","call-function","178","245326","0.0-226.0-2.0","f4qbme8s","","","","","","","","","","","","","","","","","","","","","","","","","","","","","",""
"","html-keyboard-response","179","246092","0.0-227.0","f4qbme8s","1280","720","","","","","","","","","","","null","+","Fixation - short","","null","","","","","","","","","","","","",""
"","html-keyboard-response","180","246595","0.0-228.0","f4qbme8s","1280","720","","","","","","","","","","","502","dij","Diagnostic trial","","f","3","5","false","true","LEFT","f","1","","LEFT","true","","",""
"","html-keyboard-response","181","247353","0.0-231.0","f4qbme8s","1280","720","","","","","","","","","","","null","+","Fixation - short","","null","","","","","","","","","","","","",""
"","html-keyboard-response","182","247682","0.0-232.0","f4qbme8s","1280","720","","","","","","","","","","","328","gfm","Diagnostic trial","","f","3","6","false","false","RIGHT","j","0","","RIGHT","true","","",""
"","call-function","183","247682","0.0-234.0-0.0","f4qbme8s","","","","","","","","","","","","","","","","","","","","","","","","","","","","","",""
"","html-keyboard-response","184","247994","0.0-234.0-1.0","f4qbme8s","1280","720","","","","","","","","","","","null","Wrong","Feedback","","null","","","","","","","","","","","","",""
"","call-function","185","247995","0.0-234.0-2.0","f4qbme8s","","","","","","","","","","","","","","","","","","","","","","","","","","","","","",""
"","html-keyboard-response","186","248755","0.0-235.0","f4qbme8s","1280","720","","","","","","","","","","","null","+","Fixation - short","","null","","","","","","","","","","","","",""
"","html-keyboard-response","187","248837","0.0-236.0","f4qbme8s","1280","720","","","","","","","","","","","81","dij","Diagnostic trial","","j","3","7","false","true","LEFT","f","0","","LEFT","true","","",""
"","call-function","188","248837","0.0-238.0-0.0","f4qbme8s","","","","","","","","","","","","","","","","","","","","","","","","","","","","","",""
"","html-keyboard-response","189","249145","0.0-238.0-1.0","f4qbme8s","1280","720","","","","","","","","","","","null","Wrong","Feedback","","null","","","","","","","","","","","","",""
"","call-function","190","249145","0.0-238.0-2.0","f4qbme8s","","","","","","","","","","","","","","","","","","","","","","","","","","","","","",""
"","html-keyboard-response","191","249897","0.0-239.0","f4qbme8s","1280","720","","","","","","","","","","","null","+","Fixation - short","","null","","","","","","","","","","","","",""
"","html-keyboard-response","192","250315","0.0-240.0","f4qbme8s","1280","720","","","","","","","","","","","417","gfm","Diagnostic trial","","f","3","8","false","true","LEFT","f","1","","RIGHT","false","","",""
"","html-keyboard-response","193","251073","0.0-243.0","f4qbme8s","1280","720","","","","","","","","","","","null","+","Fixation - short","","null","","","","","","","","","","","","",""
"","html-keyboard-response","194","251202","0.0-244.0","f4qbme8s","1280","720","","","","","","","","","","","129","dij","Diagnostic trial","","f","3","9","false","true","LEFT","f","1","","LEFT","true","","",""
"","html-keyboard-response","195","251958","0.0-247.0","f4qbme8s","1280","720","","","","","","","","","","","null","+","Fixation - short","","null","","","","","","","","","","","","",""
"","html-keyboard-response","196","252093","0.0-248.0","f4qbme8s","1280","720","","","","","","","","","","","135","gfm","Diagnostic trial","","f","3","10","false","false","RIGHT","j","0","","RIGHT","true","","",""
"","call-function","197","252094","0.0-250.0-0.0","f4qbme8s","","","","","","","","","","","","","","","","","","","","","","","","","","","","","",""
"","html-keyboard-response","198","252408","0.0-250.0-1.0","f4qbme8s","1280","720","","","","","","","","","","","null","Wrong","Feedback","","null","","","","","","","","","","","","",""
"","call-function","199","252409","0.0-250.0-2.0","f4qbme8s","","","","","","","","","","","","","","","","","","","","","","","","","","","","","",""
"","html-keyboard-response","200","253171","0.0-251.0","f4qbme8s","1280","720","","","","","","","","","","","null","+","Fixation - short","","null","","","","","","","","","","","","",""
"","html-keyboard-response","201","253578","0.0-252.0","f4qbme8s","1280","720","","","","","","","","","","","406","dij","Diagnostic trial","","j","3","11","false","false","RIGHT","j","1","","LEFT","false","","",""
"","html-keyboard-response","202","254341","0.0-255.0","f4qbme8s","1280","720","","","","","","","","","","","null","+","Fixation - short","","null","","","","","","","","","","","","",""
"","html-keyboard-response","203","254689","0.0-256.0","f4qbme8s","1280","720","","","","","","","","","","","347","dij","Diagnostic trial","","j","3","12","false","false","RIGHT","j","1","","LEFT","false","","",""
"","html-keyboard-response","204","255449","0.0-259.0","f4qbme8s","1280","720","","","","","","","","","","","null","+","Fixation - short","","null","","","","","","","","","","","","",""
"","html-keyboard-response","205","255907","0.0-260.0","f4qbme8s","1280","720","","","","","","","","","","","457","dij","Diagnostic trial","","j","3","13","false","true","LEFT","f","0","","LEFT","true","","",""
"","call-function","206","255907","0.0-262.0-0.0","f4qbme8s","","","","","","","","","","","","","","","","","","","","","","","","","","","","","",""
"","html-keyboard-response","207","256209","0.0-262.0-1.0","f4qbme8s","1280","720","","","","","","","","","","","null","Wrong","Feedback","","null","","","","","","","","","","","","",""
"","call-function","208","256209","0.0-262.0-2.0","f4qbme8s","","","","","","","","","","","","","","","","","","","","","","","","","","","","","",""
"","html-keyboard-response","209","256961","0.0-263.0","f4qbme8s","1280","720","","","","","","","","","","","null","+","Fixation - short","","null","","","","","","","","","","","","",""
"","html-keyboard-response","210","257594","0.0-264.0","f4qbme8s","1280","720","","","","","","","","","","","632","dij","Inducer trial","","f","3","","true","","","f","1","LEFT","","","","",""
"","html-keyboard-response","211","259108","0.0-267.0","f4qbme8s","1280","720","","","","","","","","","","","null","+","Fixation - long","","null","","","","","","","","","","","","",""
"","html-keyboard-response","212","262558","0.0-268.0","f4qbme8s","1280","720","","","","","","","","","","","3450","If ivr press LEFT | If iei press RIGHT","Inducer instructions",""," ","4","","","","","","","","","","","",""
"","html-keyboard-response","213","263317","0.0-269.0","f4qbme8s","1280","720","","","","","","","","","","","null","+","Fixation - short","","null","","","","","","","","","","","","",""
"","html-keyboard-response","214","264189","0.0-270.0","f4qbme8s","1280","720","","","","","","","","","","","872","iei","Diagnostic trial","","j","4","0","false","true","LEFT","f","0","","RIGHT","false","","",""
"","call-function","215","264190","0.0-272.0-0.0","f4qbme8s","","","","","","","","","","","","","","","","","","","","","","","","","","","","","",""
"","html-keyboard-response","216","264492","0.0-272.0-1.0","f4qbme8s","1280","720","","","","","","","","","","","null","Wrong","Feedback","","null","","","","","","","","","","","","",""
"","call-function","217","264492","0.0-272.0-2.0","f4qbme8s","","","","","","","","","","","","","","","","","","","","","","","","","","","","","",""
"","html-keyboard-response","218","265255","0.0-273.0","f4qbme8s","1280","720","","","","","","","","","","","null","+","Fixation - short","","null","","","","","","","","","","","","",""
"","html-keyboard-response","219","265848","0.0-274.0","f4qbme8s","1280","720","","","","","","","","","","","592","ivr","Diagnostic trial","","f","4","1","false","false","RIGHT","j","0","","LEFT","false","","",""
"","call-function","220","265848","0.0-276.0-0.0","f4qbme8s","","","","","","","","","","","","","","","","","","","","","","","","","","","","","",""
"","html-keyboard-response","221","266163","0.0-276.0-1.0","f4qbme8s","1280","720","","","","","","","","","","","null","Wrong","Feedback","","null","","","","","","","","","","","","",""
"","call-function","222","266163","0.0-276.0-2.0","f4qbme8s","","","","","","","","","","","","","","","","","","","","","","","","","","","","","",""
"","html-keyboard-response","223","266929","0.0-277.0","f4qbme8s","1280","720","","","","","","","","","","","null","+","Fixation - short","","null","","","","","","","","","","","","",""
"","html-keyboard-response","224","267797","0.0-278.0","f4qbme8s","1280","720","","","","","","","","","","","867","ivr","Diagnostic trial","","f","4","2","false","false","RIGHT","j","0","","LEFT","false","","",""
"","call-function","225","267797","0.0-280.0-0.0","f4qbme8s","","","","","","","","","","","","","","","","","","","","","","","","","","","","","",""
"","html-keyboard-response","226","268105","0.0-280.0-1.0","f4qbme8s","1280","720","","","","","","","","","","","null","Wrong","Feedback","","null","","","","","","","","","","","","",""
"","call-function","227","268106","0.0-280.0-2.0","f4qbme8s","","","","","","","","","","","","","","","","","","","","","","","","","","","","","",""
"","html-keyboard-response","228","268871","0.0-281.0","f4qbme8s","1280","720","","","","","","","","","","","null","+","Fixation - short","","null","","","","","","","","","","","","",""
"","html-keyboard-response","229","269850","0.0-282.0","f4qbme8s","1280","720","","","","","","","","","","","978","ivr","Diagnostic trial","","f","4","3","false","true","LEFT","f","1","","LEFT","true","","",""
"","html-keyboard-response","230","270608","0.0-285.0","f4qbme8s","1280","720","","","","","","","","","","","null","+","Fixation - short","","null","","","","","","","","","","","","",""
"","html-keyboard-response","231","272615","0.0-286.0","f4qbme8s","1280","720","","","","","","","","","","","null","iei","Diagnostic trial","","null","4","4","false","true","LEFT","f","NaN","","RIGHT","false","","",""
"","call-function","232","272615","0.0-287.0-0.0","f4qbme8s","","","","","","","","","","","","","","","","","","","","","","","","","","","","","",""
"","html-keyboard-response","233","272927","0.0-287.0-1.0","f4qbme8s","1280","720","","","","","","","","","","","null","Slow","Feedback","","null","","","","","","","","","","","","",""
"","call-function","234","272928","0.0-287.0-2.0","f4qbme8s","","","","","","","","","","","","","","","","","","","","","","","","","","","","","",""
"","html-keyboard-response","235","273691","0.0-289.0","f4qbme8s","1280","720","","","","","","","","","","","null","+","Fixation - short","","null","","","","","","","","","","","","",""
"","html-keyboard-response","236","273843","0.0-290.0","f4qbme8s","1280","720","","","","","","","","","","","151","iei","Diagnostic trial","","j","4","5","false","true","LEFT","f","0","","RIGHT","false","","",""
"","call-function","237","273843","0.0-292.0-0.0","f4qbme8s","","","","","","","","","","","","","","","","","","","","","","","","","","","","","",""
"","html-keyboard-response","238","274151","0.0-292.0-1.0","f4qbme8s","1280","720","","","","","","","","","","","null","Wrong","Feedback","","null","","","","","","","","","","","","",""
"","call-function","239","274152","0.0-292.0-2.0","f4qbme8s","","","","","","","","","","","","","","","","","","","","","","","","","","","","","",""
"","html-keyboard-response","240","274917","0.0-293.0","f4qbme8s","1280","720","","","","","","","","","","","null","+","Fixation - short","","null","","","","","","","","","","","","",""
"","html-keyboard-response","241","274943","0.0-294.0","f4qbme8s","1280","720","","","","","","","","","","","25","ivr","Diagnostic trial","","f","4","6","false","false","RIGHT","j","0","","LEFT","false","","",""
"","call-function","242","274943","0.0-296.0-0.0","f4qbme8s","","","","","","","","","","","","","","","","","","","","","","","","","","","","","",""
"","html-keyboard-response","243","275247","0.0-296.0-1.0","f4qbme8s","1280","720","","","","","","","","","","","null","Wrong","Feedback","","null","","","","","","","","","","","","",""
"","call-function","244","275248","0.0-296.0-2.0","f4qbme8s","","","","","","","","","","","","","","","","","","","","","","","","","","","","","",""
"","html-keyboard-response","245","276011","0.0-297.0","f4qbme8s","1280","720","","","","","","","","","","","null","+","Fixation - short","","null","","","","","","","","","","","","",""
"","html-keyboard-response","246","276324","0.0-298.0","f4qbme8s","1280","720","","","","","","","","","","","313","ivr","Diagnostic trial","","f","4","7","false","false","RIGHT","j","0","","LEFT","false","","",""
"","call-function","247","276324","0.0-300.0-0.0","f4qbme8s","","","","","","","","","","","","","","","","","","","","","","","","","","","","","",""
"","html-keyboard-response","248","276638","0.0-300.0-1.0","f4qbme8s","1280","720","","","","","","","","","","","null","Wrong","Feedback","","null","","","","","","","","","","","","",""
"","call-function","249","276638","0.0-300.0-2.0","f4qbme8s","","","","","","","","","","","","","","","","","","","","","","","","","","","","","",""
"","html-keyboard-response","250","277393","0.0-301.0","f4qbme8s","1280","720","","","","","","","","","","","null","+","Fixation - short","","null","","","","","","","","","","","","",""
"","html-keyboard-response","251","277466","0.0-302.0","f4qbme8s","1280","720","","","","","","","","","","","72","ivr","Diagnostic trial","","f","4","8","false","false","RIGHT","j","0","","LEFT","false","","",""
"","call-function","252","277466","0.0-304.0-0.0","f4qbme8s","","","","","","","","","","","","","","","","","","","","","","","","","","","","","",""
"","html-keyboard-response","253","277771","0.0-304.0-1.0","f4qbme8s","1280","720","","","","","","","","","","","null","Wrong","Feedback","","null","","","","","","","","","","","","",""
"","call-function","254","277771","0.0-304.0-2.0","f4qbme8s","","","","","","","","","","","","","","","","","","","","","","","","","","","","","",""
"","html-keyboard-response","255","278535","0.0-305.0","f4qbme8s","1280","720","","","","","","","","","","","null","+","Fixation - short","","null","","","","","","","","","","","","",""
"","html-keyboard-response","256","278564","0.0-306.0","f4qbme8s","1280","720","","","","","","","","","","","28","ivr","Diagnostic trial","","j","4","9","false","true","LEFT","f","0","","LEFT","true","","",""
"","call-function","257","278564","0.0-308.0-0.0","f4qbme8s","","","","","","","","","","","","","","","","","","","","","","","","","","","","","",""
"","html-keyboard-response","258","278878","0.0-308.0-1.0","f4qbme8s","1280","720","","","","","","","","","","","null","Wrong","Feedback","","null","","","","","","","","","","","","",""
"","call-function","259","278878","0.0-308.0-2.0","f4qbme8s","","","","","","","","","","","","","","","","","","","","","","","","","","","","","",""
"","html-keyboard-response","260","279631","0.0-309.0","f4qbme8s","1280","720","","","","","","","","","","","null","+","Fixation - short","","null","","","","","","","","","","","","",""
"","html-keyboard-response","261","279903","0.0-310.0","f4qbme8s","1280","720","","","","","","","","","","","272","iei","Inducer trial","","f","4","","true","","","j","0","RIGHT","","","","",""
"","call-function","262","279904","0.0-312.0-0.0","f4qbme8s","","","","","","","","","","","","","","","","","","","","","","","","","","","","","",""
"","html-keyboard-response","263","280208","0.0-312.0-1.0","f4qbme8s","1280","720","","","","","","","","","","","null","Wrong","Feedback","","null","","","","","","","","","","","","",""
"","call-function","264","280209","0.0-312.0-2.0","f4qbme8s","","","","","","","","","","","","","","","","","","","","","","","","","","","","","",""
"","html-keyboard-response","265","281721","0.0-313.0","f4qbme8s","1280","720","","","","","","","","","","","null","+","Fixation - long","","null","","","","","","","","","","","","",""
"","html-keyboard-response","266","299433","0.0-314.0","f4qbme8s","1280","720","","","","","","","","","","","17712","If mmo press LEFT | If hfs press RIGHT","Inducer instructions",""," ","5","","","","","","","","","","","",""
"","html-keyboard-response","267","300189","0.0-315.0","f4qbme8s","1280","720","","","","","","","","","","","null","+","Fixation - short","","null","","","","","","","","","","","","",""
"","html-keyboard-response","268","300782","0.0-316.0","f4qbme8s","1280","720","","","","","","","","","","","592","hfs","Diagnostic trial","","j","5","0","false","true","LEFT","f","0","","RIGHT","false","","",""
"","call-function","269","300782","0.0-318.0-0.0","f4qbme8s","","","","","","","","","","","","","","","","","","","","","","","","","","","","","",""
"","html-keyboard-response","270","301093","0.0-318.0-1.0","f4qbme8s","1280","720","","","","","","","","","","","null","Wrong","Feedback","","null","","","","","","","","","","","","",""
"","call-function","271","301093","0.0-318.0-2.0","f4qbme8s","","","","","","","","","","","","","","","","","","","","","","","","","","","","","",""
"","html-keyboard-response","272","301851","0.0-319.0","f4qbme8s","1280","720","","","","","","","","","","","null","+","Fixation - short","","null","","","","","","","","","","","","",""
"","html-keyboard-response","273","301951","0.0-320.0","f4qbme8s","1280","720","","","","","","","","","","","99","mmo","Diagnostic trial","","f","5","1","false","true","LEFT","f","1","","LEFT","true","","",""
"","html-keyboard-response","274","302714","0.0-323.0","f4qbme8s","1280","720","","","","","","","","","","","null","+","Fixation - short","","null","","","","","","","","","","","","",""
"","html-keyboard-response","275","303515","0.0-324.0","f4qbme8s","1280","720","","","","","","","","","","","801","mmo","Diagnostic trial","","f","5","2","false","true","LEFT","f","1","","LEFT","true","","",""
"","html-keyboard-response","276","304268","0.0-327.0","f4qbme8s","1280","720","","","","","","","","","","","null","+","Fixation - short","","null","","","","","","","","","","","","",""
"","html-keyboard-response","277","306272","0.0-328.0","f4qbme8s","1280","720","","","","","","","","","","","null","mmo","Diagnostic trial","","null","5","3","false","false","RIGHT","j","NaN","","LEFT","false","","",""
"","call-function","278","306272","0.0-329.0-0.0","f4qbme8s","","","","","","","","","","","","","","","","","","","","","","","","","","","","","",""
"","html-keyboard-response","279","306583","0.0-329.0-1.0","f4qbme8s","1280","720","","","","","","","","","","","null","Slow","Feedback","","null","","","","","","","","","","","","",""
"","call-function","280","306583","0.0-329.0-2.0","f4qbme8s","","","","","","","","","","","","","","","","","","","","","","","","","","","","","",""
"","html-keyboard-response","281","307345","0.0-331.0","f4qbme8s","1280","720","","","","","","","","","","","null","+","Fixation - short","","null","","","","","","","","","","","","",""
"","html-keyboard-response","282","307533","0.0-332.0","f4qbme8s","1280","720","","","","","","","","","","","187","hfs","Diagnostic trial","","f","5","4","false","true","LEFT","f","1","","RIGHT","false","","",""
"","html-keyboard-response","283","308299","0.0-335.0","f4qbme8s","1280","720","","","","","","","","","","","null","+","Fixation - short","","null","","","","","","","","","","","","",""
"","html-keyboard-response","284","308551","0.0-336.0","f4qbme8s","1280","720","","","","","","","","","","","252","mmo","Diagnostic trial","","f","5","5","false","true","LEFT","f","1","","LEFT","true","","",""
"","html-keyboard-response","285","309303","0.0-339.0","f4qbme8s","1280","720","","","","","","","","","","","null","+","Fixation - short","","null","","","","","","","","","","","","",""
"","html-keyboard-response","286","309905","0.0-340.0","f4qbme8s","1280","720","","","","","","","","","","","601","mmo","Diagnostic trial","","f","5","6","false","false","RIGHT","j","0","","LEFT","false","","",""
"","call-function","287","309905","0.0-342.0-0.0","f4qbme8s","","","","","","","","","","","","","","","","","","","","","","","","","","","","","",""
"","html-keyboard-response","288","310210","0.0-342.0-1.0","f4qbme8s","1280","720","","","","","","","","","","","null","Wrong","Feedback","","null","","","","","","","","","","","","",""
"","call-function","289","310210","0.0-342.0-2.0","f4qbme8s","","","","","","","","","","","","","","","","","","","","","","","","","","","","","",""
"","html-keyboard-response","290","310962","0.0-343.0","f4qbme8s","1280","720","","","","","","","","","","","null","+","Fixation - short","","null","","","","","","","","","","","","",""
"","html-keyboard-response","291","311837","0.0-344.0","f4qbme8s","1280","720","","","","","","","","","","","875","mmo","Diagnostic trial","","j","5","7","false","false","RIGHT","j","1","","LEFT","false","","",""
"","html-keyboard-response","292","312600","0.0-347.0","f4qbme8s","1280","720","","","","","","","","","","","null","+","Fixation - short","","null","","","","","","","","","","","","",""
"","html-keyboard-response","293","313075","0.0-348.0","f4qbme8s","1280","720","","","","","","","","","","","474","mmo","Diagnostic trial","","j","5","8","false","true","LEFT","f","0","","LEFT","true","","",""
"","call-function","294","313075","0.0-350.0-0.0","f4qbme8s","","","","","","","","","","","","","","","","","","","","","","","","","","","","","",""
"","html-keyboard-response","295","313380","0.0-350.0-1.0","f4qbme8s","1280","720","","","","","","","","","","","null","Wrong","Feedback","","null","","","","","","","","","","","","",""
"","call-function","296","313381","0.0-350.0-2.0","f4qbme8s","","","","","","","","","","","","","","","","","","","","","","","","","","","","","",""
"","html-keyboard-response","297","314146","0.0-351.0","f4qbme8s","1280","720","","","","","","","","","","","null","+","Fixation - short","","null","","","","","","","","","","","","",""
"","html-keyboard-response","298","314539","0.0-352.0","f4qbme8s","1280","720","","","","","","","","","","","393","mmo","Diagnostic trial","","f","5","9","false","false","RIGHT","j","0","","LEFT","false","","",""
"","call-function","299","314540","0.0-354.0-0.0","f4qbme8s","","","","","","","","","","","","","","","","","","","","","","","","","","","","","",""
"","html-keyboard-response","300","314854","0.0-354.0-1.0","f4qbme8s","1280","720","","","","","","","","","","","null","Wrong","Feedback","","null","","","","","","","","","","","","",""
"","call-function","301","314855","0.0-354.0-2.0","f4qbme8s","","","","","","","","","","","","","","","","","","","","","","","","","","","","","",""
"","html-keyboard-response","302","315609","0.0-355.0","f4qbme8s","1280","720","","","","","","","","","","","null","+","Fixation - short","","null","","","","","","","","","","","","",""
"","html-keyboard-response","303","316458","0.0-356.0","f4qbme8s","1280","720","","","","","","","","","","","848","hfs","Diagnostic trial","","j","5","10","false","true","LEFT","f","0","","RIGHT","false","","",""
"","call-function","304","316459","0.0-358.0-0.0","f4qbme8s","","","","","","","","","","","","","","","","","","","","","","","","","","","","","",""
"","html-keyboard-response","305","316774","0.0-358.0-1.0","f4qbme8s","1280","720","","","","","","","","","","","null","Wrong","Feedback","","null","","","","","","","","","","","","",""
"","call-function","306","316774","0.0-358.0-2.0","f4qbme8s","","","","","","","","","","","","","","","","","","","","","","","","","","","","","",""
"","html-keyboard-response","307","317540","0.0-359.0","f4qbme8s","1280","720","","","","","","","","","","","null","+","Fixation - short","","null","","","","","","","","","","","","",""
"","html-keyboard-response","308","318034","0.0-360.0","f4qbme8s","1280","720","","","","","","","","","","","493","mmo","Diagnostic trial","","j","5","11","false","true","LEFT","f","0","","LEFT","true","","",""
"","call-function","309","318035","0.0-362.0-0.0","f4qbme8s","","","","","","","","","","","","","","","","","","","","","","","","","","","","","",""
"","html-keyboard-response","310","318339","0.0-362.0-1.0","f4qbme8s","1280","720","","","","","","","","","","","null","Wrong","Feedback","","null","","","","","","","","","","","","",""
"","call-function","311","318340","0.0-362.0-2.0","f4qbme8s","","","","","","","","","","","","","","","","","","","","","","","","","","","","","",""
"","html-keyboard-response","312","319095","0.0-363.0","f4qbme8s","1280","720","","","","","","","","","","","null","+","Fixation - short","","null","","","","","","","","","","","","",""
"","html-keyboard-response","313","320556","0.0-364.0","f4qbme8s","1280","720","","","","","","","","","","","1461","mmo","Diagnostic trial","","j","5","12","false","true","LEFT","f","0","","LEFT","true","","",""
"","call-function","314","320557","0.0-366.0-0.0","f4qbme8s","","","","","","","","","","","","","","","","","","","","","","","","","","","","","",""
"","html-keyboard-response","315","320862","0.0-366.0-1.0","f4qbme8s","1280","720","","","","","","","","","","","null","Wrong","Feedback","","null","","","","","","","","","","","","",""
"","call-function","316","320862","0.0-366.0-2.0","f4qbme8s","","","","","","","","","","","","","","","","","","","","","","","","","","","","","",""
"","html-keyboard-response","317","321617","0.0-367.0","f4qbme8s","1280","720","","","","","","","","","","","null","+","Fixation - short","","null","","","","","","","","","","","","",""
"","html-keyboard-response","318","321998","0.0-368.0","f4qbme8s","1280","720","","","","","","","","","","","381","hfs","Inducer trial","","f","5","","true","","","j","0","RIGHT","","","","",""
"","call-function","319","321998","0.0-370.0-0.0","f4qbme8s","","","","","","","","","","","","","","","","","","","","","","","","","","","","","",""
"","html-keyboard-response","320","322300","0.0-370.0-1.0","f4qbme8s","1280","720","","","","","","","","","","","null","Wrong","Feedback","","null","","","","","","","","","","","","",""
"","call-function","321","322300","0.0-370.0-2.0","f4qbme8s","","","","","","","","","","","","","","","","","","","","","","","","","","","","","",""
"","html-keyboard-response","322","323813","0.0-371.0","f4qbme8s","1280","720","","","","","","","","","","","null","+","Fixation - long","","null","","","","","","","","","","","","",""
"","html-keyboard-response","323","325942","0.0-372.0","f4qbme8s","1280","720","","","","","","","","","","","2128","If xet press LEFT | If hhd press RIGHT","Inducer instructions",""," ","6","","","","","","","","","","","",""
"","html-keyboard-response","324","326701","0.0-373.0","f4qbme8s","1280","720","","","","","","","","","","","null","+","Fixation - short","","null","","","","","","","","","","","","",""
"","html-keyboard-response","325","327261","0.0-374.0","f4qbme8s","1280","720","","","","","","","","","","","560","xet","Diagnostic trial","","f","6","0","false","false","RIGHT","j","0","","LEFT","false","","",""
"","call-function","326","327262","0.0-376.0-0.0","f4qbme8s","","","","","","","","","","","","","","","","","","","","","","","","","","","","","",""
"","html-keyboard-response","327","327577","0.0-376.0-1.0","f4qbme8s","1280","720","","","","","","","","","","","null","Wrong","Feedback","","null","","","","","","","","","","","","",""
"","call-function","328","327577","0.0-376.0-2.0","f4qbme8s","","","","","","","","","","","","","","","","","","","","","","","","","","","","","",""
"","html-keyboard-response","329","328339","0.0-377.0","f4qbme8s","1280","720","","","","","","","","","","","null","+","Fixation - short","","null","","","","","","","","","","","","",""
"","html-keyboard-response","330","328997","0.0-378.0","f4qbme8s","1280","720","","","","","","","","","","","657","hhd","Diagnostic trial","","j","6","1","false","true","LEFT","f","0","","RIGHT","false","","",""
"","call-function","331","328997","0.0-380.0-0.0","f4qbme8s","","","","","","","","","","","","","","","","","","","","","","","","","","","","","",""
"","html-keyboard-response","332","329310","0.0-380.0-1.0","f4qbme8s","1280","720","","","","","","","","","","","null","Wrong","Feedback","","null","","","","","","","","","","","","",""
"","call-function","333","329310","0.0-380.0-2.0","f4qbme8s","","","","","","","","","","","","","","","","","","","","","","","","","","","","","",""
"","html-keyboard-response","334","330073","0.0-381.0","f4qbme8s","1280","720","","","","","","","","","","","null","+","Fixation - short","","null","","","","","","","","","","","","",""
"","html-keyboard-response","335","330685","0.0-382.0","f4qbme8s","1280","720","","","","","","","","","","","611","xet","Diagnostic trial","","j","6","2","false","false","RIGHT","j","1","","LEFT","false","","",""
"","html-keyboard-response","336","331448","0.0-385.0","f4qbme8s","1280","720","","","","","","","","","","","null","+","Fixation - short","","null","","","","","","","","","","","","",""
"","html-keyboard-response","337","331692","0.0-386.0","f4qbme8s","1280","720","","","","","","","","","","","243","hhd","Diagnostic trial","","j","6","3","false","false","RIGHT","j","1","","RIGHT","true","","",""
"","html-keyboard-response","338","332450","0.0-389.0","f4qbme8s","1280","720","","","","","","","","","","","null","+","Fixation - short","","null","","","","","","","","","","","","",""
"","html-keyboard-response","339","332473","0.0-390.0","f4qbme8s","1280","720","","","","","","","","","","","22","hhd","Diagnostic trial","","j","6","4","false","true","LEFT","f","0","","RIGHT","false","","",""
"","call-function","340","332473","0.0-392.0-0.0","f4qbme8s","","","","","","","","","","","","","","","","","","","","","","","","","","","","","",""
"","html-keyboard-response","341","332777","0.0-392.0-1.0","f4qbme8s","1280","720","","","","","","","","","","","null","Wrong","Feedback","","null","","","","","","","","","","","","",""
"","call-function","342","332778","0.0-392.0-2.0","f4qbme8s","","","","","","","","","","","","","","","","","","","","","","","","","","","","","",""
"","html-keyboard-response","343","333540","0.0-393.0","f4qbme8s","1280","720","","","","","","","","","","","null","+","Fixation - short","","null","","","","","","","","","","","","",""
"","html-keyboard-response","344","333797","0.0-394.0","f4qbme8s","1280","720","","","","","","","","","","","256","xet","Diagnostic trial","","j","6","5","false","true","LEFT","f","0","","LEFT","true","","",""
"","call-function","345","333797","0.0-396.0-0.0","f4qbme8s","","","","","","","","","","","","","","","","","","","","","","","","","","","","","",""
"","html-keyboard-response","346","334101","0.0-396.0-1.0","f4qbme8s","1280","720","","","","","","","","","","","null","Wrong","Feedback","","null","","","","","","","","","","","","",""
"","call-function","347","334102","0.0-396.0-2.0","f4qbme8s","","","","","","","","","","","","","","","","","","","","","","","","","","","","","",""
"","html-keyboard-response","348","334866","0.0-397.0","f4qbme8s","1280","720","","","","","","","","","","","null","+","Fixation - short","","null","","","","","","","","","","","","",""
"","html-keyboard-response","349","335213","0.0-398.0","f4qbme8s","1280","720","","","","","","","","","","","346","xet","Diagnostic trial","","j","6","6","false","false","RIGHT","j","1","","LEFT","false","","",""
"","html-keyboard-response","350","335965","0.0-401.0","f4qbme8s","1280","720","","","","","","","","","","","null","+","Fixation - short","","null","","","","","","","","","","","","",""
"","html-keyboard-response","351","336534","0.0-402.0","f4qbme8s","1280","720","","","","","","","","","","","569","xet","Diagnostic trial","","j","6","7","false","false","RIGHT","j","1","","LEFT","false","","",""
"","html-keyboard-response","352","337292","0.0-405.0","f4qbme8s","1280","720","","","","","","","","","","","null","+","Fixation - short","","null","","","","","","","","","","","","",""
"","html-keyboard-response","353","337595","0.0-406.0","f4qbme8s","1280","720","","","","","","","","","","","302","xet","Diagnostic trial","","j","6","8","false","true","LEFT","f","0","","LEFT","true","","",""
"","call-function","354","337595","0.0-408.0-0.0","f4qbme8s","","","","","","","","","","","","","","","","","","","","","","","","","","","","","",""
"","html-keyboard-response","355","337901","0.0-408.0-1.0","f4qbme8s","1280","720","","","","","","","","","","","null","Wrong","Feedback","","null","","","","","","","","","","","","",""
"","call-function","356","337901","0.0-408.0-2.0","f4qbme8s","","","","","","","","","","","","","","","","","","","","","","","","","","","","","",""
"","html-keyboard-response","357","338667","0.0-409.0","f4qbme8s","1280","720","","","","","","","","","","","null","+","Fixation - short","","null","","","","","","","","","","","","",""
"","html-keyboard-response","358","338945","0.0-410.0","f4qbme8s","1280","720","","","","","","","","","","","277","hhd","Diagnostic trial","","j","6","9","false","true","LEFT","f","0","","RIGHT","false","","",""
"","call-function","359","338945","0.0-412.0-0.0","f4qbme8s","","","","","","","","","","","","","","","","","","","","","","","","","","","","","",""
"","html-keyboard-response","360","339258","0.0-412.0-1.0","f4qbme8s","1280","720","","","","","","","","","","","null","Wrong","Feedback","","null","","","","","","","","","","","","",""
"","call-function","361","339258","0.0-412.0-2.0","f4qbme8s","","","","","","","","","","","","","","","","","","","","","","","","","","","","","",""
"","html-keyboard-response","362","340022","0.0-413.0","f4qbme8s","1280","720","","","","","","","","","","","null","+","Fixation - short","","null","","","","","","","","","","","","",""
"","html-keyboard-response","363","340023","0.0-414.0","f4qbme8s","1280","720","","","","","","","","","","","0","hhd","Diagnostic trial","","f","6","10","false","false","RIGHT","j","0","","RIGHT","true","","",""
"","call-function","364","340023","0.0-416.0-0.0","f4qbme8s","","","","","","","","","","","","","","","","","","","","","","","","","","","","","",""
"","html-keyboard-response","365","340333","0.0-416.0-1.0","f4qbme8s","1280","720","","","","","","","","","","","null","Wrong","Feedback","","null","","","","","","","","","","","","",""
"","call-function","366","340334","0.0-416.0-2.0","f4qbme8s","","","","","","","","","","","","","","","","","","","","","","","","","","","","","",""
"","html-keyboard-response","367","341092","0.0-417.0","f4qbme8s","1280","720","","","","","","","","","","","null","+","Fixation - short","","null","","","","","","","","","","","","",""
"","html-keyboard-response","368","341123","0.0-418.0","f4qbme8s","1280","720","","","","","","","","","","","30","xet","Inducer trial","","f","6","","true","","","f","1","LEFT","","","","",""
"","html-keyboard-response","369","342637","0.0-421.0","f4qbme8s","1280","720","","","","","","","","","","","null","+","Fixation - long","","null","","","","","","","","","","","","",""
"","html-keyboard-response","370","348000","0.0-422.0","f4qbme8s","1280","720","","","","","","","","","","","5363","If kho press LEFT | If idy press RIGHT","Inducer instructions",""," ","7","","","","","","","","","","","",""
"","html-keyboard-response","371","348759","0.0-423.0","f4qbme8s","1280","720","","","","","","","","","","","null","+","Fixation - short","","null","","","","","","","","","","","","",""
"","html-keyboard-response","372","350765","0.0-424.0","f4qbme8s","1280","720","","","","","","","","","","","null","idy","Diagnostic trial","","null","7","0","false","true","LEFT","f","NaN","","RIGHT","false","","",""
"","call-function","373","350765","0.0-425.0-0.0","f4qbme8s","","","","","","","","","","","","","","","","","","","","","","","","","","","","","",""
"","html-keyboard-response","374","351079","0.0-425.0-1.0","f4qbme8s","1280","720","","","","","","","","","","","null","Slow","Feedback","","null","","","","","","","","","","","","",""
"","call-function","375","351079","0.0-425.0-2.0","f4qbme8s","","","","","","","","","","","","","","","","","","","","","","","","","","","","","",""
"","html-keyboard-response","376","351843","0.0-427.0","f4qbme8s","1280","720","","","","","","","","","","","null","+","Fixation - short","","null","","","","","","","","","","","","",""
"","html-keyboard-response","377","352698","0.0-428.0","f4qbme8s","1280","720","","","","","","","","","","","854","idy","Diagnostic trial","","f","7","1","false","false","RIGHT","j","0","","RIGHT","true","","",""
"","call-function","378","352698","0.0-430.0-0.0","f4qbme8s","","","","","","","","","","","","","","","","","","","","","","","","","","","","","",""
"","html-keyboard-response","379","353003","0.0-430.0-1.0","f4qbme8s","1280","720","","","","","","","","","","","null","Wrong","Feedback","","null","","","","","","","","","","","","",""
"","call-function","380","353003","0.0-430.0-2.0","f4qbme8s","","","","","","","","","","","","","","","","","","","","","","","","","","","","","",""
"","html-keyboard-response","381","353767","0.0-431.0","f4qbme8s","1280","720","","","","","","","","","","","null","+","Fixation - short","","null","","","","","","","","","","","","",""
"","html-keyboard-response","382","354203","0.0-432.0","f4qbme8s","1280","720","","","","","","","","","","","435","idy","Diagnostic trial","","j","7","2","false","true","LEFT","f","0","","RIGHT","false","","",""
"","call-function","383","354203","0.0-434.0-0.0","f4qbme8s","","","","","","","","","","","","","","","","","","","","","","","","","","","","","",""
"","html-keyboard-response","384","354515","0.0-434.0-1.0","f4qbme8s","1280","720","","","","","","","","","","","null","Wrong","Feedback","","null","","","","","","","","","","","","",""
"","call-function","385","354516","0.0-434.0-2.0","f4qbme8s","","","","","","","","","","","","","","","","","","","","","","","","","","","","","",""
"","html-keyboard-response","386","355281","0.0-435.0","f4qbme8s","1280","720","","","","","","","","","","","null","+","Fixation - short","","null","","","","","","","","","","","","",""
"","html-keyboard-response","387","355728","0.0-436.0","f4qbme8s","1280","720","","","","","","","","","","","447","kho","Diagnostic trial","","f","7","3","false","false","RIGHT","j","0","","LEFT","false","","",""
"","call-function","388","355728","0.0-438.0-0.0","f4qbme8s","","","","","","","","","","","","","","","","","","","","","","","","","","","","","",""
"","html-keyboard-response","389","356034","0.0-438.0-1.0","f4qbme8s","1280","720","","","","","","","","","","","null","Wrong","Feedback","","null","","","","","","","","","","","","",""
"","call-function","390","356034","0.0-438.0-2.0","f4qbme8s","","","","","","","","","","","","","","","","","","","","","","","","","","","","","",""
"","html-keyboard-response","391","356790","0.0-439.0","f4qbme8s","1280","720","","","","","","","","","","","null","+","Fixation - short","","null","","","","","","","","","","","","",""
"","html-keyboard-response","392","356921","0.0-440.0","f4qbme8s","1280","720","","","","","","","","","","","131","idy","Diagnostic trial","","j","7","4","false","false","RIGHT","j","1","","RIGHT","true","","",""
"","html-keyboard-response","393","357676","0.0-443.0","f4qbme8s","1280","720","","","","","","","","","","","null","+","Fixation - short","","null","","","","","","","","","","","","",""
"","html-keyboard-response","394","357694","0.0-444.0","f4qbme8s","1280","720","","","","","","","","","","","18","idy","Diagnostic trial","","f","7","5","false","false","RIGHT","j","0","","RIGHT","true","","",""
"","call-function","395","357695","0.0-446.0-0.0","f4qbme8s","","","","","","","","","","","","","","","","","","","","","","","","","","","","","",""
"","html-keyboard-response","396","358006","0.0-446.0-1.0","f4qbme8s","1280","720","","","","","","","","","","","null","Wrong","Feedback","","null","","","","","","","","","","","","",""
"","call-function","397","358007","0.0-446.0-2.0","f4qbme8s","","","","","","","","","","","","","","","","","","","","","","","","","","","","","",""
"","html-keyboard-response","398","358770","0.0-447.0","f4qbme8s","1280","720","","","","","","","","","","","null","+","Fixation - short","","null","","","","","","","","","","","","",""
"","html-keyboard-response","399","358938","0.0-448.0","f4qbme8s","1280","720","","","","","","","","","","","167","idy","Diagnostic trial","","f","7","6","false","true","LEFT","f","1","","RIGHT","false","","",""
"","html-keyboard-response","400","359691","0.0-451.0","f4qbme8s","1280","720","","","","","","","","","","","null","+","Fixation - short","","null","","","","","","","","","","","","",""
"","html-keyboard-response","401","359699","0.0-452.0","f4qbme8s","1280","720","","","","","","","","","","","8","idy","Diagnostic trial","","j","7","7","false","false","RIGHT","j","1","","RIGHT","true","","",""
"","html-keyboard-response","402","360454","0.0-455.0","f4qbme8s","1280","720","","","","","","","","","","","null","+","Fixation - short","","null","","","","","","","","","","","","",""
"","html-keyboard-response","403","360538","0.0-456.0","f4qbme8s","1280","720","","","","","","","","","","","84","idy","Diagnostic trial","","j","7","8","false","false","RIGHT","j","1","","RIGHT","true","","",""
"","html-keyboard-response","404","361289","0.0-459.0","f4qbme8s","1280","720","","","","","","","","","","","null","+","Fixation - short","","null","","","","","","","","","","","","",""
"","html-keyboard-response","405","361448","0.0-460.0","f4qbme8s","1280","720","","","","","","","","","","","158","kho","Inducer trial","","j","7","","true","","","f","0","LEFT","","","","",""
"","call-function","406","361448","0.0-462.0-0.0","f4qbme8s","","","","","","","","","","","","","","","","","","","","","","","","","","","","","",""
"","html-keyboard-response","407","361762","0.0-462.0-1.0","f4qbme8s","1280","720","","","","","","","","","","","null","Wrong","Feedback","","null","","","","","","","","","","","","",""
"","call-function","408","361762","0.0-462.0-2.0","f4qbme8s","","","","","","","","","","","","","","","","","","","","","","","","","","","","","",""
"","html-keyboard-response","409","363272","0.0-463.0","f4qbme8s","1280","720","","","","","","","","","","","null","+","Fixation - long","","null","","","","","","","","","","","","",""
"","html-keyboard-response","410","365040","0.0-464.0","f4qbme8s","1280","720","","","","","","","","","","","1767","If zpl press LEFT | If vle press RIGHT","Inducer instructions",""," ","8","","","","","","","","","","","",""
"","html-keyboard-response","411","365798","0.0-465.0","f4qbme8s","1280","720","","","","","","","","","","","null","+","Fixation - short","","null","","","","","","","","","","","","",""
"","html-keyboard-response","412","366519","0.0-466.0","f4qbme8s","1280","720","","","","","","","","","","","720","vle","Diagnostic trial","","f","8","0","false","false","RIGHT","j","0","","RIGHT","true","","",""
"","call-function","413","366520","0.0-468.0-0.0","f4qbme8s","","","","","","","","","","","","","","","","","","","","","","","","","","","","","",""
"","html-keyboard-response","414","366832","0.0-468.0-1.0","f4qbme8s","1280","720","","","","","","","","","","","null","Wrong","Feedback","","null","","","","","","","","","","","","",""
"","call-function","415","366832","0.0-468.0-2.0","f4qbme8s","","","","","","","","","","","","","","","","","","","","","","","","","","","","","",""
"","html-keyboard-response","416","367595","0.0-469.0","f4qbme8s","1280","720","","","","","","","","","","","null","+","Fixation - short","","null","","","","","","","","","","","","",""
"","html-keyboard-response","417","368056","0.0-470.0","f4qbme8s","1280","720","","","","","","","","","","","460","vle","Diagnostic trial","","j","8","1","false","true","LEFT","f","0","","RIGHT","false","","",""
"","call-function","418","368056","0.0-472.0-0.0","f4qbme8s","","","","","","","","","","","","","","","","","","","","","","","","","","","","","",""
"","html-keyboard-response","419","368372","0.0-472.0-1.0","f4qbme8s","1280","720","","","","","","","","","","","null","Wrong","Feedback","","null","","","","","","","","","","","","",""
"","call-function","420","368372","0.0-472.0-2.0","f4qbme8s","","","","","","","","","","","","","","","","","","","","","","","","","","","","","",""
"","html-keyboard-response","421","369129","0.0-473.0","f4qbme8s","1280","720","","","","","","","","","","","null","+","Fixation - short","","null","","","","","","","","","","","","",""
"","html-keyboard-response","422","369773","0.0-474.0","f4qbme8s","1280","720","","","","","","","","","","","643","zpl","Diagnostic trial","","j","8","2","false","false","RIGHT","j","1","","LEFT","false","","",""
"","html-keyboard-response","423","370530","0.0-477.0","f4qbme8s","1280","720","","","","","","","","","","","null","+","Fixation - short","","null","","","","","","","","","","","","",""
"","html-keyboard-response","424","371584","0.0-478.0","f4qbme8s","1280","720","","","","","","","","","","","1053","vle","Diagnostic trial","","f","8","3","false","false","RIGHT","j","0","","RIGHT","true","","",""
"","call-function","425","371584","0.0-480.0-0.0","f4qbme8s","","","","","","","","","","","","","","","","","","","","","","","","","","","","","",""
"","html-keyboard-response","426","371898","0.0-480.0-1.0","f4qbme8s","1280","720","","","","","","","","","","","null","Wrong","Feedback","","null","","","","","","","","","","","","",""
"","call-function","427","371898","0.0-480.0-2.0","f4qbme8s","","","","","","","","","","","","","","","","","","","","","","","","","","","","","",""
"","html-keyboard-response","428","372664","0.0-481.0","f4qbme8s","1280","720","","","","","","","","","","","null","+","Fixation - short","","null","","","","","","","","","","","","",""
"","html-keyboard-response","429","372866","0.0-482.0","f4qbme8s","1280","720","","","","","","","","","","","201","vle","Inducer trial","","f","8","","true","","","j","0","RIGHT","","","","",""
"","call-function","430","372866","0.0-484.0-0.0","f4qbme8s","","","","","","","","","","","","","","","","","","","","","","","","","","","","","",""
"","html-keyboard-response","431","373179","0.0-484.0-1.0","f4qbme8s","1280","720","","","","","","","","","","","null","Wrong","Feedback","","null","","","","","","","","","","","","",""
"","call-function","432","373179","0.0-484.0-2.0","f4qbme8s","","","","","","","","","","","","","","","","","","","","","","","","","","","","","",""
"","html-keyboard-response","433","374688","0.0-485.0","f4qbme8s","1280","720","","","","","","","","","","","null","+","Fixation - long","","null","","","","","","","","","","","","",""
"","html-keyboard-response","434","375564","0.0-486.0","f4qbme8s","1280","720","","","","","","","","","","","875","If pph press LEFT | If jft press RIGHT","Inducer instructions",""," ","9","","","","","","","","","","","",""
"","html-keyboard-response","435","376322","0.0-487.0","f4qbme8s","1280","720","","","","","","","","","","","null","+","Fixation - short","","null","","","","","","","","","","","","",""
"","html-keyboard-response","436","376851","0.0-488.0","f4qbme8s","1280","720","","","","","","","","","","","529","jft","Diagnostic trial","","f","9","0","false","true","LEFT","f","1","","RIGHT","false","","",""
"","html-keyboard-response","437","377607","0.0-491.0","f4qbme8s","1280","720","","","","","","","","","","","null","+","Fixation - short","","null","","","","","","","","","","","","",""
"","html-keyboard-response","438","377848","0.0-492.0","f4qbme8s","1280","720","","","","","","","","","","","240","pph","Diagnostic trial","","f","9","1","false","false","RIGHT","j","0","","LEFT","false","","",""
"","call-function","439","377848","0.0-494.0-0.0","f4qbme8s","","","","","","","","","","","","","","","","","","","","","","","","","","","","","",""
"","html-keyboard-response","440","378163","0.0-494.0-1.0","f4qbme8s","1280","720","","","","","","","","","","","null","Wrong","Feedback","","null","","","","","","","","","","","","",""
"","call-function","441","378164","0.0-494.0-2.0","f4qbme8s","","","","","","","","","","","","","","","","","","","","","","","","","","","","","",""
"","html-keyboard-response","442","378923","0.0-495.0","f4qbme8s","1280","720","","","","","","","","","","","null","+","Fixation - short","","null","","","","","","","","","","","","",""
"","html-keyboard-response","443","379242","0.0-496.0","f4qbme8s","1280","720","","","","","","","","","","","319","jft","Diagnostic trial","","f","9","2","false","true","LEFT","f","1","","RIGHT","false","","",""
"","html-keyboard-response","444","380003","0.0-499.0","f4qbme8s","1280","720","","","","","","","","","","","null","+","Fixation - short","","null","","","","","","","","","","","","",""
"","html-keyboard-response","445","380005","0.0-500.0","f4qbme8s","1280","720","","","","","","","","","","","1","jft","Diagnostic trial","","f","9","3","false","false","RIGHT","j","0","","RIGHT","true","","",""
"","call-function","446","380005","0.0-502.0-0.0","f4qbme8s","","","","","","","","","","","","","","","","","","","","","","","","","","","","","",""
"","html-keyboard-response","447","380314","0.0-502.0-1.0","f4qbme8s","1280","720","","","","","","","","","","","null","Wrong","Feedback","","null","","","","","","","","","","","","",""
"","call-function","448","380314","0.0-502.0-2.0","f4qbme8s","","","","","","","","","","","","","","","","","","","","","","","","","","","","","",""
"","html-keyboard-response","449","381080","0.0-503.0","f4qbme8s","1280","720","","","","","","","","","","","null","+","Fixation - short","","null","","","","","","","","","","","","",""
"","html-keyboard-response","450","381186","0.0-504.0","f4qbme8s","1280","720","","","","","","","","","","","106","jft","Diagnostic trial","","j","9","4","false","true","LEFT","f","0","","RIGHT","false","","",""
"","call-function","451","381187","0.0-506.0-0.0","f4qbme8s","","","","","","","","","","","","","","","","","","","","","","","","","","","","","",""
"","html-keyboard-response","452","381501","0.0-506.0-1.0","f4qbme8s","1280","720","","","","","","","","","","","null","Wrong","Feedback","","null","","","","","","","","","","","","",""
"","call-function","453","381501","0.0-506.0-2.0","f4qbme8s","","","","","","","","","","","","","","","","","","","","","","","","","","","","","",""
"","html-keyboard-response","454","382265","0.0-507.0","f4qbme8s","1280","720","","","","","","","","","","","null","+","Fixation - short","","null","","","","","","","","","","","","",""
"","html-keyboard-response","455","382406","0.0-508.0","f4qbme8s","1280","720","","","","","","","","","","","141","pph","Diagnostic trial","","j","9","5","false","false","RIGHT","j","1","","LEFT","false","","",""
"","html-keyboard-response","456","383160","0.0-511.0","f4qbme8s","1280","720","","","","","","","","","","","null","+","Fixation - short","","null","","","","","","","","","","","","",""
"","html-keyboard-response","457","383292","0.0-512.0","f4qbme8s","1280","720","","","","","","","","","","","131","pph","Diagnostic trial","","j","9","6","false","true","LEFT","f","0","","LEFT","true","","",""
"","call-function","458","383292","0.0-514.0-0.0","f4qbme8s","","","","","","","","","","","","","","","","","","","","","","","","","","","","","",""
"","html-keyboard-response","459","383602","0.0-514.0-1.0","f4qbme8s","1280","720","","","","","","","","","","","null","Wrong","Feedback","","null","","","","","","","","","","","","",""
"","call-function","460","383603","0.0-514.0-2.0","f4qbme8s","","","","","","","","","","","","","","","","","","","","","","","","","","","","","",""
"","html-keyboard-response","461","384359","0.0-515.0","f4qbme8s","1280","720","","","","","","","","","","","null","+","Fixation - short","","null","","","","","","","","","","","","",""
"","html-keyboard-response","462","384695","0.0-516.0","f4qbme8s","1280","720","","","","","","","","","","","335","jft","Diagnostic trial","","f","9","7","false","false","RIGHT","j","0","","RIGHT","true","","",""
"","call-function","463","384695","0.0-518.0-0.0","f4qbme8s","","","","","","","","","","","","","","","","","","","","","","","","","","","","","",""
"","html-keyboard-response","464","385007","0.0-518.0-1.0","f4qbme8s","1280","720","","","","","","","","","","","null","Wrong","Feedback","","null","","","","","","","","","","","","",""
"","call-function","465","385008","0.0-518.0-2.0","f4qbme8s","","","","","","","","","","","","","","","","","","","","","","","","","","","","","",""
"","html-keyboard-response","466","385771","0.0-519.0","f4qbme8s","1280","720","","","","","","","","","","","null","+","Fixation - short","","null","","","","","","","","","","","","",""
"","html-keyboard-response","467","386056","0.0-520.0","f4qbme8s","1280","720","","","","","","","","","","","284","jft","Diagnostic trial","","f","9","8","false","false","RIGHT","j","0","","RIGHT","true","","",""
"","call-function","468","386056","0.0-522.0-0.0","f4qbme8s","","","","","","","","","","","","","","","","","","","","","","","","","","","","","",""
"","html-keyboard-response","469","386362","0.0-522.0-1.0","f4qbme8s","1280","720","","","","","","","","","","","null","Wrong","Feedback","","null","","","","","","","","","","","","",""
"","call-function","470","386362","0.0-522.0-2.0","f4qbme8s","","","","","","","","","","","","","","","","","","","","","","","","","","","","","",""
"","html-keyboard-response","471","387114","0.0-523.0","f4qbme8s","1280","720","","","","","","","","","","","null","+","Fixation - short","","null","","","","","","","","","","","","",""
"","html-keyboard-response","472","387369","0.0-524.0","f4qbme8s","1280","720","","","","","","","","","","","254","pph","Diagnostic trial","","j","9","9","false","true","LEFT","f","0","","LEFT","true","","",""
"","call-function","473","387369","0.0-526.0-0.0","f4qbme8s","","","","","","","","","","","","","","","","","","","","","","","","","","","","","",""
"","html-keyboard-response","474","387679","0.0-526.0-1.0","f4qbme8s","1280","720","","","","","","","","","","","null","Wrong","Feedback","","null","","","","","","","","","","","","",""
"","call-function","475","387679","0.0-526.0-2.0","f4qbme8s","","","","","","","","","","","","","","","","","","","","","","","","","","","","","",""
"","html-keyboard-response","476","388433","0.0-527.0","f4qbme8s","1280","720","","","","","","","","","","","null","+","Fixation - short","","null","","","","","","","","","","","","",""
"","html-keyboard-response","477","388488","0.0-528.0","f4qbme8s","1280","720","","","","","","","","","","","54","pph","Diagnostic trial","","f","9","10","false","true","LEFT","f","1","","LEFT","true","","",""
"","html-keyboard-response","478","389247","0.0-531.0","f4qbme8s","1280","720","","","","","","","","","","","null","+","Fixation - short","","null","","","","","","","","","","","","",""
"","html-keyboard-response","479","390840","0.0-532.0","f4qbme8s","1280","720","","","","","","","","","","","1592","pph","Diagnostic trial","","j","9","11","false","false","RIGHT","j","1","","LEFT","false","","",""
"","html-keyboard-response","480","391597","0.0-535.0","f4qbme8s","1280","720","","","","","","","","","","","null","+","Fixation - short","","null","","","","","","","","","","","","",""
"","html-keyboard-response","481","392079","0.0-536.0","f4qbme8s","1280","720","","","","","","","","","","","481","jft","Diagnostic trial","","f","9","12","false","false","RIGHT","j","0","","RIGHT","true","","",""
"","call-function","482","392079","0.0-538.0-0.0","f4qbme8s","","","","","","","","","","","","","","","","","","","","","","","","","","","","","",""
"","html-keyboard-response","483","392385","0.0-538.0-1.0","f4qbme8s","1280","720","","","","","","","","","","","null","Wrong","Feedback","","null","","","","","","","","","","","","",""
"","call-function","484","392385","0.0-538.0-2.0","f4qbme8s","","","","","","","","","","","","","","","","","","","","","","","","","","","","","",""
"","html-keyboard-response","485","393150","0.0-539.0","f4qbme8s","1280","720","","","","","","","","","","","null","+","Fixation - short","","null","","","","","","","","","","","","",""
"","html-keyboard-response","486","393943","0.0-540.0","f4qbme8s","1280","720","","","","","","","","","","","792","pph","Diagnostic trial","","f","9","13","false","true","LEFT","f","1","","LEFT","true","","",""
"","html-keyboard-response","487","394702","0.0-543.0","f4qbme8s","1280","720","","","","","","","","","","","null","+","Fixation - short","","null","","","","","","","","","","","","",""
"","html-keyboard-response","488","394797","0.0-544.0","f4qbme8s","1280","720","","","","","","","","","","","94","jft","Diagnostic trial","","j","9","14","false","true","LEFT","f","0","","RIGHT","false","","",""
"","call-function","489","394797","0.0-546.0-0.0","f4qbme8s","","","","","","","","","","","","","","","","","","","","","","","","","","","","","",""
"","html-keyboard-response","490","395098","0.0-546.0-1.0","f4qbme8s","1280","720","","","","","","","","","","","null","Wrong","Feedback","","null","","","","","","","","","","","","",""
"","call-function","491","395099","0.0-546.0-2.0","f4qbme8s","","","","","","","","","","","","","","","","","","","","","","","","","","","","","",""
"","html-keyboard-response","492","395863","0.0-547.0","f4qbme8s","1280","720","","","","","","","","","","","null","+","Fixation - short","","null","","","","","","","","","","","","",""
"","html-keyboard-response","493","395960","0.0-548.0","f4qbme8s","1280","720","","","","","","","","","","","97","pph","Inducer trial","","f","9","","true","","","f","1","LEFT","","","","",""
"","html-keyboard-response","494","397469","0.0-551.0","f4qbme8s","1280","720","","","","","","","","","","","null","+","Fixation - long","","null","","","","","","","","","","","","",""
"","html-keyboard-response","495","417480","0.0-552.0","f4qbme8s","1280","720","","","","","","","","","","","null","If geb press LEFT | If jil press RIGHT","Inducer instructions","","null","10","","","","","","","","","","","",""
"","html-keyboard-response","496","418234","0.0-553.0","f4qbme8s","1280","720","","","","","","","","","","","null","+","Fixation - short","","null","","","","","","","","","","","","",""
"","html-keyboard-response","497","420243","0.0-554.0","f4qbme8s","1280","720","","","","","","","","","","","null","jil","Diagnostic trial","","null","10","0","false","true","LEFT","f","NaN","","RIGHT","false","","",""
"","call-function","498","420243","0.0-555.0-0.0","f4qbme8s","","","","","","","","","","","","","","","","","","","","","","","","","","","","","",""
"","html-keyboard-response","499","420553","0.0-555.0-1.0","f4qbme8s","1280","720","","","","","","","","","","","null","Slow","Feedback","","null","","","","","","","","","","","","",""
"","call-function","500","420554","0.0-555.0-2.0","f4qbme8s","","","","","","","","","","","","","","","","","","","","","","","","","","","","","",""
"","html-keyboard-response","501","421319","0.0-557.0","f4qbme8s","1280","720","","","","","","","","","","","null","+","Fixation - short","","null","","","","","","","","","","","","",""
"","html-keyboard-response","502","422004","0.0-558.0","f4qbme8s","1280","720","","","","","","","","","","","684","geb","Diagnostic trial","","j","10","1","false","false","RIGHT","j","1","","LEFT","false","","",""
"","html-keyboard-response","503","422755","0.0-561.0","f4qbme8s","1280","720","","","","","","","","","","","null","+","Fixation - short","","null","","","","","","","","","","","","",""
"","html-keyboard-response","504","423475","0.0-562.0","f4qbme8s","1280","720","","","","","","","","","","","719","geb","Diagnostic trial","","j","10","2","false","false","RIGHT","j","1","","LEFT","false","","",""
"","html-keyboard-response","505","424233","0.0-565.0","f4qbme8s","1280","720","","","","","","","","","","","null","+","Fixation - short","","null","","","","","","","","","","","","",""
"","html-keyboard-response","506","425338","0.0-566.0","f4qbme8s","1280","720","","","","","","","","","","","1105","jil","Diagnostic trial","","f","10","3","false","true","LEFT","f","1","","RIGHT","false","","",""
"","html-keyboard-response","507","426093","0.0-569.0","f4qbme8s","1280","720","","","","","","","","","","","null","+","Fixation - short","","null","","","","","","","","","","","","",""
"","html-keyboard-response","508","426486","0.0-570.0","f4qbme8s","1280","720","","","","","","","","","","","392","jil","Diagnostic trial","","f","10","4","false","true","LEFT","f","1","","RIGHT","false","","",""
"","html-keyboard-response","509","427240","0.0-573.0","f4qbme8s","1280","720","","","","","","","","","","","null","+","Fixation - short","","null","","","","","","","","","","","","",""
"","html-keyboard-response","510","427721","0.0-574.0","f4qbme8s","1280","720","","","","","","","","","","","480","jil","Diagnostic trial","","j","10","5","false","true","LEFT","f","0","","RIGHT","false","","",""
"","call-function","511","427721","0.0-576.0-0.0","f4qbme8s","","","","","","","","","","","","","","","","","","","","","","","","","","","","","",""
"","html-keyboard-response","512","428036","0.0-576.0-1.0","f4qbme8s","1280","720","","","","","","","","","","","null","Wrong","Feedback","","null","","","","","","","","","","","","",""
"","call-function","513","428036","0.0-576.0-2.0","f4qbme8s","","","","","","","","","","","","","","","","","","","","","","","","","","","","","",""
"","html-keyboard-response","514","428790","0.0-577.0","f4qbme8s","1280","720","","","","","","","","","","","null","+","Fixation - short","","null","","","","","","","","","","","","",""
"","html-keyboard-response","515","429796","0.0-578.0","f4qbme8s","1280","720","","","","","","","","","","","1005","jil","Diagnostic trial","","f","10","6","false","true","LEFT","f","1","","RIGHT","false","","",""
"","html-keyboard-response","516","430548","0.0-581.0","f4qbme8s","1280","720","","","","","","","","","","","null","+","Fixation - short","","null","","","","","","","","","","","","",""
"","html-keyboard-response","517","431256","0.0-582.0","f4qbme8s","1280","720","","","","","","","","","","","707","geb","Diagnostic trial","","j","10","7","false","false","RIGHT","j","1","","LEFT","false","","",""
"","html-keyboard-response","518","432010","0.0-585.0","f4qbme8s","1280","720","","","","","","","","","","","null","+","Fixation - short","","null","","","","","","","","","","","","",""
"","html-keyboard-response","519","432858","0.0-586.0","f4qbme8s","1280","720","","","","","","","","","","","847","geb","Diagnostic trial","","j","10","8","false","true","LEFT","f","0","","LEFT","true","","",""
"","call-function","520","432858","0.0-588.0-0.0","f4qbme8s","","","","","","","","","","","","","","","","","","","","","","","","","","","","","",""
"","html-keyboard-response","521","433171","0.0-588.0-1.0","f4qbme8s","1280","720","","","","","","","","","","","null","Wrong","Feedback","","null","","","","","","","","","","","","",""
"","call-function","522","433171","0.0-588.0-2.0","f4qbme8s","","","","","","","","","","","","","","","","","","","","","","","","","","","","","",""
"","html-keyboard-response","523","433929","0.0-589.0","f4qbme8s","1280","720","","","","","","","","","","","null","+","Fixation - short","","null","","","","","","","","","","","","",""
"","html-keyboard-response","524","435182","0.0-590.0","f4qbme8s","1280","720","","","","","","","","","","","1253","jil","Diagnostic trial","","f","10","9","false","true","LEFT","f","1","","RIGHT","false","","",""
"","html-keyboard-response","525","435937","0.0-593.0","f4qbme8s","1280","720","","","","","","","","","","","null","+","Fixation - short","","null","","","","","","","","","","","","",""
"","html-keyboard-response","526","436952","0.0-594.0","f4qbme8s","1280","720","","","","","","","","","","","1014","geb","Diagnostic trial","","j","10","10","false","true","LEFT","f","0","","LEFT","true","","",""
"","call-function","527","436953","0.0-596.0-0.0","f4qbme8s","","","","","","","","","","","","","","","","","","","","","","","","","","","","","",""
"","html-keyboard-response","528","437258","0.0-596.0-1.0","f4qbme8s","1280","720","","","","","","","","","","","null","Wrong","Feedback","","null","","","","","","","","","","","","",""
"","call-function","529","437258","0.0-596.0-2.0","f4qbme8s","","","","","","","","","","","","","","","","","","","","","","","","","","","","","",""
"","html-keyboard-response","530","438020","0.0-597.0","f4qbme8s","1280","720","","","","","","","","","","","null","+","Fixation - short","","null","","","","","","","","","","","","",""
"","html-keyboard-response","531","438661","0.0-598.0","f4qbme8s","1280","720","","","","","","","","","","","640","jil","Diagnostic trial","","f","10","11","false","false","RIGHT","j","0","","RIGHT","true","","",""
"","call-function","532","438661","0.0-600.0-0.0","f4qbme8s","","","","","","","","","","","","","","","","","","","","","","","","","","","","","",""
"","html-keyboard-response","533","438970","0.0-600.0-1.0","f4qbme8s","1280","720","","","","","","","","","","","null","Wrong","Feedback","","null","","","","","","","","","","","","",""
