"value","trial_type","trial_index","time_elapsed","internal_node_id","id","width","height","webaudio","browser","browser_version","mobile","os","fullscreen","vsync_rate","webcam","microphone","view_history","rt","stimulus","trial_info","success","response","inducer_run","diagnostic_run","inducer_trial","italic","correct_diag_response_side","correct_response_key","correct_response","correct_indu_response_side","correct_inducer_response_side","congruent","accuracy","open_feedback","interactive"
"","call-function","0","17","0.0-0.0","bnnt4sn8","","","","","","","","","","","","","","","","","","","","","","","","","","","","","",""
"","browser-check","1","1097","0.0-1.0","bnnt4sn8","1280","689","true","chrome","109.0.0","false","Windows 10","true","56.6","false","true","","","","","","","","","","","","","","","","","","",""
"","instructions","2","57196","0.0-2.0","bnnt4sn8","","","","","","","","","","","","[{""page_index"":0,""viewing_time"":11290},{""page_index"":1,""viewing_time"":31119},{""page_index"":2,""viewing_time"":13688}]","56097","The experiment and consent","The experiment and consent","","","","","","","","","","","","","","",""
"","fullscreen","3","67921","0.0-3.0","bnnt4sn8","1280","800","","","","","","","","","","","9704","","Full screen","true","","","","","","","","","","","","","",""
"","instructions","4","139577","0.0-4.0","bnnt4sn8","1280","689","","","","","","","","","","[{""page_index"":0,""viewing_time"":60552},{""page_index"":1,""viewing_time"":11104}]","71656","Instructions","Basic overview explanation","","","","","","","","","","","","","","",""
"","html-keyboard-response","5","161048","0.0-5.0","bnnt4sn8","1280","689","","","","","","","","","","","19944","If italic press RIGHT | If upright press LEFT","Diagnostic instructions",""," ","","","","","","","","","","","","",""
"","html-keyboard-response","6","161811","0.0-6.0","bnnt4sn8","1280","689","","","","","","","","","","","null","+","Fixation - short","","null","","","","","","","","","","","","",""
"","html-keyboard-response","7","165760","0.0-7.0","bnnt4sn8","1280","689","","","","","","","","","","","3949","chy","Practice diganostic trial","","j","practice","0","false","1","RIGHT","j","1","","","","","",""
"","html-keyboard-response","8","166517","0.0-10.0","bnnt4sn8","1280","689","","","","","","","","","","","null","+","Fixation - short","","null","","","","","","","","","","","","",""
"","html-keyboard-response","9","167991","0.0-11.0","bnnt4sn8","1280","689","","","","","","","","","","","1474","chy","Practice diganostic trial","","j","practice","1","false","1","RIGHT","j","1","","","","","",""
"","html-keyboard-response","10","168753","0.0-14.0","bnnt4sn8","1280","689","","","","","","","","","","","null","+","Fixation - short","","null","","","","","","","","","","","","",""
"","html-keyboard-response","11","169784","0.0-15.0","bnnt4sn8","1280","689","","","","","","","","","","","1031","gdn","Practice diganostic trial","","f","practice","2","false","0","LEFT","f","1","","","","","",""
"","html-keyboard-response","12","170547","0.0-18.0","bnnt4sn8","1280","689","","","","","","","","","","","null","+","Fixation - short","","null","","","","","","","","","","","","",""
"","html-keyboard-response","13","171172","0.0-19.0","bnnt4sn8","1280","689","","","","","","","","","","","625","chy","Practice diganostic trial","","j","practice","3","false","1","RIGHT","j","1","","","","","",""
"","html-keyboard-response","14","171936","0.0-22.0","bnnt4sn8","1280","689","","","","","","","","","","","null","+","Fixation - short","","null","","","","","","","","","","","","",""
"","html-keyboard-response","15","172436","0.0-23.0","bnnt4sn8","1280","689","","","","","","","","","","","484","chy","Practice diganostic trial","","j","practice","4","false","0","LEFT","f","0","","","","","",""
"","call-function","16","172439","0.0-25.0-0.0","bnnt4sn8","","","","","","","","","","","","","","","","","","","","","","","","","","","","","",""
"","html-keyboard-response","17","172744","0.0-25.0-1.0","bnnt4sn8","1280","689","","","","","","","","","","","null","Wrong","Feedback","","null","","","","","","","","","","","","",""
"","call-function","18","172744","0.0-25.0-2.0","bnnt4sn8","","","","","","","","","","","","","","","","","","","","","","","","","","","","","",""
"","html-keyboard-response","19","173500","0.0-26.0","bnnt4sn8","1280","689","","","","","","","","","","","null","+","Fixation - short","","null","","","","","","","","","","","","",""
"","html-keyboard-response","20","174661","0.0-27.0","bnnt4sn8","1280","689","","","","","","","","","","","1161","gdn","Practice diganostic trial","","f","practice","5","false","1","RIGHT","j","0","","","","","",""
"","call-function","21","174661","0.0-29.0-0.0","bnnt4sn8","","","","","","","","","","","","","","","","","","","","","","","","","","","","","",""
"","html-keyboard-response","22","174968","0.0-29.0-1.0","bnnt4sn8","1280","689","","","","","","","","","","","null","Wrong","Feedback","","null","","","","","","","","","","","","",""
"","call-function","23","174968","0.0-29.0-2.0","bnnt4sn8","","","","","","","","","","","","","","","","","","","","","","","","","","","","","",""
"","html-keyboard-response","24","175735","0.0-30.0","bnnt4sn8","1280","689","","","","","","","","","","","null","+","Fixation - short","","null","","","","","","","","","","","","",""
"","html-keyboard-response","25","176500","0.0-31.0","bnnt4sn8","1280","689","","","","","","","","","","","765","gdn","Practice diganostic trial","","j","practice","6","false","0","LEFT","f","0","","","","","",""
"","call-function","26","176500","0.0-33.0-0.0","bnnt4sn8","","","","","","","","","","","","","","","","","","","","","","","","","","","","","",""
"","html-keyboard-response","27","176809","0.0-33.0-1.0","bnnt4sn8","1280","689","","","","","","","","","","","null","Wrong","Feedback","","null","","","","","","","","","","","","",""
"","call-function","28","176809","0.0-33.0-2.0","bnnt4sn8","","","","","","","","","","","","","","","","","","","","","","","","","","","","","",""
"","html-keyboard-response","29","177563","0.0-34.0","bnnt4sn8","1280","689","","","","","","","","","","","null","+","Fixation - short","","null","","","","","","","","","","","","",""
"","html-keyboard-response","30","179230","0.0-35.0","bnnt4sn8","1280","689","","","","","","","","","","","1667","gdn","Practice diganostic trial","","f","practice","7","false","0","LEFT","f","1","","","","","",""
"","html-keyboard-response","31","179999","0.0-38.0","bnnt4sn8","1280","689","","","","","","","","","","","null","+","Fixation - short","","null","","","","","","","","","","","","",""
"","html-keyboard-response","32","180910","0.0-39.0","bnnt4sn8","1280","689","","","","","","","","","","","911","chy","Practice diganostic trial","","j","practice","8","false","1","RIGHT","j","1","","","","","",""
"","html-keyboard-response","33","181672","0.0-42.0","bnnt4sn8","1280","689","","","","","","","","","","","null","+","Fixation - short","","null","","","","","","","","","","","","",""
"","html-keyboard-response","34","182866","0.0-43.0","bnnt4sn8","1280","689","","","","","","","","","","","1194","chy","Practice diganostic trial","","j","practice","9","false","0","LEFT","f","0","","","","","",""
"","call-function","35","182866","0.0-45.0-0.0","bnnt4sn8","","","","","","","","","","","","","","","","","","","","","","","","","","","","","",""
"","html-keyboard-response","36","183171","0.0-45.0-1.0","bnnt4sn8","1280","689","","","","","","","","","","","null","Wrong","Feedback","","null","","","","","","","","","","","","",""
"","call-function","37","183171","0.0-45.0-2.0","bnnt4sn8","","","","","","","","","","","","","","","","","","","","","","","","","","","","","",""
"","html-keyboard-response","38","183942","0.0-46.0","bnnt4sn8","1280","689","","","","","","","","","","","null","+","Fixation - short","","null","","","","","","","","","","","","",""
"","html-keyboard-response","39","185191","0.0-47.0","bnnt4sn8","1280","689","","","","","","","","","","","1249","gdn","Practice diganostic trial","","f","practice","10","false","1","RIGHT","j","0","","","","","",""
"","call-function","40","185191","0.0-49.0-0.0","bnnt4sn8","","","","","","","","","","","","","","","","","","","","","","","","","","","","","",""
"","html-keyboard-response","41","185512","0.0-49.0-1.0","bnnt4sn8","1280","689","","","","","","","","","","","null","Wrong","Feedback","","null","","","","","","","","","","","","",""
"","call-function","42","185513","0.0-49.0-2.0","bnnt4sn8","","","","","","","","","","","","","","","","","","","","","","","","","","","","","",""
"","html-keyboard-response","43","186265","0.0-50.0","bnnt4sn8","1280","689","","","","","","","","","","","null","+","Fixation - short","","null","","","","","","","","","","","","",""
"","html-keyboard-response","44","187186","0.0-51.0","bnnt4sn8","1280","689","","","","","","","","","","","921","chy","Practice diganostic trial","","j","practice","11","false","1","RIGHT","j","1","","","","","",""
"","html-keyboard-response","45","187951","0.0-54.0","bnnt4sn8","1280","689","","","","","","","","","","","null","+","Fixation - short","","null","","","","","","","","","","","","",""
"","html-keyboard-response","46","188671","0.0-55.0","bnnt4sn8","1280","689","","","","","","","","","","","719","chy","Practice diganostic trial","","j","practice","12","false","0","LEFT","f","0","","","","","",""
"","call-function","47","188671","0.0-57.0-0.0","bnnt4sn8","","","","","","","","","","","","","","","","","","","","","","","","","","","","","",""
"","html-keyboard-response","48","188989","0.0-57.0-1.0","bnnt4sn8","1280","689","","","","","","","","","","","null","Wrong","Feedback","","null","","","","","","","","","","","","",""
"","call-function","49","188989","0.0-57.0-2.0","bnnt4sn8","","","","","","","","","","","","","","","","","","","","","","","","","","","","","",""
"","html-keyboard-response","50","189750","0.0-58.0","bnnt4sn8","1280","689","","","","","","","","","","","null","+","Fixation - short","","null","","","","","","","","","","","","",""
"","html-keyboard-response","51","191123","0.0-59.0","bnnt4sn8","1280","689","","","","","","","","","","","1373","gdn","Practice diganostic trial","","f","practice","13","false","1","RIGHT","j","0","","","","","",""
"","call-function","52","191123","0.0-61.0-0.0","bnnt4sn8","","","","","","","","","","","","","","","","","","","","","","","","","","","","","",""
"","html-keyboard-response","53","191426","0.0-61.0-1.0","bnnt4sn8","1280","689","","","","","","","","","","","null","Wrong","Feedback","","null","","","","","","","","","","","","",""
"","call-function","54","191426","0.0-61.0-2.0","bnnt4sn8","","","","","","","","","","","","","","","","","","","","","","","","","","","","","",""
"","html-keyboard-response","55","192186","0.0-62.0","bnnt4sn8","1280","689","","","","","","","","","","","null","+","Fixation - short","","null","","","","","","","","","","","","",""
"","html-keyboard-response","56","192770","0.0-63.0","bnnt4sn8","1280","689","","","","","","","","","","","584","chy","Practice diganostic trial","","j","practice","14","false","0","LEFT","f","0","","","","","",""
"","call-function","57","192770","0.0-65.0-0.0","bnnt4sn8","","","","","","","","","","","","","","","","","","","","","","","","","","","","","",""
"","html-keyboard-response","58","193079","0.0-65.0-1.0","bnnt4sn8","1280","689","","","","","","","","","","","null","Wrong","Feedback","","null","","","","","","","","","","","","",""
"","call-function","59","193079","0.0-65.0-2.0","bnnt4sn8","","","","","","","","","","","","","","","","","","","","","","","","","","","","","",""
"","html-keyboard-response","60","193845","0.0-66.0","bnnt4sn8","1280","689","","","","","","","","","","","null","+","Fixation - short","","null","","","","","","","","","","","","",""
"","html-keyboard-response","61","194782","0.0-67.0","bnnt4sn8","1280","689","","","","","","","","","","","937","gdn","Practice diganostic trial","","f","practice","15","false","0","LEFT","f","1","","","","","",""
"","html-keyboard-response","62","195550","0.0-70.0","bnnt4sn8","1280","689","","","","","","","","","","","null","+","Fixation - short","","null","","","","","","","","","","","","",""
"","instructions","63","213984","0.0-71.0","bnnt4sn8","1280","689","","","","","","","","","","[{""page_index"":0,""viewing_time"":18434}]","18434","Instructions","Final experiment explanation","","","","","","","","","","","","","","",""
"","html-keyboard-response","64","227240","0.0-72.0","bnnt4sn8","1280","689","","","","","","","","","","","11748","If afp press RIGHT | If cnl press LEFT","Practice inducer instructions",""," ","practice","","","","","","","","","","","",""
"","html-keyboard-response","65","228987","0.0-73.0","bnnt4sn8","1280","689","","","","","","","","","","","1744","","Practice inducer trial","","f","practice","","true","","","f","1","LEFT","","","","",""
"","html-keyboard-response","66","229749","0.0-76.0","bnnt4sn8","1280","689","","","","","","","","","","","null","+","Fixation - short","","null","","","","","","","","","","","","",""
"","html-keyboard-response","67","243691","0.0-77.0","bnnt4sn8","1280","689","","","","","","","","","","","13927","If ebe press RIGHT | If dlg press LEFT","Practice inducer instructions",""," ","practice","","","","","","","","","","","",""
"","html-keyboard-response","68","244473","0.0-78.0","bnnt4sn8","1280","689","","","","","","","","","","","782","","Practice inducer trial","","j","practice","","true","","","j","1","RIGHT","","","","",""
"","html-keyboard-response","69","245235","0.0-81.0","bnnt4sn8","1280","689","","","","","","","","","","","null","+","Fixation - short","","null","","","","","","","","","","","","",""
"","html-keyboard-response","70","251619","0.0-82.0","bnnt4sn8","1280","689","","","","","","","","","","","6384","If kue press RIGHT | If ccx press LEFT","Practice inducer instructions",""," ","practice","","","","","","","","","","","",""
"","html-keyboard-response","71","253084","0.0-83.0","bnnt4sn8","1280","689","","","","","","","","","","","1465","","Practice inducer trial","","j","practice","","true","","","j","1","RIGHT","","","","",""
"","html-keyboard-response","72","253846","0.0-86.0","bnnt4sn8","1280","689","","","","","","","","","","","null","+","Fixation - short","","null","","","","","","","","","","","","",""
"","html-keyboard-response","73","257360","0.0-87.0","bnnt4sn8","1280","689","","","","","","","","","","","3514","If cui press RIGHT | If jft press LEFT","Practice inducer instructions",""," ","practice","","","","","","","","","","","",""
"","html-keyboard-response","74","258000","0.0-88.0","bnnt4sn8","1280","689","","","","","","","","","","","640","","Practice inducer trial","","f","practice","","true","","","f","1","LEFT","","","","",""
"","html-keyboard-response","75","258761","0.0-91.0","bnnt4sn8","1280","689","","","","","","","","","","","null","+","Fixation - short","","null","","","","","","","","","","","","",""
"","html-keyboard-response","76","261035","0.0-92.0","bnnt4sn8","1280","689","","","","","","","","","","","2274","If ufc press RIGHT | If psl press LEFT","Practice inducer instructions",""," ","practice","","","","","","","","","","","",""
"","html-keyboard-response","77","261848","0.0-93.0","bnnt4sn8","1280","689","","","","","","","","","","","813","","Practice inducer trial","","j","practice","","true","","","j","1","RIGHT","","","","",""
"","html-keyboard-response","78","262609","0.0-96.0","bnnt4sn8","1280","689","","","","","","","","","","","null","+","Fixation - short","","null","","","","","","","","","","","","",""
"","html-keyboard-response","79","265330","0.0-97.0","bnnt4sn8","1280","689","","","","","","","","","","","2721","If cmj press RIGHT | If ofa press LEFT","Practice inducer instructions",""," ","practice","","","","","","","","","","","",""
"","html-keyboard-response","80","266193","0.0-98.0","bnnt4sn8","1280","689","","","","","","","","","","","847","","Practice inducer trial","","f","practice","","true","","","f","1","LEFT","","","","",""
"","html-keyboard-response","81","266954","0.0-101.0","bnnt4sn8","1280","689","","","","","","","","","","","null","+","Fixation - short","","null","","","","","","","","","","","","",""
"","html-keyboard-response","82","297798","0.0-102.0","bnnt4sn8","1280","689","","","","","","","","","","","30844","End practice","End of practice",""," ","","","","","","","","","","","","",""
"","html-keyboard-response","83","299318","0.0-103.0","bnnt4sn8","1280","689","","","","","","","","","","","null","+","Fixation - long","","null","","","","","","","","","","","","",""
"","html-keyboard-response","84","307438","0.0-104.0","bnnt4sn8","1280","689","","","","","","","","","","","8104","If wab press RIGHT | If ila press LEFT","Inducer instructions",""," ","0","","","","","","","","","","","",""
"","html-keyboard-response","85","308202","0.0-105.0","bnnt4sn8","1280","689","","","","","","","","","","","null","+","Fixation - short","","null","","","","","","","","","","","","",""
"","html-keyboard-response","86","309193","0.0-106.0","bnnt4sn8","1280","689","","","","","","","","","","","991","wab","Diagnostic trial","","j","0","0","false","false","LEFT","f","0","","LEFT","true","","",""
"","call-function","87","309193","0.0-108.0-0.0","bnnt4sn8","","","","","","","","","","","","","","","","","","","","","","","","","","","","","",""
"","html-keyboard-response","88","309506","0.0-108.0-1.0","bnnt4sn8","1280","689","","","","","","","","","","","null","Wrong","Feedback","","null","","","","","","","","","","","","",""
"","call-function","89","309506","0.0-108.0-2.0","bnnt4sn8","","","","","","","","","","","","","","","","","","","","","","","","","","","","","",""
"","html-keyboard-response","90","310266","0.0-109.0","bnnt4sn8","1280","689","","","","","","","","","","","null","+","Fixation - short","","null","","","","","","","","","","","","",""
"","html-keyboard-response","91","311687","0.0-110.0","bnnt4sn8","1280","689","","","","","","","","","","","1421","ila","Diagnostic trial","","j","0","1","false","false","LEFT","f","0","","RIGHT","false","","",""
"","call-function","92","311687","0.0-112.0-0.0","bnnt4sn8","","","","","","","","","","","","","","","","","","","","","","","","","","","","","",""
"","html-keyboard-response","93","312006","0.0-112.0-1.0","bnnt4sn8","1280","689","","","","","","","","","","","null","Wrong","Feedback","","null","","","","","","","","","","","","",""
"","call-function","94","312007","0.0-112.0-2.0","bnnt4sn8","","","","","","","","","","","","","","","","","","","","","","","","","","","","","",""
"","html-keyboard-response","95","312760","0.0-113.0","bnnt4sn8","1280","689","","","","","","","","","","","null","+","Fixation - short","","null","","","","","","","","","","","","",""
"","html-keyboard-response","96","313330","0.0-114.0","bnnt4sn8","1280","689","","","","","","","","","","","568","ila","Diagnostic trial","","f","0","2","false","false","LEFT","f","1","","RIGHT","false","","",""
"","html-keyboard-response","97","314095","0.0-117.0","bnnt4sn8","1280","689","","","","","","","","","","","null","+","Fixation - short","","null","","","","","","","","","","","","",""
"","html-keyboard-response","98","314843","0.0-118.0","bnnt4sn8","1280","689","","","","","","","","","","","747","ila","Diagnostic trial","","f","0","3","false","true","RIGHT","j","0","","RIGHT","true","","",""
"","call-function","99","314843","0.0-120.0-0.0","bnnt4sn8","","","","","","","","","","","","","","","","","","","","","","","","","","","","","",""
"","html-keyboard-response","100","315157","0.0-120.0-1.0","bnnt4sn8","1280","689","","","","","","","","","","","null","Wrong","Feedback","","null","","","","","","","","","","","","",""
"","call-function","101","315157","0.0-120.0-2.0","bnnt4sn8","","","","","","","","","","","","","","","","","","","","","","","","","","","","","",""
"","html-keyboard-response","102","315914","0.0-121.0","bnnt4sn8","1280","689","","","","","","","","","","","null","+","Fixation - short","","null","","","","","","","","","","","","",""
"","html-keyboard-response","103","316720","0.0-122.0","bnnt4sn8","1280","689","","","","","","","","","","","806","ila","Diagnostic trial","","j","0","4","false","true","RIGHT","j","1","","RIGHT","true","","",""
"","html-keyboard-response","104","317485","0.0-125.0","bnnt4sn8","1280","689","","","","","","","","","","","null","+","Fixation - short","","null","","","","","","","","","","","","",""
"","html-keyboard-response","105","318521","0.0-126.0","bnnt4sn8","1280","689","","","","","","","","","","","1021","ila","Diagnostic trial","","f","0","5","false","true","RIGHT","j","0","","RIGHT","true","","",""
"","call-function","106","318521","0.0-128.0-0.0","bnnt4sn8","","","","","","","","","","","","","","","","","","","","","","","","","","","","","",""
"","html-keyboard-response","107","318832","0.0-128.0-1.0","bnnt4sn8","1280","689","","","","","","","","","","","null","Wrong","Feedback","","null","","","","","","","","","","","","",""
"","call-function","108","318832","0.0-128.0-2.0","bnnt4sn8","","","","","","","","","","","","","","","","","","","","","","","","","","","","","",""
"","html-keyboard-response","109","319595","0.0-129.0","bnnt4sn8","1280","689","","","","","","","","","","","null","+","Fixation - short","","null","","","","","","","","","","","","",""
"","html-keyboard-response","110","320420","0.0-130.0","bnnt4sn8","1280","689","","","","","","","","","","","825","wab","Diagnostic trial","","j","0","6","false","true","RIGHT","j","1","","LEFT","false","","",""
"","html-keyboard-response","111","321190","0.0-133.0","bnnt4sn8","1280","689","","","","","","","","","","","null","+","Fixation - short","","null","","","","","","","","","","","","",""
"","html-keyboard-response","112","321906","0.0-134.0","bnnt4sn8","1280","689","","","","","","","","","","","716","ila","Diagnostic trial","","f","0","7","false","false","LEFT","f","1","","RIGHT","false","","",""
"","html-keyboard-response","113","322657","0.0-137.0","bnnt4sn8","1280","689","","","","","","","","","","","null","+","Fixation - short","","null","","","","","","","","","","","","",""
"","html-keyboard-response","114","323816","0.0-138.0","bnnt4sn8","1280","689","","","","","","","","","","","1159","wab","Diagnostic trial","","j","0","8","false","false","LEFT","f","0","","LEFT","true","","",""
"","call-function","115","323831","0.0-140.0-0.0","bnnt4sn8","","","","","","","","","","","","","","","","","","","","","","","","","","","","","",""
"","html-keyboard-response","116","324136","0.0-140.0-1.0","bnnt4sn8","1280","689","","","","","","","","","","","null","Wrong","Feedback","","null","","","","","","","","","","","","",""
"","call-function","117","324136","0.0-140.0-2.0","bnnt4sn8","","","","","","","","","","","","","","","","","","","","","","","","","","","","","",""
"","html-keyboard-response","118","324890","0.0-141.0","bnnt4sn8","1280","689","","","","","","","","","","","null","+","Fixation - short","","null","","","","","","","","","","","","",""
"","html-keyboard-response","119","325788","0.0-142.0","bnnt4sn8","1280","689","","","","","","","","","","","898","wab","Diagnostic trial","","f","0","9","false","false","LEFT","f","1","","LEFT","true","","",""
"","html-keyboard-response","120","326546","0.0-145.0","bnnt4sn8","1280","689","","","","","","","","","","","null","+","Fixation - short","","null","","","","","","","","","","","","",""
"","html-keyboard-response","121","327411","0.0-146.0","bnnt4sn8","1280","689","","","","","","","","","","","865","wab","Diagnostic trial","","j","0","10","false","true","RIGHT","j","1","","LEFT","false","","",""
"","html-keyboard-response","122","328188","0.0-149.0","bnnt4sn8","1280","689","","","","","","","","","","","null","+","Fixation - short","","null","","","","","","","","","","","","",""
"","html-keyboard-response","123","329458","0.0-150.0","bnnt4sn8","1280","689","","","","","","","","","","","1270","ila","Diagnostic trial","","f","0","11","false","true","RIGHT","j","0","","RIGHT","true","","",""
"","call-function","124","329458","0.0-152.0-0.0","bnnt4sn8","","","","","","","","","","","","","","","","","","","","","","","","","","","","","",""
"","html-keyboard-response","125","329765","0.0-152.0-1.0","bnnt4sn8","1280","689","","","","","","","","","","","null","Wrong","Feedback","","null","","","","","","","","","","","","",""
"","call-function","126","329765","0.0-152.0-2.0","bnnt4sn8","","","","","","","","","","","","","","","","","","","","","","","","","","","","","",""
"","html-keyboard-response","127","330530","0.0-153.0","bnnt4sn8","1280","689","","","","","","","","","","","null","+","Fixation - short","","null","","","","","","","","","","","","",""
"","html-keyboard-response","128","332050","0.0-154.0","bnnt4sn8","1280","689","","","","","","","","","","","1520","wab","Diagnostic trial","","j","0","12","false","false","LEFT","f","0","","LEFT","true","","",""
"","call-function","129","332050","0.0-156.0-0.0","bnnt4sn8","","","","","","","","","","","","","","","","","","","","","","","","","","","","","",""
"","html-keyboard-response","130","332356","0.0-156.0-1.0","bnnt4sn8","1280","689","","","","","","","","","","","null","Wrong","Feedback","","null","","","","","","","","","","","","",""
"","call-function","131","332356","0.0-156.0-2.0","bnnt4sn8","","","","","","","","","","","","","","","","","","","","","","","","","","","","","",""
"","html-keyboard-response","132","333125","0.0-157.0","bnnt4sn8","1280","689","","","","","","","","","","","null","+","Fixation - short","","null","","","","","","","","","","","","",""
"","html-keyboard-response","133","334727","0.0-158.0","bnnt4sn8","1280","689","","","","","","","","","","","1602","ila","Diagnostic trial","","j","0","13","false","false","LEFT","f","0","","RIGHT","false","","",""
"","call-function","134","334727","0.0-160.0-0.0","bnnt4sn8","","","","","","","","","","","","","","","","","","","","","","","","","","","","","",""
"","html-keyboard-response","135","335033","0.0-160.0-1.0","bnnt4sn8","1280","689","","","","","","","","","","","null","Wrong","Feedback","","null","","","","","","","","","","","","",""
"","call-function","136","335034","0.0-160.0-2.0","bnnt4sn8","","","","","","","","","","","","","","","","","","","","","","","","","","","","","",""
"","html-keyboard-response","137","335797","0.0-161.0","bnnt4sn8","1280","689","","","","","","","","","","","null","+","Fixation - short","","null","","","","","","","","","","","","",""
"","html-keyboard-response","138","336517","0.0-162.0","bnnt4sn8","1280","689","","","","","","","","","","","704","ila","Diagnostic trial","","f","0","14","false","false","LEFT","f","1","","RIGHT","false","","",""
"","html-keyboard-response","139","337281","0.0-165.0","bnnt4sn8","1280","689","","","","","","","","","","","null","+","Fixation - short","","null","","","","","","","","","","","","",""
"","html-keyboard-response","140","338266","0.0-166.0","bnnt4sn8","1280","689","","","","","","","","","","","985","ila","Inducer trial","","j","0","","true","","","f","0","LEFT","","","","",""
"","call-function","141","338266","0.0-168.0-0.0","bnnt4sn8","","","","","","","","","","","","","","","","","","","","","","","","","","","","","",""
"","html-keyboard-response","142","338571","0.0-168.0-1.0","bnnt4sn8","1280","689","","","","","","","","","","","null","Wrong","Feedback","","null","","","","","","","","","","","","",""
"","call-function","143","338572","0.0-168.0-2.0","bnnt4sn8","","","","","","","","","","","","","","","","","","","","","","","","","","","","","",""
"","html-keyboard-response","144","340082","0.0-169.0","bnnt4sn8","1280","689","","","","","","","","","","","null","+","Fixation - long","","null","","","","","","","","","","","","",""
"","html-keyboard-response","145","346859","0.0-170.0","bnnt4sn8","1280","689","","","","","","","","","","","6776","If dij press RIGHT | If pcm press LEFT","Inducer instructions",""," ","1","","","","","","","","","","","",""
"","html-keyboard-response","146","347629","0.0-171.0","bnnt4sn8","1280","689","","","","","","","","","","","null","+","Fixation - short","","null","","","","","","","","","","","","",""
"","html-keyboard-response","147","348531","0.0-172.0","bnnt4sn8","1280","689","","","","","","","","","","","902","pcm","Diagnostic trial","","f","1","0","false","false","LEFT","f","1","","RIGHT","false","","",""
"","html-keyboard-response","148","349296","0.0-175.0","bnnt4sn8","1280","689","","","","","","","","","","","null","+","Fixation - short","","null","","","","","","","","","","","","",""
"","html-keyboard-response","149","350374","0.0-176.0","bnnt4sn8","1280","689","","","","","","","","","","","1078","pcm","Diagnostic trial","","j","1","1","false","true","RIGHT","j","1","","RIGHT","true","","",""
"","html-keyboard-response","150","351143","0.0-179.0","bnnt4sn8","1280","689","","","","","","","","","","","null","+","Fixation - short","","null","","","","","","","","","","","","",""
"","html-keyboard-response","151","352721","0.0-180.0","bnnt4sn8","1280","689","","","","","","","","","","","1563","dij","Diagnostic trial","","j","1","2","false","false","LEFT","f","0","","LEFT","true","","",""
"","call-function","152","352721","0.0-182.0-0.0","bnnt4sn8","","","","","","","","","","","","","","","","","","","","","","","","","","","","","",""
"","html-keyboard-response","153","353036","0.0-182.0-1.0","bnnt4sn8","1280","689","","","","","","","","","","","null","Wrong","Feedback","","null","","","","","","","","","","","","",""
"","call-function","154","353036","0.0-182.0-2.0","bnnt4sn8","","","","","","","","","","","","","","","","","","","","","","","","","","","","","",""
"","html-keyboard-response","155","353800","0.0-183.0","bnnt4sn8","1280","689","","","","","","","","","","","null","+","Fixation - short","","null","","","","","","","","","","","","",""
"","html-keyboard-response","156","355298","0.0-184.0","bnnt4sn8","1280","689","","","","","","","","","","","1497","pcm","Diagnostic trial","","f","1","3","false","true","RIGHT","j","0","","RIGHT","true","","",""
"","call-function","157","355298","0.0-186.0-0.0","bnnt4sn8","","","","","","","","","","","","","","","","","","","","","","","","","","","","","",""
"","html-keyboard-response","158","355619","0.0-186.0-1.0","bnnt4sn8","1280","689","","","","","","","","","","","null","Wrong","Feedback","","null","","","","","","","","","","","","",""
"","call-function","159","355619","0.0-186.0-2.0","bnnt4sn8","","","","","","","","","","","","","","","","","","","","","","","","","","","","","",""
"","html-keyboard-response","160","356390","0.0-187.0","bnnt4sn8","1280","689","","","","","","","","","","","null","+","Fixation - short","","null","","","","","","","","","","","","",""
"","html-keyboard-response","161","357626","0.0-188.0","bnnt4sn8","1280","689","","","","","","","","","","","1236","dij","Diagnostic trial","","j","1","4","false","true","RIGHT","j","1","","LEFT","false","","",""
"","html-keyboard-response","162","358378","0.0-191.0","bnnt4sn8","1280","689","","","","","","","","","","","null","+","Fixation - short","","null","","","","","","","","","","","","",""
"","html-keyboard-response","163","360395","0.0-192.0","bnnt4sn8","1280","689","","","","","","","","","","","null","pcm","Diagnostic trial","","null","1","5","false","true","RIGHT","j","NaN","","RIGHT","true","","",""
"","call-function","164","360396","0.0-193.0-0.0","bnnt4sn8","","","","","","","","","","","","","","","","","","","","","","","","","","","","","",""
"","html-keyboard-response","165","360719","0.0-193.0-1.0","bnnt4sn8","1280","689","","","","","","","","","","","null","Slow","Feedback","","null","","","","","","","","","","","","",""
"","call-function","166","360719","0.0-193.0-2.0","bnnt4sn8","","","","","","","","","","","","","","","","","","","","","","","","","","","","","",""
"","html-keyboard-response","167","361483","0.0-195.0","bnnt4sn8","1280","689","","","","","","","","","","","null","+","Fixation - short","","null","","","","","","","","","","","","",""
"","html-keyboard-response","168","362594","0.0-196.0","bnnt4sn8","1280","689","","","","","","","","","","","1111","dij","Diagnostic trial","","f","1","6","false","false","LEFT","f","1","","LEFT","true","","",""
"","html-keyboard-response","169","363346","0.0-199.0","bnnt4sn8","1280","689","","","","","","","","","","","null","+","Fixation - short","","null","","","","","","","","","","","","",""
"","html-keyboard-response","170","364203","0.0-200.0","bnnt4sn8","1280","689","","","","","","","","","","","857","dij","Inducer trial","","j","1","","true","","","j","1","RIGHT","","","","",""
"","html-keyboard-response","171","365720","0.0-203.0","bnnt4sn8","1280","689","","","","","","","","","","","null","+","Fixation - long","","null","","","","","","","","","","","","",""
"","html-keyboard-response","172","369928","0.0-204.0","bnnt4sn8","1280","689","","","","","","","","","","","4208","If vpu press RIGHT | If hfs press LEFT","Inducer instructions",""," ","2","","","","","","","","","","","",""
"","html-keyboard-response","173","370686","0.0-205.0","bnnt4sn8","1280","689","","","","","","","","","","","null","+","Fixation - short","","null","","","","","","","","","","","","",""
"","html-keyboard-response","174","371537","0.0-206.0","bnnt4sn8","1280","689","","","","","","","","","","","851","hfs","Diagnostic trial","","f","2","0","false","true","RIGHT","j","0","","RIGHT","true","","",""
"","call-function","175","371537","0.0-208.0-0.0","bnnt4sn8","","","","","","","","","","","","","","","","","","","","","","","","","","","","","",""
"","html-keyboard-response","176","371844","0.0-208.0-1.0","bnnt4sn8","1280","689","","","","","","","","","","","null","Wrong","Feedback","","null","","","","","","","","","","","","",""
"","call-function","177","371844","0.0-208.0-2.0","bnnt4sn8","","","","","","","","","","","","","","","","","","","","","","","","","","","","","",""
"","html-keyboard-response","178","372612","0.0-209.0","bnnt4sn8","1280","689","","","","","","","","","","","null","+","Fixation - short","","null","","","","","","","","","","","","",""
"","html-keyboard-response","179","373406","0.0-210.0","bnnt4sn8","1280","689","","","","","","","","","","","794","hfs","Diagnostic trial","","j","2","1","false","true","RIGHT","j","1","","RIGHT","true","","",""
"","html-keyboard-response","180","374161","0.0-213.0","bnnt4sn8","1280","689","","","","","","","","","","","null","+","Fixation - short","","null","","","","","","","","","","","","",""
"","html-keyboard-response","181","375234","0.0-214.0","bnnt4sn8","1280","689","","","","","","","","","","","1072","hfs","Diagnostic trial","","j","2","2","false","true","RIGHT","j","1","","RIGHT","true","","",""
"","html-keyboard-response","182","375986","0.0-217.0","bnnt4sn8","1280","689","","","","","","","","","","","null","+","Fixation - short","","null","","","","","","","","","","","","",""
"","html-keyboard-response","183","376781","0.0-218.0","bnnt4sn8","1280","689","","","","","","","","","","","795","hfs","Diagnostic trial","","j","2","3","false","true","RIGHT","j","1","","RIGHT","true","","",""
"","html-keyboard-response","184","377536","0.0-221.0","bnnt4sn8","1280","689","","","","","","","","","","","null","+","Fixation - short","","null","","","","","","","","","","","","",""
"","html-keyboard-response","185","378578","0.0-222.0","bnnt4sn8","1280","689","","","","","","","","","","","1042","vpu","Diagnostic trial","","j","2","4","false","false","LEFT","f","0","","LEFT","true","","",""
"","call-function","186","378594","0.0-224.0-0.0","bnnt4sn8","","","","","","","","","","","","","","","","","","","","","","","","","","","","","",""
"","html-keyboard-response","187","378902","0.0-224.0-1.0","bnnt4sn8","1280","689","","","","","","","","","","","null","Wrong","Feedback","","null","","","","","","","","","","","","",""
"","call-function","188","378902","0.0-224.0-2.0","bnnt4sn8","","","","","","","","","","","","","","","","","","","","","","","","","","","","","",""
"","html-keyboard-response","189","379659","0.0-225.0","bnnt4sn8","1280","689","","","","","","","","","","","null","+","Fixation - short","","null","","","","","","","","","","","","",""
"","html-keyboard-response","190","380696","0.0-226.0","bnnt4sn8","1280","689","","","","","","","","","","","1037","hfs","Diagnostic trial","","j","2","5","false","true","RIGHT","j","1","","RIGHT","true","","",""
"","html-keyboard-response","191","381459","0.0-229.0","bnnt4sn8","1280","689","","","","","","","","","","","null","+","Fixation - short","","null","","","","","","","","","","","","",""
"","html-keyboard-response","192","382018","0.0-230.0","bnnt4sn8","1280","689","","","","","","","","","","","559","vpu","Diagnostic trial","","f","2","6","false","false","LEFT","f","1","","LEFT","true","","",""
"","html-keyboard-response","193","382768","0.0-233.0","bnnt4sn8","1280","689","","","","","","","","","","","null","+","Fixation - short","","null","","","","","","","","","","","","",""
"","html-keyboard-response","194","383406","0.0-234.0","bnnt4sn8","1280","689","","","","","","","","","","","638","vpu","Diagnostic trial","","j","2","7","false","true","RIGHT","j","1","","LEFT","false","","",""
"","html-keyboard-response","195","384173","0.0-237.0","bnnt4sn8","1280","689","","","","","","","","","","","null","+","Fixation - short","","null","","","","","","","","","","","","",""
"","html-keyboard-response","196","385441","0.0-238.0","bnnt4sn8","1280","689","","","","","","","","","","","1268","hfs","Diagnostic trial","","f","2","8","false","false","LEFT","f","1","","RIGHT","false","","",""
"","html-keyboard-response","197","386222","0.0-241.0","bnnt4sn8","1280","689","","","","","","","","","","","null","+","Fixation - short","","null","","","","","","","","","","","","",""
"","html-keyboard-response","198","387083","0.0-242.0","bnnt4sn8","1280","689","","","","","","","","","","","861","hfs","Diagnostic trial","","f","2","9","false","false","LEFT","f","1","","RIGHT","false","","",""
"","html-keyboard-response","199","387841","0.0-245.0","bnnt4sn8","1280","689","","","","","","","","","","","null","+","Fixation - short","","null","","","","","","","","","","","","",""
"","html-keyboard-response","200","388341","0.0-246.0","bnnt4sn8","1280","689","","","","","","","","","","","499","hfs","Diagnostic trial","","j","2","10","false","true","RIGHT","j","1","","RIGHT","true","","",""
"","html-keyboard-response","201","389110","0.0-249.0","bnnt4sn8","1280","689","","","","","","","","","","","null","+","Fixation - short","","null","","","","","","","","","","","","",""
"","html-keyboard-response","202","390080","0.0-250.0","bnnt4sn8","1280","689","","","","","","","","","","","970","vpu","Diagnostic trial","","f","2","11","false","false","LEFT","f","1","","LEFT","true","","",""
"","html-keyboard-response","203","390834","0.0-253.0","bnnt4sn8","1280","689","","","","","","","","","","","null","+","Fixation - short","","null","","","","","","","","","","","","",""
"","html-keyboard-response","204","391484","0.0-254.0","bnnt4sn8","1280","689","","","","","","","","","","","650","hfs","Diagnostic trial","","j","2","12","false","true","RIGHT","j","1","","RIGHT","true","","",""
"","html-keyboard-response","205","392242","0.0-257.0","bnnt4sn8","1280","689","","","","","","","","","","","null","+","Fixation - short","","null","","","","","","","","","","","","",""
"","html-keyboard-response","206","393278","0.0-258.0","bnnt4sn8","1280","689","","","","","","","","","","","1036","vpu","Diagnostic trial","","j","2","13","false","true","RIGHT","j","1","","LEFT","false","","",""
"","html-keyboard-response","207","394032","0.0-261.0","bnnt4sn8","1280","689","","","","","","","","","","","null","+","Fixation - short","","null","","","","","","","","","","","","",""
"","html-keyboard-response","208","394962","0.0-262.0","bnnt4sn8","1280","689","","","","","","","","","","","929","hfs","Diagnostic trial","","f","2","14","false","false","LEFT","f","1","","RIGHT","false","","",""
"","html-keyboard-response","209","395724","0.0-265.0","bnnt4sn8","1280","689","","","","","","","","","","","null","+","Fixation - short","","null","","","","","","","","","","","","",""
"","html-keyboard-response","210","396417","0.0-266.0","bnnt4sn8","1280","689","","","","","","","","","","","691","vpu","Inducer trial","","j","2","","true","","","j","1","RIGHT","","","","",""
"","html-keyboard-response","211","397925","0.0-269.0","bnnt4sn8","1280","689","","","","","","","","","","","null","+","Fixation - long","","null","","","","","","","","","","","","",""
"","html-keyboard-response","212","402540","0.0-270.0","bnnt4sn8","1280","689","","","","","","","","","","","4599","If otr press RIGHT | If dgv press LEFT","Inducer instructions",""," ","3","","","","","","","","","","","",""
"","html-keyboard-response","213","403297","0.0-271.0","bnnt4sn8","1280","689","","","","","","","","","","","null","+","Fixation - short","","null","","","","","","","","","","","","",""
"","html-keyboard-response","214","404925","0.0-272.0","bnnt4sn8","1280","689","","","","","","","","","","","1628","dgv","Diagnostic trial","","j","3","0","false","true","RIGHT","j","1","","RIGHT","true","","",""
"","html-keyboard-response","215","405687","0.0-275.0","bnnt4sn8","1280","689","","","","","","","","","","","null","+","Fixation - short","","null","","","","","","","","","","","","",""
"","html-keyboard-response","216","406598","0.0-276.0","bnnt4sn8","1280","689","","","","","","","","","","","911","otr","Diagnostic trial","","j","3","1","false","true","RIGHT","j","1","","LEFT","false","","",""
"","html-keyboard-response","217","407361","0.0-279.0","bnnt4sn8","1280","689","","","","","","","","","","","null","+","Fixation - short","","null","","","","","","","","","","","","",""
"","html-keyboard-response","218","408139","0.0-280.0","bnnt4sn8","1280","689","","","","","","","","","","","778","otr","Diagnostic trial","","f","3","2","false","false","LEFT","f","1","","LEFT","true","","",""
"","html-keyboard-response","219","408907","0.0-283.0","bnnt4sn8","1280","689","","","","","","","","","","","null","+","Fixation - short","","null","","","","","","","","","","","","",""
"","html-keyboard-response","220","409564","0.0-284.0","bnnt4sn8","1280","689","","","","","","","","","","","657","otr","Diagnostic trial","","j","3","3","false","true","RIGHT","j","1","","LEFT","false","","",""
"","html-keyboard-response","221","410329","0.0-287.0","bnnt4sn8","1280","689","","","","","","","","","","","null","+","Fixation - short","","null","","","","","","","","","","","","",""
"","html-keyboard-response","222","411091","0.0-288.0","bnnt4sn8","1280","689","","","","","","","","","","","762","dgv","Diagnostic trial","","j","3","4","false","true","RIGHT","j","1","","RIGHT","true","","",""
"","html-keyboard-response","223","411859","0.0-291.0","bnnt4sn8","1280","689","","","","","","","","","","","null","+","Fixation - short","","null","","","","","","","","","","","","",""
"","html-keyboard-response","224","412513","0.0-292.0","bnnt4sn8","1280","689","","","","","","","","","","","654","dgv","Diagnostic trial","","f","3","5","false","false","LEFT","f","1","","RIGHT","false","","",""
"","html-keyboard-response","225","413272","0.0-295.0","bnnt4sn8","1280","689","","","","","","","","","","","null","+","Fixation - short","","null","","","","","","","","","","","","",""
"","html-keyboard-response","226","413985","0.0-296.0","bnnt4sn8","1280","689","","","","","","","","","","","713","dgv","Inducer trial","","j","3","","true","","","f","0","LEFT","","","","",""
"","call-function","227","413985","0.0-298.0-0.0","bnnt4sn8","","","","","","","","","","","","","","","","","","","","","","","","","","","","","",""
"","html-keyboard-response","228","414297","0.0-298.0-1.0","bnnt4sn8","1280","689","","","","","","","","","","","null","Wrong","Feedback","","null","","","","","","","","","","","","",""
"","call-function","229","414297","0.0-298.0-2.0","bnnt4sn8","","","","","","","","","","","","","","","","","","","","","","","","","","","","","",""
"","html-keyboard-response","230","415813","0.0-299.0","bnnt4sn8","1280","689","","","","","","","","","","","null","+","Fixation - long","","null","","","","","","","","","","","","",""
"","html-keyboard-response","231","418339","0.0-300.0","bnnt4sn8","1280","689","","","","","","","","","","","2526","If ydi press RIGHT | If tgf press LEFT","Inducer instructions",""," ","4","","","","","","","","","","","",""
"","html-keyboard-response","232","419107","0.0-301.0","bnnt4sn8","1280","689","","","","","","","","","","","null","+","Fixation - short","","null","","","","","","","","","","","","",""
"","html-keyboard-response","233","420016","0.0-302.0","bnnt4sn8","1280","689","","","","","","","","","","","909","ydi","Diagnostic trial","","f","4","0","false","false","LEFT","f","1","","LEFT","true","","",""
"","html-keyboard-response","234","420777","0.0-305.0","bnnt4sn8","1280","689","","","","","","","","","","","null","+","Fixation - short","","null","","","","","","","","","","","","",""
"","html-keyboard-response","235","421532","0.0-306.0","bnnt4sn8","1280","689","","","","","","","","","","","754","tgf","Diagnostic trial","","f","4","1","false","false","LEFT","f","1","","RIGHT","false","","",""
"","html-keyboard-response","236","422289","0.0-309.0","bnnt4sn8","1280","689","","","","","","","","","","","null","+","Fixation - short","","null","","","","","","","","","","","","",""
"","html-keyboard-response","237","422740","0.0-310.0","bnnt4sn8","1280","689","","","","","","","","","","","450","ydi","Diagnostic trial","","j","4","2","false","true","RIGHT","j","1","","LEFT","false","","",""
"","html-keyboard-response","238","423502","0.0-313.0","bnnt4sn8","1280","689","","","","","","","","","","","null","+","Fixation - short","","null","","","","","","","","","","","","",""
"","html-keyboard-response","239","424094","0.0-314.0","bnnt4sn8","1280","689","","","","","","","","","","","591","ydi","Diagnostic trial","","j","4","3","false","true","RIGHT","j","1","","LEFT","false","","",""
"","html-keyboard-response","240","424858","0.0-317.0","bnnt4sn8","1280","689","","","","","","","","","","","null","+","Fixation - short","","null","","","","","","","","","","","","",""
"","html-keyboard-response","241","425498","0.0-318.0","bnnt4sn8","1280","689","","","","","","","","","","","640","tgf","Diagnostic trial","","j","4","4","false","true","RIGHT","j","1","","RIGHT","true","","",""
"","html-keyboard-response","242","426254","0.0-321.0","bnnt4sn8","1280","689","","","","","","","","","","","null","+","Fixation - short","","null","","","","","","","","","","","","",""
"","html-keyboard-response","243","427320","0.0-322.0","bnnt4sn8","1280","689","","","","","","","","","","","1066","ydi","Diagnostic trial","","f","4","5","false","false","LEFT","f","1","","LEFT","true","","",""
"","html-keyboard-response","244","428078","0.0-325.0","bnnt4sn8","1280","689","","","","","","","","","","","null","+","Fixation - short","","null","","","","","","","","","","","","",""
"","html-keyboard-response","245","429016","0.0-326.0","bnnt4sn8","1280","689","","","","","","","","","","","938","ydi","Diagnostic trial","","f","4","6","false","false","LEFT","f","1","","LEFT","true","","",""
"","html-keyboard-response","246","429776","0.0-329.0","bnnt4sn8","1280","689","","","","","","","","","","","null","+","Fixation - short","","null","","","","","","","","","","","","",""
"","html-keyboard-response","247","430405","0.0-330.0","bnnt4sn8","1280","689","","","","","","","","","","","629","ydi","Diagnostic trial","","f","4","7","false","false","LEFT","f","1","","LEFT","true","","",""
"","html-keyboard-response","248","431174","0.0-333.0","bnnt4sn8","1280","689","","","","","","","","","","","null","+","Fixation - short","","null","","","","","","","","","","","","",""
"","html-keyboard-response","249","431862","0.0-334.0","bnnt4sn8","1280","689","","","","","","","","","","","688","ydi","Diagnostic trial","","j","4","8","false","true","RIGHT","j","1","","LEFT","false","","",""
"","html-keyboard-response","250","432624","0.0-337.0","bnnt4sn8","1280","689","","","","","","","","","","","null","+","Fixation - short","","null","","","","","","","","","","","","",""
"","html-keyboard-response","251","433471","0.0-338.0","bnnt4sn8","1280","689","","","","","","","","","","","847","tgf","Inducer trial","","j","4","","true","","","f","0","LEFT","","","","",""
"","call-function","252","433471","0.0-340.0-0.0","bnnt4sn8","","","","","","","","","","","","","","","","","","","","","","","","","","","","","",""
"","html-keyboard-response","253","433785","0.0-340.0-1.0","bnnt4sn8","1280","689","","","","","","","","","","","null","Wrong","Feedback","","null","","","","","","","","","","","","",""
"","call-function","254","433785","0.0-340.0-2.0","bnnt4sn8","","","","","","","","","","","","","","","","","","","","","","","","","","","","","",""
"","html-keyboard-response","255","435303","0.0-341.0","bnnt4sn8","1280","689","","","","","","","","","","","null","+","Fixation - long","","null","","","","","","","","","","","","",""
"","html-keyboard-response","256","438530","0.0-342.0","bnnt4sn8","1280","689","","","","","","","","","","","3227","If flh press RIGHT | If iei press LEFT","Inducer instructions",""," ","5","","","","","","","","","","","",""
"","html-keyboard-response","257","439291","0.0-343.0","bnnt4sn8","1280","689","","","","","","","","","","","null","+","Fixation - short","","null","","","","","","","","","","","","",""
"","html-keyboard-response","258","440219","0.0-344.0","bnnt4sn8","1280","689","","","","","","","","","","","928","flh","Diagnostic trial","","f","5","0","false","false","LEFT","f","1","","LEFT","true","","",""
"","html-keyboard-response","259","440991","0.0-347.0","bnnt4sn8","1280","689","","","","","","","","","","","null","+","Fixation - short","","null","","","","","","","","","","","","",""
"","html-keyboard-response","260","441501","0.0-348.0","bnnt4sn8","1280","689","","","","","","","","","","","510","flh","Diagnostic trial","","j","5","1","false","true","RIGHT","j","1","","LEFT","false","","",""
"","html-keyboard-response","261","442258","0.0-351.0","bnnt4sn8","1280","689","","","","","","","","","","","null","+","Fixation - short","","null","","","","","","","","","","","","",""
"","html-keyboard-response","262","442908","0.0-352.0","bnnt4sn8","1280","689","","","","","","","","","","","650","flh","Diagnostic trial","","f","5","2","false","false","LEFT","f","1","","LEFT","true","","",""
"","html-keyboard-response","263","443670","0.0-355.0","bnnt4sn8","1280","689","","","","","","","","","","","null","+","Fixation - short","","null","","","","","","","","","","","","",""
"","html-keyboard-response","264","444489","0.0-356.0","bnnt4sn8","1280","689","","","","","","","","","","","819","iei","Diagnostic trial","","j","5","3","false","true","RIGHT","j","1","","RIGHT","true","","",""
"","html-keyboard-response","265","445248","0.0-359.0","bnnt4sn8","1280","689","","","","","","","","","","","null","+","Fixation - short","","null","","","","","","","","","","","","",""
"","html-keyboard-response","266","446001","0.0-360.0","bnnt4sn8","1280","689","","","","","","","","","","","738","flh","Diagnostic trial","","f","5","4","false","false","LEFT","f","1","","LEFT","true","","",""
"","html-keyboard-response","267","446765","0.0-363.0","bnnt4sn8","1280","689","","","","","","","","","","","null","+","Fixation - short","","null","","","","","","","","","","","","",""
"","html-keyboard-response","268","447589","0.0-364.0","bnnt4sn8","1280","689","","","","","","","","","","","824","flh","Diagnostic trial","","f","5","5","false","false","LEFT","f","1","","LEFT","true","","",""
"","html-keyboard-response","269","448344","0.0-367.0","bnnt4sn8","1280","689","","","","","","","","","","","null","+","Fixation - short","","null","","","","","","","","","","","","",""
"","html-keyboard-response","270","449186","0.0-368.0","bnnt4sn8","1280","689","","","","","","","","","","","842","iei","Diagnostic trial","","j","5","6","false","true","RIGHT","j","1","","RIGHT","true","","",""
"","html-keyboard-response","271","449937","0.0-371.0","bnnt4sn8","1280","689","","","","","","","","","","","null","+","Fixation - short","","null","","","","","","","","","","","","",""
"","html-keyboard-response","272","450705","0.0-372.0","bnnt4sn8","1280","689","","","","","","","","","","","766","iei","Diagnostic trial","","j","5","7","false","true","RIGHT","j","1","","RIGHT","true","","",""
"","html-keyboard-response","273","451457","0.0-375.0","bnnt4sn8","1280","689","","","","","","","","","","","null","+","Fixation - short","","null","","","","","","","","","","","","",""
"","html-keyboard-response","274","452923","0.0-376.0","bnnt4sn8","1280","689","","","","","","","","","","","1466","iei","Inducer trial","","f","5","","true","","","f","1","LEFT","","","","",""
"","html-keyboard-response","275","454454","0.0-379.0","bnnt4sn8","1280","689","","","","","","","","","","","null","+","Fixation - long","","null","","","","","","","","","","","","",""
"","html-keyboard-response","276","457539","0.0-380.0","bnnt4sn8","1280","689","","","","","","","","","","","3085","If mik press RIGHT | If jey press LEFT","Inducer instructions",""," ","6","","","","","","","","","","","",""
"","html-keyboard-response","277","458306","0.0-381.0","bnnt4sn8","1280","689","","","","","","","","","","","null","+","Fixation - short","","null","","","","","","","","","","","","",""
"","html-keyboard-response","278","459359","0.0-382.0","bnnt4sn8","1280","689","","","","","","","","","","","1053","mik","Diagnostic trial","","f","6","0","false","false","LEFT","f","1","","LEFT","true","","",""
"","html-keyboard-response","279","460121","0.0-385.0","bnnt4sn8","1280","689","","","","","","","","","","","null","+","Fixation - short","","null","","","","","","","","","","","","",""
"","html-keyboard-response","280","460558","0.0-386.0","bnnt4sn8","1280","689","","","","","","","","","","","437","mik","Diagnostic trial","","j","6","1","false","true","RIGHT","j","1","","LEFT","false","","",""
"","html-keyboard-response","281","461315","0.0-389.0","bnnt4sn8","1280","689","","","","","","","","","","","null","+","Fixation - short","","null","","","","","","","","","","","","",""
"","html-keyboard-response","282","461848","0.0-390.0","bnnt4sn8","1280","689","","","","","","","","","","","532","mik","Diagnostic trial","","j","6","2","false","true","RIGHT","j","1","","LEFT","false","","",""
"","html-keyboard-response","283","462609","0.0-393.0","bnnt4sn8","1280","689","","","","","","","","","","","null","+","Fixation - short","","null","","","","","","","","","","","","",""
"","html-keyboard-response","284","463104","0.0-394.0","bnnt4sn8","1280","689","","","","","","","","","","","495","mik","Diagnostic trial","","j","6","3","false","true","RIGHT","j","1","","LEFT","false","","",""
"","html-keyboard-response","285","463873","0.0-397.0","bnnt4sn8","1280","689","","","","","","","","","","","null","+","Fixation - short","","null","","","","","","","","","","","","",""
"","html-keyboard-response","286","464441","0.0-398.0","bnnt4sn8","1280","689","","","","","","","","","","","567","mik","Diagnostic trial","","f","6","4","false","false","LEFT","f","1","","LEFT","true","","",""
"","html-keyboard-response","287","465202","0.0-401.0","bnnt4sn8","1280","689","","","","","","","","","","","null","+","Fixation - short","","null","","","","","","","","","","","","",""
"","html-keyboard-response","288","466166","0.0-402.0","bnnt4sn8","1280","689","","","","","","","","","","","964","jey","Diagnostic trial","","f","6","5","false","false","LEFT","f","1","","RIGHT","false","","",""
"","html-keyboard-response","289","466927","0.0-405.0","bnnt4sn8","1280","689","","","","","","","","","","","null","+","Fixation - short","","null","","","","","","","","","","","","",""
"","html-keyboard-response","290","467499","0.0-406.0","bnnt4sn8","1280","689","","","","","","","","","","","572","mik","Diagnostic trial","","f","6","6","false","false","LEFT","f","1","","LEFT","true","","",""
"","html-keyboard-response","291","468267","0.0-409.0","bnnt4sn8","1280","689","","","","","","","","","","","null","+","Fixation - short","","null","","","","","","","","","","","","",""
"","html-keyboard-response","292","468877","0.0-410.0","bnnt4sn8","1280","689","","","","","","","","","","","610","jey","Diagnostic trial","","j","6","7","false","true","RIGHT","j","1","","RIGHT","true","","",""
"","html-keyboard-response","293","469646","0.0-413.0","bnnt4sn8","1280","689","","","","","","","","","","","null","+","Fixation - short","","null","","","","","","","","","","","","",""
"","html-keyboard-response","294","470156","0.0-414.0","bnnt4sn8","1280","689","","","","","","","","","","","510","jey","Diagnostic trial","","f","6","8","false","true","RIGHT","j","0","","RIGHT","true","","",""
"","call-function","295","470156","0.0-416.0-0.0","bnnt4sn8","","","","","","","","","","","","","","","","","","","","","","","","","","","","","",""
"","html-keyboard-response","296","470470","0.0-416.0-1.0","bnnt4sn8","1280","689","","","","","","","","","","","null","Wrong","Feedback","","null","","","","","","","","","","","","",""
"","call-function","297","470470","0.0-416.0-2.0","bnnt4sn8","","","","","","","","","","","","","","","","","","","","","","","","","","","","","",""
"","html-keyboard-response","298","471235","0.0-417.0","bnnt4sn8","1280","689","","","","","","","","","","","null","+","Fixation - short","","null","","","","","","","","","","","","",""
"","html-keyboard-response","299","472430","0.0-418.0","bnnt4sn8","1280","689","","","","","","","","","","","1195","mik","Inducer trial","","j","6","","true","","","j","1","RIGHT","","","","",""
"","html-keyboard-response","300","473945","0.0-421.0","bnnt4sn8","1280","689","","","","","","","","","","","null","+","Fixation - long","","null","","","","","","","","","","","","",""
"","html-keyboard-response","301","475608","0.0-422.0","bnnt4sn8","1280","689","","","","","","","","","","","1662","If ois press RIGHT | If vib press LEFT","Inducer instructions",""," ","7","","","","","","","","","","","",""
"","html-keyboard-response","302","476371","0.0-423.0","bnnt4sn8","1280","689","","","","","","","","","","","null","+","Fixation - short","","null","","","","","","","","","","","","",""
"","html-keyboard-response","303","477419","0.0-424.0","bnnt4sn8","1280","689","","","","","","","","","","","1048","vib","Diagnostic trial","","j","7","0","false","true","RIGHT","j","1","","RIGHT","true","","",""
"","html-keyboard-response","304","478177","0.0-427.0","bnnt4sn8","1280","689","","","","","","","","","","","null","+","Fixation - short","","null","","","","","","","","","","","","",""
"","html-keyboard-response","305","478689","0.0-428.0","bnnt4sn8","1280","689","","","","","","","","","","","511","vib","Diagnostic trial","","j","7","1","false","true","RIGHT","j","1","","RIGHT","true","","",""
"","html-keyboard-response","306","479454","0.0-431.0","bnnt4sn8","1280","689","","","","","","","","","","","null","+","Fixation - short","","null","","","","","","","","","","","","",""
"","html-keyboard-response","307","480085","0.0-432.0","bnnt4sn8","1280","689","","","","","","","","","","","631","vib","Diagnostic trial","","f","7","2","false","false","LEFT","f","1","","RIGHT","false","","",""
"","html-keyboard-response","308","480845","0.0-435.0","bnnt4sn8","1280","689","","","","","","","","","","","null","+","Fixation - short","","null","","","","","","","","","","","","",""
"","html-keyboard-response","309","481329","0.0-436.0","bnnt4sn8","1280","689","","","","","","","","","","","484","vib","Diagnostic trial","","j","7","3","false","true","RIGHT","j","1","","RIGHT","true","","",""
"","html-keyboard-response","310","482094","0.0-439.0","bnnt4sn8","1280","689","","","","","","","","","","","null","+","Fixation - short","","null","","","","","","","","","","","","",""
"","html-keyboard-response","311","482762","0.0-440.0","bnnt4sn8","1280","689","","","","","","","","","","","668","vib","Diagnostic trial","","j","7","4","false","true","RIGHT","j","1","","RIGHT","true","","",""
"","html-keyboard-response","312","483518","0.0-443.0","bnnt4sn8","1280","689","","","","","","","","","","","null","+","Fixation - short","","null","","","","","","","","","","","","",""
"","html-keyboard-response","313","483890","0.0-444.0","bnnt4sn8","1280","689","","","","","","","","","","","372","vib","Diagnostic trial","","j","7","5","false","false","LEFT","f","0","","RIGHT","false","","",""
"","call-function","314","483906","0.0-446.0-0.0","bnnt4sn8","","","","","","","","","","","","","","","","","","","","","","","","","","","","","",""
"","html-keyboard-response","315","484216","0.0-446.0-1.0","bnnt4sn8","1280","689","","","","","","","","","","","null","Wrong","Feedback","","null","","","","","","","","","","","","",""
"","call-function","316","484217","0.0-446.0-2.0","bnnt4sn8","","","","","","","","","","","","","","","","","","","","","","","","","","","","","",""
"","html-keyboard-response","317","484969","0.0-447.0","bnnt4sn8","1280","689","","","","","","","","","","","null","+","Fixation - short","","null","","","","","","","","","","","","",""
"","html-keyboard-response","318","486133","0.0-448.0","bnnt4sn8","1280","689","","","","","","","","","","","1163","vib","Inducer trial","","f","7","","true","","","f","1","LEFT","","","","",""
"","html-keyboard-response","319","487645","0.0-451.0","bnnt4sn8","1280","689","","","","","","","","","","","null","+","Fixation - long","","null","","","","","","","","","","","","",""
"","html-keyboard-response","320","489316","0.0-452.0","bnnt4sn8","1280","689","","","","","","","","","","","1671","If geb press RIGHT | If idy press LEFT","Inducer instructions",""," ","8","","","","","","","","","","","",""
"","html-keyboard-response","321","490079","0.0-453.0","bnnt4sn8","1280","689","","","","","","","","","","","null","+","Fixation - short","","null","","","","","","","","","","","","",""
"","html-keyboard-response","322","490892","0.0-454.0","bnnt4sn8","1280","689","","","","","","","","","","","813","idy","Diagnostic trial","","f","8","0","false","false","LEFT","f","1","","RIGHT","false","","",""
"","html-keyboard-response","323","491658","0.0-457.0","bnnt4sn8","1280","689","","","","","","","","","","","null","+","Fixation - short","","null","","","","","","","","","","","","",""
"","html-keyboard-response","324","492208","0.0-458.0","bnnt4sn8","1280","689","","","","","","","","","","","534","geb","Diagnostic trial","","j","8","1","false","true","RIGHT","j","1","","LEFT","false","","",""
"","html-keyboard-response","325","492970","0.0-461.0","bnnt4sn8","1280","689","","","","","","","","","","","null","+","Fixation - short","","null","","","","","","","","","","","","",""
"","html-keyboard-response","326","493584","0.0-462.0","bnnt4sn8","1280","689","","","","","","","","","","","614","idy","Diagnostic trial","","f","8","2","false","true","RIGHT","j","0","","RIGHT","true","","",""
"","call-function","327","493584","0.0-464.0-0.0","bnnt4sn8","","","","","","","","","","","","","","","","","","","","","","","","","","","","","",""
"","html-keyboard-response","328","493890","0.0-464.0-1.0","bnnt4sn8","1280","689","","","","","","","","","","","null","Wrong","Feedback","","null","","","","","","","","","","","","",""
"","call-function","329","493890","0.0-464.0-2.0","bnnt4sn8","","","","","","","","","","","","","","","","","","","","","","","","","","","","","",""
"","html-keyboard-response","330","494645","0.0-465.0","bnnt4sn8","1280","689","","","","","","","","","","","null","+","Fixation - short","","null","","","","","","","","","","","","",""
"","html-keyboard-response","331","495066","0.0-466.0","bnnt4sn8","1280","689","","","","","","","","","","","421","idy","Diagnostic trial","","j","8","3","false","true","RIGHT","j","1","","RIGHT","true","","",""
"","html-keyboard-response","332","495816","0.0-469.0","bnnt4sn8","1280","689","","","","","","","","","","","null","+","Fixation - short","","null","","","","","","","","","","","","",""
"","html-keyboard-response","333","496225","0.0-470.0","bnnt4sn8","1280","689","","","","","","","","","","","409","idy","Diagnostic trial","","j","8","4","false","true","RIGHT","j","1","","RIGHT","true","","",""
"","html-keyboard-response","334","496986","0.0-473.0","bnnt4sn8","1280","689","","","","","","","","","","","null","+","Fixation - short","","null","","","","","","","","","","","","",""
"","html-keyboard-response","335","497677","0.0-474.0","bnnt4sn8","1280","689","","","","","","","","","","","691","geb","Diagnostic trial","","f","8","5","false","false","LEFT","f","1","","LEFT","true","","",""
"","html-keyboard-response","336","498444","0.0-477.0","bnnt4sn8","1280","689","","","","","","","","","","","null","+","Fixation - short","","null","","","","","","","","","","","","",""
"","html-keyboard-response","337","499203","0.0-478.0","bnnt4sn8","1280","689","","","","","","","","","","","759","idy","Diagnostic trial","","j","8","6","false","true","RIGHT","j","1","","RIGHT","true","","",""
"","html-keyboard-response","338","499976","0.0-481.0","bnnt4sn8","1280","689","","","","","","","","","","","null","+","Fixation - short","","null","","","","","","","","","","","","",""
"","html-keyboard-response","339","501022","0.0-482.0","bnnt4sn8","1280","689","","","","","","","","","","","1046","geb","Diagnostic trial","","f","8","7","false","false","LEFT","f","1","","LEFT","true","","",""
"","html-keyboard-response","340","501788","0.0-485.0","bnnt4sn8","1280","689","","","","","","","","","","","null","+","Fixation - short","","null","","","","","","","","","","","","",""
"","html-keyboard-response","341","502325","0.0-486.0","bnnt4sn8","1280","689","","","","","","","","","","","537","geb","Diagnostic trial","","j","8","8","false","true","RIGHT","j","1","","LEFT","false","","",""
"","html-keyboard-response","342","503095","0.0-489.0","bnnt4sn8","1280","689","","","","","","","","","","","null","+","Fixation - short","","null","","","","","","","","","","","","",""
"","html-keyboard-response","343","503636","0.0-490.0","bnnt4sn8","1280","689","","","","","","","","","","","541","geb","Inducer trial","","j","8","","true","","","j","1","RIGHT","","","","",""
"","html-keyboard-response","344","505141","0.0-493.0","bnnt4sn8","1280","689","","","","","","","","","","","null","+","Fixation - long","","null","","","","","","","","","","","","",""
"","html-keyboard-response","345","506546","0.0-494.0","bnnt4sn8","1280","689","","","","","","","","","","","1405","If jup press RIGHT | If hlb press LEFT","Inducer instructions",""," ","9","","","","","","","","","","","",""
"","html-keyboard-response","346","507297","0.0-495.0","bnnt4sn8","1280","689","","","","","","","","","","","null","+","Fixation - short","","null","","","","","","","","","","","","",""
"","html-keyboard-response","347","507983","0.0-496.0","bnnt4sn8","1280","689","","","","","","","","","","","686","hlb","Diagnostic trial","","f","9","0","false","false","LEFT","f","1","","RIGHT","false","","",""
"","html-keyboard-response","348","508739","0.0-499.0","bnnt4sn8","1280","689","","","","","","","","","","","null","+","Fixation - short","","null","","","","","","","","","","","","",""
"","html-keyboard-response","349","509363","0.0-500.0","bnnt4sn8","1280","689","","","","","","","","","","","624","hlb","Diagnostic trial","","j","9","1","false","true","RIGHT","j","1","","RIGHT","true","","",""
"","html-keyboard-response","350","510129","0.0-503.0","bnnt4sn8","1280","689","","","","","","","","","","","null","+","Fixation - short","","null","","","","","","","","","","","","",""
"","html-keyboard-response","351","510813","0.0-504.0","bnnt4sn8","1280","689","","","","","","","","","","","669","hlb","Diagnostic trial","","f","9","2","false","false","LEFT","f","1","","RIGHT","false","","",""
"","html-keyboard-response","352","511581","0.0-507.0","bnnt4sn8","1280","689","","","","","","","","","","","null","+","Fixation - short","","null","","","","","","","","","","","","",""
"","html-keyboard-response","353","512172","0.0-508.0","bnnt4sn8","1280","689","","","","","","","","","","","591","jup","Diagnostic trial","","j","9","3","false","true","RIGHT","j","1","","LEFT","false","","",""
"","html-keyboard-response","354","512940","0.0-511.0","bnnt4sn8","1280","689","","","","","","","","","","","null","+","Fixation - short","","null","","","","","","","","","","","","",""
"","html-keyboard-response","355","513609","0.0-512.0","bnnt4sn8","1280","689","","","","","","","","","","","669","jup","Diagnostic trial","","f","9","4","false","false","LEFT","f","1","","LEFT","true","","",""
"","html-keyboard-response","356","514391","0.0-515.0","bnnt4sn8","1280","689","","","","","","","","","","","null","+","Fixation - short","","null","","","","","","","","","","","","",""
"","html-keyboard-response","357","515005","0.0-516.0","bnnt4sn8","1280","689","","","","","","","","","","","614","hlb","Inducer trial","","j","9","","true","","","f","0","LEFT","","","","",""
"","call-function","358","515005","0.0-518.0-0.0","bnnt4sn8","","","","","","","","","","","","","","","","","","","","","","","","","","","","","",""
"","html-keyboard-response","359","515313","0.0-518.0-1.0","bnnt4sn8","1280","689","","","","","","","","","","","null","Wrong","Feedback","","null","","","","","","","","","","","","",""
"","call-function","360","515314","0.0-518.0-2.0","bnnt4sn8","","","","","","","","","","","","","","","","","","","","","","","","","","","","","",""
"","html-keyboard-response","361","516828","0.0-519.0","bnnt4sn8","1280","689","","","","","","","","","","","null","+","Fixation - long","","null","","","","","","","","","","","","",""
"","html-keyboard-response","362","518928","0.0-520.0","bnnt4sn8","1280","689","","","","","","","","","","","2100","If hrc press RIGHT | If ivr press LEFT","Inducer instructions",""," ","10","","","","","","","","","","","",""
"","html-keyboard-response","363","519692","0.0-521.0","bnnt4sn8","1280","689","","","","","","","","","","","null","+","Fixation - short","","null","","","","","","","","","","","","",""
"","html-keyboard-response","364","520455","0.0-522.0","bnnt4sn8","1280","689","","","","","","","","","","","763","ivr","Diagnostic trial","","j","10","0","false","true","RIGHT","j","1","","RIGHT","true","","",""
"","html-keyboard-response","365","521223","0.0-525.0","bnnt4sn8","1280","689","","","","","","","","","","","null","+","Fixation - short","","null","","","","","","","","","","","","",""
"","html-keyboard-response","366","521954","0.0-526.0","bnnt4sn8","1280","689","","","","","","","","","","","731","ivr","Diagnostic trial","","j","10","1","false","true","RIGHT","j","1","","RIGHT","true","","",""
"","html-keyboard-response","367","522718","0.0-529.0","bnnt4sn8","1280","689","","","","","","","","","","","null","+","Fixation - short","","null","","","","","","","","","","","","",""
"","html-keyboard-response","368","523265","0.0-530.0","bnnt4sn8","1280","689","","","","","","","","","","","547","hrc","Diagnostic trial","","j","10","2","false","true","RIGHT","j","1","","LEFT","false","","",""
"","html-keyboard-response","369","524019","0.0-533.0","bnnt4sn8","1280","689","","","","","","","","","","","null","+","Fixation - short","","null","","","","","","","","","","","","",""
"","html-keyboard-response","370","524661","0.0-534.0","bnnt4sn8","1280","689","","","","","","","","","","","642","hrc","Diagnostic trial","","f","10","3","false","false","LEFT","f","1","","LEFT","true","","",""
"","html-keyboard-response","371","525421","0.0-537.0","bnnt4sn8","1280","689","","","","","","","","","","","null","+","Fixation - short","","null","","","","","","","","","","","","",""
"","html-keyboard-response","372","525965","0.0-538.0","bnnt4sn8","1280","689","","","","","","","","","","","544","hrc","Diagnostic trial","","j","10","4","false","true","RIGHT","j","1","","LEFT","false","","",""
"","html-keyboard-response","373","526736","0.0-541.0","bnnt4sn8","1280","689","","","","","","","","","","","null","+","Fixation - short","","null","","","","","","","","","","","","",""
"","html-keyboard-response","374","527483","0.0-542.0","bnnt4sn8","1280","689","","","","","","","","","","","746","hrc","Diagnostic trial","","f","10","5","false","false","LEFT","f","1","","LEFT","true","","",""
"","html-keyboard-response","375","528254","0.0-545.0","bnnt4sn8","1280","689","","","","","","","","","","","null","+","Fixation - short","","null","","","","","","","","","","","","",""
"","html-keyboard-response","376","528795","0.0-546.0","bnnt4sn8","1280","689","","","","","","","","","","","540","hrc","Diagnostic trial","","j","10","6","false","true","RIGHT","j","1","","LEFT","false","","",""
"","html-keyboard-response","377","529564","0.0-549.0","bnnt4sn8","1280","689","","","","","","","","","","","null","+","Fixation - short","","null","","","","","","","","","","","","",""
"","html-keyboard-response","378","530159","0.0-550.0","bnnt4sn8","1280","689","","","","","","","","","","","595","hrc","Diagnostic trial","","j","10","7","false","true","RIGHT","j","1","","LEFT","false","","",""
"","html-keyboard-response","379","530926","0.0-553.0","bnnt4sn8","1280","689","","","","","","","","","","","null","+","Fixation - short","","null","","","","","","","","","","","","",""
"","html-keyboard-response","380","531468","0.0-554.0","bnnt4sn8","1280","689","","","","","","","","","","","542","ivr","Diagnostic trial","","f","10","8","false","false","LEFT","f","1","","RIGHT","false","","",""
"","html-keyboard-response","381","532253","0.0-557.0","bnnt4sn8","1280","689","","","","","","","","","","","null","+","Fixation - short","","null","","","","","","","","","","","","",""
"","html-keyboard-response","382","532859","0.0-558.0","bnnt4sn8","1280","689","","","","","","","","","","","606","hrc","Diagnostic trial","","j","10","9","false","true","RIGHT","j","1","","LEFT","false","","",""
"","html-keyboard-response","383","533618","0.0-561.0","bnnt4sn8","1280","689","","","","","","","","","","","null","+","Fixation - short","","null","","","","","","","","","","","","",""
"","html-keyboard-response","384","534173","0.0-562.0","bnnt4sn8","1280","689","","","","","","","","","","","555","hrc","Diagnostic trial","","j","10","10","false","true","RIGHT","j","1","","LEFT","false","","",""
"","html-keyboard-response","385","534930","0.0-565.0","bnnt4sn8","1280","689","","","","","","","","","","","null","+","Fixation - short","","null","","","","","","","","","","","","",""
"","html-keyboard-response","386","535640","0.0-566.0","bnnt4sn8","1280","689","","","","","","","","","","","710","ivr","Diagnostic trial","","f","10","11","false","false","LEFT","f","1","","RIGHT","false","","",""
"","html-keyboard-response","387","536394","0.0-569.0","bnnt4sn8","1280","689","","","","","","","","","","","null","+","Fixation - short","","null","","","","","","","","","","","","",""
"","html-keyboard-response","388","536922","0.0-570.0","bnnt4sn8","1280","689","","","","","","","","","","","527","hrc","Inducer trial","","j","10","","true","","","j","1","RIGHT","","","","",""
"","html-keyboard-response","389","538436","0.0-573.0","bnnt4sn8","1280","689","","","","","","","","","","","null","+","Fixation - long","","null","","","","","","","","","","","","",""
"","html-keyboard-response","390","540953","0.0-574.0","bnnt4sn8","1280","689","","","","","","","","","","","2516","If kho press RIGHT | If yoy press LEFT","Inducer instructions",""," ","11","","","","","","","","","","","",""
"","html-keyboard-response","391","541718","0.0-575.0","bnnt4sn8","1280","689","","","","","","","","","","","null","+","Fixation - short","","null","","","","","","","","","","","","",""
"","html-keyboard-response","392","542963","0.0-576.0","bnnt4sn8","1280","689","","","","","","","","","","","1245","yoy","Diagnostic trial","","j","11","0","false","true","RIGHT","j","1","","RIGHT","true","","",""
"","html-keyboard-response","393","543715","0.0-579.0","bnnt4sn8","1280","689","","","","","","","","","","","null","+","Fixation - short","","null","","","","","","","","","","","","",""
"","html-keyboard-response","394","544457","0.0-580.0","bnnt4sn8","1280","689","","","","","","","","","","","742","kho","Diagnostic trial","","j","11","1","false","true","RIGHT","j","1","","LEFT","false","","",""
"","html-keyboard-response","395","545210","0.0-583.0","bnnt4sn8","1280","689","","","","","","","","","","","null","+","Fixation - short","","null","","","","","","","","","","","","",""
"","html-keyboard-response","396","545941","0.0-584.0","bnnt4sn8","1280","689","","","","","","","","","","","731","yoy","Diagnostic trial","","j","11","2","false","true","RIGHT","j","1","","RIGHT","true","","",""
"","html-keyboard-response","397","546708","0.0-587.0","bnnt4sn8","1280","689","","","","","","","","","","","null","+","Fixation - short","","null","","","","","","","","","","","","",""
"","html-keyboard-response","398","547485","0.0-588.0","bnnt4sn8","1280","689","","","","","","","","","","","777","yoy","Diagnostic trial","","f","11","3","false","false","LEFT","f","1","","RIGHT","false","","",""
"","html-keyboard-response","399","548245","0.0-591.0","bnnt4sn8","1280","689","","","","","","","","","","","null","+","Fixation - short","","null","","","","","","","","","","","","",""
"","html-keyboard-response","400","548846","0.0-592.0","bnnt4sn8","1280","689","","","","","","","","","","","601","kho","Diagnostic trial","","j","11","4","false","true","RIGHT","j","1","","LEFT","false","","",""
"","html-keyboard-response","401","549602","0.0-595.0","bnnt4sn8","1280","689","","","","","","","","","","","null","+","Fixation - short","","null","","","","","","","","","","","","",""
"","html-keyboard-response","402","550371","0.0-596.0","bnnt4sn8","1280","689","","","","","","","","","","","768","kho","Diagnostic trial","","j","11","5","false","true","RIGHT","j","1","","LEFT","false","","",""
"","html-keyboard-response","403","551125","0.0-599.0","bnnt4sn8","1280","689","","","","","","","","","","","null","+","Fixation - short","","null","","","","","","","","","","","","",""
"","html-keyboard-response","404","551664","0.0-600.0","bnnt4sn8","1280","689","","","","","","","","","","","539","yoy","Diagnostic trial","","f","11","6","false","false","LEFT","f","1","","RIGHT","false","","",""
"","html-keyboard-response","405","552420","0.0-603.0","bnnt4sn8","1280","689","","","","","","","","","","","null","+","Fixation - short","","null","","","","","","","","","","","","",""
"","html-keyboard-response","406","553147","0.0-604.0","bnnt4sn8","1280","689","","","","","","","","","","","727","kho","Diagnostic trial","","f","11","7","false","false","LEFT","f","1","","LEFT","true","","",""
"","html-keyboard-response","407","553908","0.0-607.0","bnnt4sn8","1280","689","","","","","","","","","","","null","+","Fixation - short","","null","","","","","","","","","","","","",""
"","html-keyboard-response","408","554677","0.0-608.0","bnnt4sn8","1280","689","","","","","","","","","","","769","yoy","Diagnostic trial","","f","11","8","false","false","LEFT","f","1","","RIGHT","false","","",""
"","html-keyboard-response","409","555440","0.0-611.0","bnnt4sn8","1280","689","","","","","","","","","","","null","+","Fixation - short","","null","","","","","","","","","","","","",""
"","html-keyboard-response","410","556033","0.0-612.0","bnnt4sn8","1280","689","","","","","","","","","","","593","kho","Diagnostic trial","","f","11","9","false","false","LEFT","f","1","","LEFT","true","","",""
"","html-keyboard-response","411","556796","0.0-615.0","bnnt4sn8","1280","689","","","","","","","","","","","null","+","Fixation - short","","null","","","","","","","","","","","","",""
"","html-keyboard-response","412","557349","0.0-616.0","bnnt4sn8","1280","689","","","","","","","","","","","553","kho","Diagnostic trial","","j","11","10","false","true","RIGHT","j","1","","LEFT","false","","",""
"","html-keyboard-response","413","558113","0.0-619.0","bnnt4sn8","1280","689","","","","","","","","","","","null","+","Fixation - short","","null","","","","","","","","","","","","",""
"","html-keyboard-response","414","558613","0.0-620.0","bnnt4sn8","1280","689","","","","","","","","","","","500","yoy","Diagnostic trial","","f","11","11","false","false","LEFT","f","1","","RIGHT","false","","",""
"","html-keyboard-response","415","559376","0.0-623.0","bnnt4sn8","1280","689","","","","","","","","","","","null","+","Fixation - short","","null","","","","","","","","","","","","",""
"","html-keyboard-response","416","559965","0.0-624.0","bnnt4sn8","1280","689","","","","","","","","","","","589","kho","Inducer trial","","f","11","","true","","","j","0","RIGHT","","","","",""
"","call-function","417","559981","0.0-626.0-0.0","bnnt4sn8","","","","","","","","","","","","","","","","","","","","","","","","","","","","","",""
"","html-keyboard-response","418","560295","0.0-626.0-1.0","bnnt4sn8","1280","689","","","","","","","","","","","null","Wrong","Feedback","","null","","","","","","","","","","","","",""
"","call-function","419","560295","0.0-626.0-2.0","bnnt4sn8","","","","","","","","","","","","","","","","","","","","","","","","","","","","","",""
"","html-keyboard-response","420","561813","0.0-627.0","bnnt4sn8","1280","689","","","","","","","","","","","null","+","Fixation - long","","null","","","","","","","","","","","","",""
"","html-keyboard-response","421","563282","0.0-628.0","bnnt4sn8","1280","689","","","","","","","","","","","1469","If tkb press RIGHT | If eeu press LEFT","Inducer instructions",""," ","12","","","","","","","","","","","",""
"","html-keyboard-response","422","564037","0.0-629.0","bnnt4sn8","1280","689","","","","","","","","","","","null","+","Fixation - short","","null","","","","","","","","","","","","",""
"","html-keyboard-response","423","565359","0.0-630.0","bnnt4sn8","1280","689","","","","","","","","","","","1322","eeu","Diagnostic trial","","f","12","0","false","false","LEFT","f","1","","RIGHT","false","","",""
"","html-keyboard-response","424","566126","0.0-633.0","bnnt4sn8","1280","689","","","","","","","","","","","null","+","Fixation - short","","null","","","","","","","","","","","","",""
"","html-keyboard-response","425","567287","0.0-634.0","bnnt4sn8","1280","689","","","","","","","","","","","1161","tkb","Diagnostic trial","","f","12","1","false","false","LEFT","f","1","","LEFT","true","","",""
"","html-keyboard-response","426","568048","0.0-637.0","bnnt4sn8","1280","689","","","","","","","","","","","null","+","Fixation - short","","null","","","","","","","","","","","","",""
"","html-keyboard-response","427","568548","0.0-638.0","bnnt4sn8","1280","689","","","","","","","","","","","500","tkb","Diagnostic trial","","f","12","2","false","false","LEFT","f","1","","LEFT","true","","",""
"","html-keyboard-response","428","569306","0.0-641.0","bnnt4sn8","1280","689","","","","","","","","","","","null","+","Fixation - short","","null","","","","","","","","","","","","",""
"","html-keyboard-response","429","569938","0.0-642.0","bnnt4sn8","1280","689","","","","","","","","","","","631","eeu","Diagnostic trial","","f","12","3","false","false","LEFT","f","1","","RIGHT","false","","",""
"","html-keyboard-response","430","570689","0.0-645.0","bnnt4sn8","1280","689","","","","","","","","","","","null","+","Fixation - short","","null","","","","","","","","","","","","",""
"","html-keyboard-response","431","571126","0.0-646.0","bnnt4sn8","1280","689","","","","","","","","","","","437","eeu","Diagnostic trial","","f","12","4","false","true","RIGHT","j","0","","RIGHT","true","","",""
"","call-function","432","571126","0.0-648.0-0.0","bnnt4sn8","","","","","","","","","","","","","","","","","","","","","","","","","","","","","",""
"","html-keyboard-response","433","571439","0.0-648.0-1.0","bnnt4sn8","1280","689","","","","","","","","","","","null","Wrong","Feedback","","null","","","","","","","","","","","","",""
"","call-function","434","571439","0.0-648.0-2.0","bnnt4sn8","","","","","","","","","","","","","","","","","","","","","","","","","","","","","",""
"","html-keyboard-response","435","572204","0.0-649.0","bnnt4sn8","1280","689","","","","","","","","","","","null","+","Fixation - short","","null","","","","","","","","","","","","",""
"","html-keyboard-response","436","572911","0.0-650.0","bnnt4sn8","1280","689","","","","","","","","","","","707","tkb","Diagnostic trial","","f","12","5","false","false","LEFT","f","1","","LEFT","true","","",""
"","html-keyboard-response","437","573680","0.0-653.0","bnnt4sn8","1280","689","","","","","","","","","","","null","+","Fixation - short","","null","","","","","","","","","","","","",""
"","html-keyboard-response","438","574048","0.0-654.0","bnnt4sn8","1280","689","","","","","","","","","","","368","eeu","Diagnostic trial","","j","12","6","false","true","RIGHT","j","1","","RIGHT","true","","",""
"","html-keyboard-response","439","574819","0.0-657.0","bnnt4sn8","1280","689","","","","","","","","","","","null","+","Fixation - short","","null","","","","","","","","","","","","",""
"","html-keyboard-response","440","575361","0.0-658.0","bnnt4sn8","1280","689","","","","","","","","","","","542","tkb","Diagnostic trial","","f","12","7","false","false","LEFT","f","1","","LEFT","true","","",""
"","html-keyboard-response","441","576115","0.0-661.0","bnnt4sn8","1280","689","","","","","","","","","","","null","+","Fixation - short","","null","","","","","","","","","","","","",""
"","html-keyboard-response","442","576563","0.0-662.0","bnnt4sn8","1280","689","","","","","","","","","","","448","eeu","Diagnostic trial","","j","12","8","false","true","RIGHT","j","1","","RIGHT","true","","",""
"","html-keyboard-response","443","577323","0.0-665.0","bnnt4sn8","1280","689","","","","","","","","","","","null","+","Fixation - short","","null","","","","","","","","","","","","",""
"","html-keyboard-response","444","577895","0.0-666.0","bnnt4sn8","1280","689","","","","","","","","","","","572","tkb","Diagnostic trial","","j","12","9","false","true","RIGHT","j","1","","LEFT","false","","",""
"","html-keyboard-response","445","578662","0.0-669.0","bnnt4sn8","1280","689","","","","","","","","","","","null","+","Fixation - short","","null","","","","","","","","","","","","",""
"","html-keyboard-response","446","579158","0.0-670.0","bnnt4sn8","1280","689","","","","","","","","","","","496","eeu","Diagnostic trial","","f","12","10","false","false","LEFT","f","1","","RIGHT","false","","",""
"","html-keyboard-response","447","579925","0.0-673.0","bnnt4sn8","1280","689","","","","","","","","","","","null","+","Fixation - short","","null","","","","","","","","","","","","",""
"","html-keyboard-response","448","580425","0.0-674.0","bnnt4sn8","1280","689","","","","","","","","","","","500","tkb","Diagnostic trial","","j","12","11","false","true","RIGHT","j","1","","LEFT","false","","",""
"","html-keyboard-response","449","581185","0.0-677.0","bnnt4sn8","1280","689","","","","","","","","","","","null","+","Fixation - short","","null","","","","","","","","","","","","",""
"","html-keyboard-response","450","581956","0.0-678.0","bnnt4sn8","1280","689","","","","","","","","","","","771","tkb","Inducer trial","","j","12","","true","","","j","1","RIGHT","","","","",""
"","html-keyboard-response","451","583472","0.0-681.0","bnnt4sn8","1280","689","","","","","","","","","","","null","+","Fixation - long","","null","","","","","","","","","","","","",""
"","html-keyboard-response","452","589783","0.0-682.0","bnnt4sn8","1280","689","","","","","","","","","","","6311","If xlv press RIGHT | If mmo press LEFT","Inducer instructions",""," ","13","","","","","","","","","","","",""
"","html-keyboard-response","453","590538","0.0-683.0","bnnt4sn8","1280","689","","","","","","","","","","","null","+","Fixation - short","","null","","","","","","","","","","","","",""
"","html-keyboard-response","454","591612","0.0-684.0","bnnt4sn8","1280","689","","","","","","","","","","","1074","xlv","Diagnostic trial","","f","13","0","false","false","LEFT","f","1","","LEFT","true","","",""
"","html-keyboard-response","455","592384","0.0-687.0","bnnt4sn8","1280","689","","","","","","","","","","","null","+","Fixation - short","","null","","","","","","","","","","","","",""
"","html-keyboard-response","456","592965","0.0-688.0","bnnt4sn8","1280","689","","","","","","","","","","","581","mmo","Diagnostic trial","","f","13","1","false","false","LEFT","f","1","","RIGHT","false","","",""
"","html-keyboard-response","457","593734","0.0-691.0","bnnt4sn8","1280","689","","","","","","","","","","","null","+","Fixation - short","","null","","","","","","","","","","","","",""
"","html-keyboard-response","458","594299","0.0-692.0","bnnt4sn8","1280","689","","","","","","","","","","","565","mmo","Diagnostic trial","","f","13","2","false","false","LEFT","f","1","","RIGHT","false","","",""
"","html-keyboard-response","459","595054","0.0-695.0","bnnt4sn8","1280","689","","","","","","","","","","","null","+","Fixation - short","","null","","","","","","","","","","","","",""
"","html-keyboard-response","460","597066","0.0-696.0","bnnt4sn8","1280","689","","","","","","","","","","","null","mmo","Diagnostic trial","","null","13","3","false","true","RIGHT","j","NaN","","RIGHT","true","","",""
"","call-function","461","597066","0.0-697.0-0.0","bnnt4sn8","","","","","","","","","","","","","","","","","","","","","","","","","","","","","",""
"","html-keyboard-response","462","597381","0.0-697.0-1.0","bnnt4sn8","1280","689","","","","","","","","","","","null","Slow","Feedback","","null","","","","","","","","","","","","",""
"","call-function","463","597381","0.0-697.0-2.0","bnnt4sn8","","","","","","","","","","","","","","","","","","","","","","","","","","","","","",""
"","html-keyboard-response","464","598144","0.0-699.0","bnnt4sn8","1280","689","","","","","","","","","","","null","+","Fixation - short","","null","","","","","","","","","","","","",""
"","html-keyboard-response","465","598567","0.0-700.0","bnnt4sn8","1280","689","","","","","","","","","","","423","xlv","Diagnostic trial","","j","13","4","false","true","RIGHT","j","1","","LEFT","false","","",""
"","html-keyboard-response","466","599344","0.0-703.0","bnnt4sn8","1280","689","","","","","","","","","","","null","+","Fixation - short","","null","","","","","","","","","","","","",""
"","html-keyboard-response","467","599891","0.0-704.0","bnnt4sn8","1280","689","","","","","","","","","","","547","xlv","Diagnostic trial","","j","13","5","false","true","RIGHT","j","1","","LEFT","false","","",""
"","html-keyboard-response","468","600643","0.0-707.0","bnnt4sn8","1280","689","","","","","","","","","","","null","+","Fixation - short","","null","","","","","","","","","","","","",""
"","html-keyboard-response","469","601222","0.0-708.0","bnnt4sn8","1280","689","","","","","","","","","","","565","mmo","Diagnostic trial","","f","13","6","false","false","LEFT","f","1","","RIGHT","false","","",""
"","html-keyboard-response","470","601984","0.0-711.0","bnnt4sn8","1280","689","","","","","","","","","","","null","+","Fixation - short","","null","","","","","","","","","","","","",""
"","html-keyboard-response","471","602502","0.0-712.0","bnnt4sn8","1280","689","","","","","","","","","","","517","xlv","Diagnostic trial","","j","13","7","false","true","RIGHT","j","1","","LEFT","false","","",""
"","html-keyboard-response","472","603271","0.0-715.0","bnnt4sn8","1280","689","","","","","","","","","","","null","+","Fixation - short","","null","","","","","","","","","","","","",""
"","html-keyboard-response","473","603781","0.0-716.0","bnnt4sn8","1280","689","","","","","","","","","","","510","mmo","Diagnostic trial","","j","13","8","false","true","RIGHT","j","1","","RIGHT","true","","",""
"","html-keyboard-response","474","604537","0.0-719.0","bnnt4sn8","1280","689","","","","","","","","","","","null","+","Fixation - short","","null","","","","","","","","","","","","",""
"","html-keyboard-response","475","604953","0.0-720.0","bnnt4sn8","1280","689","","","","","","","","","","","416","mmo","Diagnostic trial","","j","13","9","false","true","RIGHT","j","1","","RIGHT","true","","",""
"","html-keyboard-response","476","605718","0.0-723.0","bnnt4sn8","1280","689","","","","","","","","","","","null","+","Fixation - short","","null","","","","","","","","","","","","",""
"","html-keyboard-response","477","606280","0.0-724.0","bnnt4sn8","1280","689","","","","","","","","","","","562","mmo","Diagnostic trial","","f","13","10","false","false","LEFT","f","1","","RIGHT","false","","",""
"","html-keyboard-response","478","607039","0.0-727.0","bnnt4sn8","1280","689","","","","","","","","","","","null","+","Fixation - short","","null","","","","","","","","","","","","",""
"","html-keyboard-response","479","607657","0.0-728.0","bnnt4sn8","1280","689","","","","","","","","","","","618","mmo","Diagnostic trial","","j","13","11","false","true","RIGHT","j","1","","RIGHT","true","","",""
"","html-keyboard-response","480","608408","0.0-731.0","bnnt4sn8","1280","689","","","","","","","","","","","null","+","Fixation - short","","null","","","","","","","","","","","","",""
"","html-keyboard-response","481","609014","0.0-732.0","bnnt4sn8","1280","689","","","","","","","","","","","606","xlv","Diagnostic trial","","f","13","12","false","false","LEFT","f","1","","LEFT","true","","",""
"","html-keyboard-response","482","609768","0.0-735.0","bnnt4sn8","1280","689","","","","","","","","","","","null","+","Fixation - short","","null","","","","","","","","","","","","",""
"","html-keyboard-response","483","610351","0.0-736.0","bnnt4sn8","1280","689","","","","","","","","","","","582","xlv","Diagnostic trial","","f","13","13","false","false","LEFT","f","1","","LEFT","true","","",""
"","html-keyboard-response","484","611116","0.0-739.0","bnnt4sn8","1280","689","","","","","","","","","","","null","+","Fixation - short","","null","","","","","","","","","","","","",""
"","html-keyboard-response","485","611641","0.0-740.0","bnnt4sn8","1280","689","","","","","","","","","","","525","xlv","Inducer trial","","j","13","","true","","","j","1","RIGHT","","","","",""
"","html-keyboard-response","486","613144","0.0-743.0","bnnt4sn8","1280","689","","","","","","","","","","","null","+","Fixation - long","","null","","","","","","","","","","","","",""
"","html-keyboard-response","487","614577","0.0-744.0","bnnt4sn8","1280","689","","","","","","","","","","","1431","If fuc press RIGHT | If cta press LEFT","Inducer instructions",""," ","14","","","","","","","","","","","",""
"","html-keyboard-response","488","615334","0.0-745.0","bnnt4sn8","1280","689","","","","","","","","","","","null","+","Fixation - short","","null","","","","","","","","","","","","",""
"","html-keyboard-response","489","616672","0.0-746.0","bnnt4sn8","1280","689","","","","","","","","","","","1338","fuc","Diagnostic trial","","f","14","0","false","false","LEFT","f","1","","LEFT","true","","",""
"","html-keyboard-response","490","617425","0.0-749.0","bnnt4sn8","1280","689","","","","","","","","","","","null","+","Fixation - short","","null","","","","","","","","","","","","",""
"","html-keyboard-response","491","617983","0.0-750.0","bnnt4sn8","1280","689","","","","","","","","","","","558","fuc","Diagnostic trial","","f","14","1","false","false","LEFT","f","1","","LEFT","true","","",""
"","html-keyboard-response","492","618749","0.0-753.0","bnnt4sn8","1280","689","","","","","","","","","","","null","+","Fixation - short","","null","","","","","","","","","","","","",""
"","html-keyboard-response","493","619298","0.0-754.0","bnnt4sn8","1280","689","","","","","","","","","","","549","cta","Diagnostic trial","","j","14","2","false","true","RIGHT","j","1","","RIGHT","true","","",""
"","html-keyboard-response","494","620062","0.0-757.0","bnnt4sn8","1280","689","","","","","","","","","","","null","+","Fixation - short","","null","","","","","","","","","","","","",""
"","html-keyboard-response","495","620561","0.0-758.0","bnnt4sn8","1280","689","","","","","","","","","","","499","cta","Diagnostic trial","","f","14","3","false","false","LEFT","f","1","","RIGHT","false","","",""
"","html-keyboard-response","496","621319","0.0-761.0","bnnt4sn8","1280","689","","","","","","","","","","","null","+","Fixation - short","","null","","","","","","","","","","","","",""
"","html-keyboard-response","497","622257","0.0-762.0","bnnt4sn8","1280","689","","","","","","","","","","","938","fuc","Diagnostic trial","","f","14","4","false","false","LEFT","f","1","","LEFT","true","","",""
"","html-keyboard-response","498","623010","0.0-765.0","bnnt4sn8","1280","689","","","","","","","","","","","null","+","Fixation - short","","null","","","","","","","","","","","","",""
"","html-keyboard-response","499","623612","0.0-766.0","bnnt4sn8","1280","689","","","","","","","","","","","602","fuc","Diagnostic trial","","j","14","5","false","true","RIGHT","j","1","","LEFT","false","","",""
"","html-keyboard-response","500","624370","0.0-769.0","bnnt4sn8","1280","689","","","","","","","","","","","null","+","Fixation - short","","null","","","","","","","","","","","","",""
"","html-keyboard-response","501","624985","0.0-770.0","bnnt4sn8","1280","689","","","","","","","","","","","615","fuc","Inducer trial","","j","14","","true","","","j","1","RIGHT","","","","",""
"","html-keyboard-response","502","626490","0.0-773.0","bnnt4sn8","1280","689","","","","","","","","","","","null","+","Fixation - long","","null","","","","","","","","","","","","",""
"","html-keyboard-response","503","629517","0.0-774.0","bnnt4sn8","1280","689","","","","","","","","","","","3027","If snx press RIGHT | If eht press LEFT","Inducer instructions",""," ","15","","","","","","","","","","","",""
"","html-keyboard-response","504","630272","0.0-775.0","bnnt4sn8","1280","689","","","","","","","","","","","null","+","Fixation - short","","null","","","","","","","","","","","","",""
"","html-keyboard-response","505","630796","0.0-776.0","bnnt4sn8","1280","689","","","","","","","","","","","524","eht","Diagnostic trial","","f","15","0","false","false","LEFT","f","1","","RIGHT","false","","",""
"","html-keyboard-response","506","631565","0.0-779.0","bnnt4sn8","1280","689","","","","","","","","","","","null","+","Fixation - short","","null","","","","","","","","","","","","",""
"","html-keyboard-response","507","631985","0.0-780.0","bnnt4sn8","1280","689","","","","","","","","","","","420","eht","Diagnostic trial","","f","15","1","false","false","LEFT","f","1","","RIGHT","false","","",""
"","html-keyboard-response","508","632750","0.0-783.0","bnnt4sn8","1280","689","","","","","","","","","","","null","+","Fixation - short","","null","","","","","","","","","","","","",""
"","html-keyboard-response","509","633296","0.0-784.0","bnnt4sn8","1280","689","","","","","","","","","","","546","snx","Diagnostic trial","","j","15","2","false","true","RIGHT","j","1","","LEFT","false","","",""
"","html-keyboard-response","510","634048","0.0-787.0","bnnt4sn8","1280","689","","","","","","","","","","","null","+","Fixation - short","","null","","","","","","","","","","","","",""
