"value","trial_type","trial_index","time_elapsed","internal_node_id","id","width","height","webaudio","browser","browser_version","mobile","os","fullscreen","vsync_rate","webcam","microphone","view_history","rt","stimulus","trial_info","success","response","inducer_run","diagnostic_run","inducer_trial","italic","correct_diag_response_side","correct_response_key","correct_response","correct_indu_response_side","correct_inducer_response_side","congruent","accuracy","open_feedback","interactive"
"","call-function","0","1","0.0-0.0","8frhzxqs","","","","","","","","","","","","","","","","","","","","","","","","","","","","","",""
"","browser-check","1","1001","0.0-1.0","8frhzxqs","1920","911","true","chrome","120.0.0","false","Windows 10","true","60.22","false","true","","","","","","","","","","","","","","","","","","",""
"","instructions","2","32959","0.0-2.0","8frhzxqs","","","","","","","","","","","","[{""page_index"":0,""viewing_time"":14276},{""page_index"":1,""viewing_time"":14593},{""page_index"":2,""viewing_time"":3088}]","31957","The experiment and consent","The experiment and consent","","","","","","","","","","","","","","",""
"","fullscreen","3","44023","0.0-3.0","8frhzxqs","1920","1080","","","","","","","","","","","10057","","Full screen","true","","","","","","","","","","","","","",""
"","instructions","4","64861","0.0-4.0","8frhzxqs","1920","1080","","","","","","","","","","[{""page_index"":0,""viewing_time"":15257},{""page_index"":1,""viewing_time"":5580}]","20837","Instructions","Basic overview explanation","","","","","","","","","","","","","","",""
"","html-keyboard-response","5","74751","0.0-5.0","8frhzxqs","1920","1080","","","","","","","","","","","8383","If italic press LEFT | If upright press RIGHT","Diagnostic instructions",""," ","","","","","","","","","","","","",""
"","html-keyboard-response","6","75516","0.0-6.0","8frhzxqs","1920","1080","","","","","","","","","","","null","+","Fixation - short","","null","","","","","","","","","","","","",""
"","html-keyboard-response","7","78999","0.0-7.0","8frhzxqs","1920","1080","","","","","","","","","","","3483","wrz","Practice diganostic trial","","j","practice","0","false","0","RIGHT","j","1","","","","","",""
"","html-keyboard-response","8","79758","0.0-10.0","8frhzxqs","1920","1080","","","","","","","","","","","null","+","Fixation - short","","null","","","","","","","","","","","","",""
"","html-keyboard-response","9","80183","0.0-11.0","8frhzxqs","1920","1080","","","","","","","","","","","425","pte","Practice diganostic trial","","f","practice","1","false","1","LEFT","f","1","","","","","",""
"","html-keyboard-response","10","80936","0.0-14.0","8frhzxqs","1920","1080","","","","","","","","","","","null","+","Fixation - short","","null","","","","","","","","","","","","",""
"","html-keyboard-response","11","81391","0.0-15.0","8frhzxqs","1920","1080","","","","","","","","","","","454","wrz","Practice diganostic trial","","f","practice","2","false","1","LEFT","f","1","","","","","",""
"","html-keyboard-response","12","82144","0.0-18.0","8frhzxqs","1920","1080","","","","","","","","","","","null","+","Fixation - short","","null","","","","","","","","","","","","",""
"","html-keyboard-response","13","82559","0.0-19.0","8frhzxqs","1920","1080","","","","","","","","","","","415","pte","Practice diganostic trial","","j","practice","3","false","0","RIGHT","j","1","","","","","",""
"","html-keyboard-response","14","83316","0.0-22.0","8frhzxqs","1920","1080","","","","","","","","","","","null","+","Fixation - short","","null","","","","","","","","","","","","",""
"","html-keyboard-response","15","83695","0.0-23.0","8frhzxqs","1920","1080","","","","","","","","","","","379","wrz","Practice diganostic trial","","f","practice","4","false","1","LEFT","f","1","","","","","",""
"","html-keyboard-response","16","84449","0.0-26.0","8frhzxqs","1920","1080","","","","","","","","","","","null","+","Fixation - short","","null","","","","","","","","","","","","",""
"","html-keyboard-response","17","84895","0.0-27.0","8frhzxqs","1920","1080","","","","","","","","","","","446","pte","Practice diganostic trial","","f","practice","5","false","1","LEFT","f","1","","","","","",""
"","html-keyboard-response","18","85649","0.0-30.0","8frhzxqs","1920","1080","","","","","","","","","","","null","+","Fixation - short","","null","","","","","","","","","","","","",""
"","html-keyboard-response","19","86383","0.0-31.0","8frhzxqs","1920","1080","","","","","","","","","","","734","pte","Practice diganostic trial","","j","practice","6","false","0","RIGHT","j","1","","","","","",""
"","html-keyboard-response","20","87134","0.0-34.0","8frhzxqs","1920","1080","","","","","","","","","","","null","+","Fixation - short","","null","","","","","","","","","","","","",""
"","html-keyboard-response","21","87583","0.0-35.0","8frhzxqs","1920","1080","","","","","","","","","","","448","pte","Practice diganostic trial","","j","practice","7","false","0","RIGHT","j","1","","","","","",""
"","html-keyboard-response","22","88347","0.0-38.0","8frhzxqs","1920","1080","","","","","","","","","","","null","+","Fixation - short","","null","","","","","","","","","","","","",""
"","html-keyboard-response","23","88911","0.0-39.0","8frhzxqs","1920","1080","","","","","","","","","","","564","wrz","Practice diganostic trial","","f","practice","8","false","1","LEFT","f","1","","","","","",""
"","html-keyboard-response","24","89664","0.0-42.0","8frhzxqs","1920","1080","","","","","","","","","","","null","+","Fixation - short","","null","","","","","","","","","","","","",""
"","html-keyboard-response","25","90039","0.0-43.0","8frhzxqs","1920","1080","","","","","","","","","","","375","pte","Practice diganostic trial","","f","practice","9","false","1","LEFT","f","1","","","","","",""
"","html-keyboard-response","26","90794","0.0-46.0","8frhzxqs","1920","1080","","","","","","","","","","","null","+","Fixation - short","","null","","","","","","","","","","","","",""
"","html-keyboard-response","27","91239","0.0-47.0","8frhzxqs","1920","1080","","","","","","","","","","","445","pte","Practice diganostic trial","","f","practice","10","false","1","LEFT","f","1","","","","","",""
"","html-keyboard-response","28","92000","0.0-50.0","8frhzxqs","1920","1080","","","","","","","","","","","null","+","Fixation - short","","null","","","","","","","","","","","","",""
"","html-keyboard-response","29","92551","0.0-51.0","8frhzxqs","1920","1080","","","","","","","","","","","551","wrz","Practice diganostic trial","","j","practice","11","false","0","RIGHT","j","1","","","","","",""
"","html-keyboard-response","30","93306","0.0-54.0","8frhzxqs","1920","1080","","","","","","","","","","","null","+","Fixation - short","","null","","","","","","","","","","","","",""
"","html-keyboard-response","31","93751","0.0-55.0","8frhzxqs","1920","1080","","","","","","","","","","","445","wrz","Practice diganostic trial","","f","practice","12","false","1","LEFT","f","1","","","","","",""
"","html-keyboard-response","32","94515","0.0-58.0","8frhzxqs","1920","1080","","","","","","","","","","","null","+","Fixation - short","","null","","","","","","","","","","","","",""
"","html-keyboard-response","33","94952","0.0-59.0","8frhzxqs","1920","1080","","","","","","","","","","","436","pte","Practice diganostic trial","","j","practice","13","false","0","RIGHT","j","1","","","","","",""
"","html-keyboard-response","34","95703","0.0-62.0","8frhzxqs","1920","1080","","","","","","","","","","","null","+","Fixation - short","","null","","","","","","","","","","","","",""
"","html-keyboard-response","35","96271","0.0-63.0","8frhzxqs","1920","1080","","","","","","","","","","","568","wrz","Practice diganostic trial","","j","practice","14","false","0","RIGHT","j","1","","","","","",""
"","html-keyboard-response","36","97030","0.0-66.0","8frhzxqs","1920","1080","","","","","","","","","","","null","+","Fixation - short","","null","","","","","","","","","","","","",""
"","html-keyboard-response","37","97567","0.0-67.0","8frhzxqs","1920","1080","","","","","","","","","","","537","wrz","Practice diganostic trial","","j","practice","15","false","0","RIGHT","j","1","","","","","",""
"","html-keyboard-response","38","98332","0.0-70.0","8frhzxqs","1920","1080","","","","","","","","","","","null","+","Fixation - short","","null","","","","","","","","","","","","",""
"","instructions","39","108438","0.0-71.0","8frhzxqs","1920","1080","","","","","","","","","","[{""page_index"":0,""viewing_time"":10105}]","10106","Instructions","Final experiment explanation","","","","","","","","","","","","","","",""
"","html-keyboard-response","40","119064","0.0-72.0","8frhzxqs","1920","1080","","","","","","","","","","","9115","If quy press LEFT | If vib press RIGHT","Practice inducer instructions",""," ","practice","","","","","","","","","","","",""
"","html-keyboard-response","41","120320","0.0-73.0","8frhzxqs","1920","1080","","","","","","","","","","","1255","","Practice inducer trial","","j","practice","","true","","","j","1","RIGHT","","","","",""
"","html-keyboard-response","42","121071","0.0-76.0","8frhzxqs","1920","1080","","","","","","","","","","","null","+","Fixation - short","","null","","","","","","","","","","","","",""
"","html-keyboard-response","43","127016","0.0-77.0","8frhzxqs","1920","1080","","","","","","","","","","","5944","If lpn press LEFT | If cer press RIGHT","Practice inducer instructions",""," ","practice","","","","","","","","","","","",""
"","html-keyboard-response","44","127688","0.0-78.0","8frhzxqs","1920","1080","","","","","","","","","","","672","","Practice inducer trial","","j","practice","","true","","","j","1","RIGHT","","","","",""
"","html-keyboard-response","45","128441","0.0-81.0","8frhzxqs","1920","1080","","","","","","","","","","","null","+","Fixation - short","","null","","","","","","","","","","","","",""
"","html-keyboard-response","46","131776","0.0-82.0","8frhzxqs","1920","1080","","","","","","","","","","","3335","If kue press LEFT | If crf press RIGHT","Practice inducer instructions",""," ","practice","","","","","","","","","","","",""
"","html-keyboard-response","47","132320","0.0-83.0","8frhzxqs","1920","1080","","","","","","","","","","","544","","Practice inducer trial","","j","practice","","true","","","j","1","RIGHT","","","","",""
"","html-keyboard-response","48","133081","0.0-86.0","8frhzxqs","1920","1080","","","","","","","","","","","null","+","Fixation - short","","null","","","","","","","","","","","","",""
"","html-keyboard-response","49","139536","0.0-87.0","8frhzxqs","1920","1080","","","","","","","","","","","6454","If fuc press LEFT | If mik press RIGHT","Practice inducer instructions",""," ","practice","","","","","","","","","","","",""
"","html-keyboard-response","50","140032","0.0-88.0","8frhzxqs","1920","1080","","","","","","","","","","","496","","Practice inducer trial","","j","practice","","true","","","f","0","LEFT","","","","",""
"","call-function","51","140033","0.0-90.0-0.0","8frhzxqs","","","","","","","","","","","","","","","","","","","","","","","","","","","","","",""
"","html-keyboard-response","52","140342","0.0-90.0-1.0","8frhzxqs","1920","1080","","","","","","","","","","","null","Wrong","Feedback","","null","","","","","","","","","","","","",""
"","call-function","53","140343","0.0-90.0-2.0","8frhzxqs","","","","","","","","","","","","","","","","","","","","","","","","","","","","","",""
"","html-keyboard-response","54","141099","0.0-91.0","8frhzxqs","1920","1080","","","","","","","","","","","null","+","Fixation - short","","null","","","","","","","","","","","","",""
"","html-keyboard-response","55","145585","0.0-92.0","8frhzxqs","1920","1080","","","","","","","","","","","4485","If vle press LEFT | If vpu press RIGHT","Practice inducer instructions",""," ","practice","","","","","","","","","","","",""
"","html-keyboard-response","56","146128","0.0-93.0","8frhzxqs","1920","1080","","","","","","","","","","","544","","Practice inducer trial","","f","practice","","true","","","f","1","LEFT","","","","",""
"","html-keyboard-response","57","146880","0.0-96.0","8frhzxqs","1920","1080","","","","","","","","","","","null","+","Fixation - short","","null","","","","","","","","","","","","",""
"","html-keyboard-response","58","150000","0.0-97.0","8frhzxqs","1920","1080","","","","","","","","","","","3120","If dof press LEFT | If vrm press RIGHT","Practice inducer instructions",""," ","practice","","","","","","","","","","","",""
"","html-keyboard-response","59","150560","0.0-98.0","8frhzxqs","1920","1080","","","","","","","","","","","560","","Practice inducer trial","","f","practice","","true","","","f","1","LEFT","","","","",""
"","html-keyboard-response","60","151314","0.0-101.0","8frhzxqs","1920","1080","","","","","","","","","","","null","+","Fixation - short","","null","","","","","","","","","","","","",""
"","html-keyboard-response","61","161329","0.0-102.0","8frhzxqs","1920","1080","","","","","","","","","","","10014","End practice","End of practice",""," ","","","","","","","","","","","","",""
"","html-keyboard-response","62","162831","0.0-103.0","8frhzxqs","1920","1080","","","","","","","","","","","null","+","Fixation - long","","null","","","","","","","","","","","","",""
"","html-keyboard-response","63","165473","0.0-104.0","8frhzxqs","1920","1080","","","","","","","","","","","2641","If bsh press LEFT | If imm press RIGHT","Inducer instructions",""," ","0","","","","","","","","","","","",""
"","html-keyboard-response","64","166229","0.0-105.0","8frhzxqs","1920","1080","","","","","","","","","","","null","+","Fixation - short","","null","","","","","","","","","","","","",""
"","html-keyboard-response","65","166993","0.0-106.0","8frhzxqs","1920","1080","","","","","","","","","","","763","imm","Diagnostic trial","","j","0","0","false","false","RIGHT","j","1","","RIGHT","true","","",""
"","html-keyboard-response","66","167747","0.0-109.0","8frhzxqs","1920","1080","","","","","","","","","","","null","+","Fixation - short","","null","","","","","","","","","","","","",""
"","html-keyboard-response","67","168353","0.0-110.0","8frhzxqs","1920","1080","","","","","","","","","","","606","bsh","Diagnostic trial","","f","0","1","false","true","LEFT","f","1","","LEFT","true","","",""
"","html-keyboard-response","68","169110","0.0-113.0","8frhzxqs","1920","1080","","","","","","","","","","","null","+","Fixation - short","","null","","","","","","","","","","","","",""
"","html-keyboard-response","69","169617","0.0-114.0","8frhzxqs","1920","1080","","","","","","","","","","","507","bsh","Diagnostic trial","","f","0","2","false","true","LEFT","f","1","","LEFT","true","","",""
"","html-keyboard-response","70","170380","0.0-117.0","8frhzxqs","1920","1080","","","","","","","","","","","null","+","Fixation - short","","null","","","","","","","","","","","","",""
"","html-keyboard-response","71","171137","0.0-118.0","8frhzxqs","1920","1080","","","","","","","","","","","756","bsh","Diagnostic trial","","j","0","3","false","false","RIGHT","j","1","","LEFT","false","","",""
"","html-keyboard-response","72","171889","0.0-121.0","8frhzxqs","1920","1080","","","","","","","","","","","null","+","Fixation - short","","null","","","","","","","","","","","","",""
"","html-keyboard-response","73","172737","0.0-122.0","8frhzxqs","1920","1080","","","","","","","","","","","848","bsh","Diagnostic trial","","j","0","4","false","false","RIGHT","j","1","","LEFT","false","","",""
"","html-keyboard-response","74","173489","0.0-125.0","8frhzxqs","1920","1080","","","","","","","","","","","null","+","Fixation - short","","null","","","","","","","","","","","","",""
"","html-keyboard-response","75","174105","0.0-126.0","8frhzxqs","1920","1080","","","","","","","","","","","615","bsh","Diagnostic trial","","f","0","5","false","true","LEFT","f","1","","LEFT","true","","",""
"","html-keyboard-response","76","174864","0.0-129.0","8frhzxqs","1920","1080","","","","","","","","","","","null","+","Fixation - short","","null","","","","","","","","","","","","",""
"","html-keyboard-response","77","175305","0.0-130.0","8frhzxqs","1920","1080","","","","","","","","","","","441","bsh","Diagnostic trial","","f","0","6","false","true","LEFT","f","1","","LEFT","true","","",""
"","html-keyboard-response","78","176061","0.0-133.0","8frhzxqs","1920","1080","","","","","","","","","","","null","+","Fixation - short","","null","","","","","","","","","","","","",""
"","html-keyboard-response","79","176705","0.0-134.0","8frhzxqs","1920","1080","","","","","","","","","","","644","imm","Diagnostic trial","","j","0","7","false","false","RIGHT","j","1","","RIGHT","true","","",""
"","html-keyboard-response","80","177464","0.0-137.0","8frhzxqs","1920","1080","","","","","","","","","","","null","+","Fixation - short","","null","","","","","","","","","","","","",""
"","html-keyboard-response","81","177897","0.0-138.0","8frhzxqs","1920","1080","","","","","","","","","","","433","bsh","Diagnostic trial","","f","0","8","false","true","LEFT","f","1","","LEFT","true","","",""
"","html-keyboard-response","82","178657","0.0-141.0","8frhzxqs","1920","1080","","","","","","","","","","","null","+","Fixation - short","","null","","","","","","","","","","","","",""
"","html-keyboard-response","83","179241","0.0-142.0","8frhzxqs","1920","1080","","","","","","","","","","","584","imm","Diagnostic trial","","j","0","9","false","false","RIGHT","j","1","","RIGHT","true","","",""
"","html-keyboard-response","84","179992","0.0-145.0","8frhzxqs","1920","1080","","","","","","","","","","","null","+","Fixation - short","","null","","","","","","","","","","","","",""
"","html-keyboard-response","85","180489","0.0-146.0","8frhzxqs","1920","1080","","","","","","","","","","","496","bsh","Diagnostic trial","","j","0","10","false","false","RIGHT","j","1","","LEFT","false","","",""
"","html-keyboard-response","86","181247","0.0-149.0","8frhzxqs","1920","1080","","","","","","","","","","","null","+","Fixation - short","","null","","","","","","","","","","","","",""
"","html-keyboard-response","87","181793","0.0-150.0","8frhzxqs","1920","1080","","","","","","","","","","","546","bsh","Diagnostic trial","","j","0","11","false","false","RIGHT","j","1","","LEFT","false","","",""
"","html-keyboard-response","88","182547","0.0-153.0","8frhzxqs","1920","1080","","","","","","","","","","","null","+","Fixation - short","","null","","","","","","","","","","","","",""
"","html-keyboard-response","89","183137","0.0-154.0","8frhzxqs","1920","1080","","","","","","","","","","","590","imm","Diagnostic trial","","j","0","12","false","false","RIGHT","j","1","","RIGHT","true","","",""
"","html-keyboard-response","90","183897","0.0-157.0","8frhzxqs","1920","1080","","","","","","","","","","","null","+","Fixation - short","","null","","","","","","","","","","","","",""
"","html-keyboard-response","91","184705","0.0-158.0","8frhzxqs","1920","1080","","","","","","","","","","","808","bsh","Inducer trial","","f","0","","true","","","f","1","LEFT","","","","",""
"","html-keyboard-response","92","186207","0.0-161.0","8frhzxqs","1920","1080","","","","","","","","","","","null","+","Fixation - long","","null","","","","","","","","","","","","",""
"","html-keyboard-response","93","190481","0.0-162.0","8frhzxqs","1920","1080","","","","","","","","","","","4274","If hfs press LEFT | If pmf press RIGHT","Inducer instructions",""," ","1","","","","","","","","","","","",""
"","html-keyboard-response","94","191242","0.0-163.0","8frhzxqs","1920","1080","","","","","","","","","","","null","+","Fixation - short","","null","","","","","","","","","","","","",""
"","html-keyboard-response","95","191905","0.0-164.0","8frhzxqs","1920","1080","","","","","","","","","","","663","hfs","Diagnostic trial","","j","1","0","false","false","RIGHT","j","1","","LEFT","false","","",""
"","html-keyboard-response","96","192656","0.0-167.0","8frhzxqs","1920","1080","","","","","","","","","","","null","+","Fixation - short","","null","","","","","","","","","","","","",""
"","html-keyboard-response","97","193410","0.0-168.0","8frhzxqs","1920","1080","","","","","","","","","","","753","pmf","Diagnostic trial","","f","1","1","false","true","LEFT","f","1","","RIGHT","false","","",""
"","html-keyboard-response","98","194160","0.0-171.0","8frhzxqs","1920","1080","","","","","","","","","","","null","+","Fixation - short","","null","","","","","","","","","","","","",""
"","html-keyboard-response","99","194673","0.0-172.0","8frhzxqs","1920","1080","","","","","","","","","","","512","pmf","Diagnostic trial","","j","1","2","false","false","RIGHT","j","1","","RIGHT","true","","",""
"","html-keyboard-response","100","195425","0.0-175.0","8frhzxqs","1920","1080","","","","","","","","","","","null","+","Fixation - short","","null","","","","","","","","","","","","",""
"","html-keyboard-response","101","195841","0.0-176.0","8frhzxqs","1920","1080","","","","","","","","","","","416","hfs","Diagnostic trial","","j","1","3","false","false","RIGHT","j","1","","LEFT","false","","",""
"","html-keyboard-response","102","196597","0.0-179.0","8frhzxqs","1920","1080","","","","","","","","","","","null","+","Fixation - short","","null","","","","","","","","","","","","",""
"","html-keyboard-response","103","197225","0.0-180.0","8frhzxqs","1920","1080","","","","","","","","","","","628","hfs","Diagnostic trial","","j","1","4","false","false","RIGHT","j","1","","LEFT","false","","",""
"","html-keyboard-response","104","197980","0.0-183.0","8frhzxqs","1920","1080","","","","","","","","","","","null","+","Fixation - short","","null","","","","","","","","","","","","",""
"","html-keyboard-response","105","198505","0.0-184.0","8frhzxqs","1920","1080","","","","","","","","","","","525","hfs","Diagnostic trial","","f","1","5","false","true","LEFT","f","1","","LEFT","true","","",""
"","html-keyboard-response","106","199263","0.0-187.0","8frhzxqs","1920","1080","","","","","","","","","","","null","+","Fixation - short","","null","","","","","","","","","","","","",""
"","html-keyboard-response","107","200201","0.0-188.0","8frhzxqs","1920","1080","","","","","","","","","","","938","pmf","Diagnostic trial","","f","1","6","false","true","LEFT","f","1","","RIGHT","false","","",""
"","html-keyboard-response","108","200955","0.0-191.0","8frhzxqs","1920","1080","","","","","","","","","","","null","+","Fixation - short","","null","","","","","","","","","","","","",""
"","html-keyboard-response","109","201393","0.0-192.0","8frhzxqs","1920","1080","","","","","","","","","","","438","hfs","Diagnostic trial","","j","1","7","false","false","RIGHT","j","1","","LEFT","false","","",""
"","html-keyboard-response","110","202144","0.0-195.0","8frhzxqs","1920","1080","","","","","","","","","","","null","+","Fixation - short","","null","","","","","","","","","","","","",""
"","html-keyboard-response","111","202641","0.0-196.0","8frhzxqs","1920","1080","","","","","","","","","","","497","pmf","Inducer trial","","j","1","","true","","","j","1","RIGHT","","","","",""
"","html-keyboard-response","112","204146","0.0-199.0","8frhzxqs","1920","1080","","","","","","","","","","","null","+","Fixation - long","","null","","","","","","","","","","","","",""
"","html-keyboard-response","113","206698","0.0-200.0","8frhzxqs","1920","1080","","","","","","","","","","","2551","If rrd press LEFT | If dul press RIGHT","Inducer instructions",""," ","2","","","","","","","","","","","",""
"","html-keyboard-response","114","207451","0.0-201.0","8frhzxqs","1920","1080","","","","","","","","","","","null","+","Fixation - short","","null","","","","","","","","","","","","",""
"","html-keyboard-response","115","208161","0.0-202.0","8frhzxqs","1920","1080","","","","","","","","","","","710","rrd","Diagnostic trial","","j","2","0","false","false","RIGHT","j","1","","LEFT","false","","",""
"","html-keyboard-response","116","208913","0.0-205.0","8frhzxqs","1920","1080","","","","","","","","","","","null","+","Fixation - short","","null","","","","","","","","","","","","",""
"","html-keyboard-response","117","209498","0.0-206.0","8frhzxqs","1920","1080","","","","","","","","","","","584","rrd","Diagnostic trial","","j","2","1","false","false","RIGHT","j","1","","LEFT","false","","",""
"","html-keyboard-response","118","210255","0.0-209.0","8frhzxqs","1920","1080","","","","","","","","","","","null","+","Fixation - short","","null","","","","","","","","","","","","",""
"","html-keyboard-response","119","210753","0.0-210.0","8frhzxqs","1920","1080","","","","","","","","","","","498","rrd","Diagnostic trial","","j","2","2","false","false","RIGHT","j","1","","LEFT","false","","",""
"","html-keyboard-response","120","211509","0.0-213.0","8frhzxqs","1920","1080","","","","","","","","","","","null","+","Fixation - short","","null","","","","","","","","","","","","",""
"","html-keyboard-response","121","211922","0.0-214.0","8frhzxqs","1920","1080","","","","","","","","","","","412","dul","Diagnostic trial","","f","2","3","false","true","LEFT","f","1","","RIGHT","false","","",""
"","html-keyboard-response","122","212680","0.0-217.0","8frhzxqs","1920","1080","","","","","","","","","","","null","+","Fixation - short","","null","","","","","","","","","","","","",""
"","html-keyboard-response","123","213218","0.0-218.0","8frhzxqs","1920","1080","","","","","","","","","","","538","rrd","Diagnostic trial","","j","2","4","false","false","RIGHT","j","1","","LEFT","false","","",""
"","html-keyboard-response","124","213970","0.0-221.0","8frhzxqs","1920","1080","","","","","","","","","","","null","+","Fixation - short","","null","","","","","","","","","","","","",""
"","html-keyboard-response","125","214474","0.0-222.0","8frhzxqs","1920","1080","","","","","","","","","","","504","dul","Diagnostic trial","","j","2","5","false","true","LEFT","f","0","","RIGHT","false","","",""
"","call-function","126","214474","0.0-224.0-0.0","8frhzxqs","","","","","","","","","","","","","","","","","","","","","","","","","","","","","",""
"","html-keyboard-response","127","214775","0.0-224.0-1.0","8frhzxqs","1920","1080","","","","","","","","","","","null","Wrong","Feedback","","null","","","","","","","","","","","","",""
"","call-function","128","214775","0.0-224.0-2.0","8frhzxqs","","","","","","","","","","","","","","","","","","","","","","","","","","","","","",""
"","html-keyboard-response","129","215530","0.0-225.0","8frhzxqs","1920","1080","","","","","","","","","","","null","+","Fixation - short","","null","","","","","","","","","","","","",""
"","html-keyboard-response","130","216018","0.0-226.0","8frhzxqs","1920","1080","","","","","","","","","","","488","dul","Inducer trial","","j","2","","true","","","j","1","RIGHT","","","","",""
"","html-keyboard-response","131","217530","0.0-229.0","8frhzxqs","1920","1080","","","","","","","","","","","null","+","Fixation - long","","null","","","","","","","","","","","","",""
"","html-keyboard-response","132","220186","0.0-230.0","8frhzxqs","1920","1080","","","","","","","","","","","2656","If jey press LEFT | If gfm press RIGHT","Inducer instructions",""," ","3","","","","","","","","","","","",""
"","html-keyboard-response","133","220942","0.0-231.0","8frhzxqs","1920","1080","","","","","","","","","","","null","+","Fixation - short","","null","","","","","","","","","","","","",""
"","html-keyboard-response","134","221730","0.0-232.0","8frhzxqs","1920","1080","","","","","","","","","","","787","gfm","Diagnostic trial","","f","3","0","false","true","LEFT","f","1","","RIGHT","false","","",""
"","html-keyboard-response","135","222480","0.0-235.0","8frhzxqs","1920","1080","","","","","","","","","","","null","+","Fixation - short","","null","","","","","","","","","","","","",""
"","html-keyboard-response","136","223370","0.0-236.0","8frhzxqs","1920","1080","","","","","","","","","","","889","jey","Diagnostic trial","","f","3","1","false","true","LEFT","f","1","","LEFT","true","","",""
"","html-keyboard-response","137","224129","0.0-239.0","8frhzxqs","1920","1080","","","","","","","","","","","null","+","Fixation - short","","null","","","","","","","","","","","","",""
"","html-keyboard-response","138","224746","0.0-240.0","8frhzxqs","1920","1080","","","","","","","","","","","616","gfm","Diagnostic trial","","f","3","2","false","true","LEFT","f","1","","RIGHT","false","","",""
"","html-keyboard-response","139","225498","0.0-243.0","8frhzxqs","1920","1080","","","","","","","","","","","null","+","Fixation - short","","null","","","","","","","","","","","","",""
"","html-keyboard-response","140","226010","0.0-244.0","8frhzxqs","1920","1080","","","","","","","","","","","511","gfm","Diagnostic trial","","j","3","3","false","false","RIGHT","j","1","","RIGHT","true","","",""
"","html-keyboard-response","141","226763","0.0-247.0","8frhzxqs","1920","1080","","","","","","","","","","","null","+","Fixation - short","","null","","","","","","","","","","","","",""
"","html-keyboard-response","142","227451","0.0-248.0","8frhzxqs","1920","1080","","","","","","","","","","","688","gfm","Diagnostic trial","","f","3","4","false","true","LEFT","f","1","","RIGHT","false","","",""
"","html-keyboard-response","143","228210","0.0-251.0","8frhzxqs","1920","1080","","","","","","","","","","","null","+","Fixation - short","","null","","","","","","","","","","","","",""
"","html-keyboard-response","144","228770","0.0-252.0","8frhzxqs","1920","1080","","","","","","","","","","","560","jey","Diagnostic trial","","f","3","5","false","true","LEFT","f","1","","LEFT","true","","",""
"","html-keyboard-response","145","229524","0.0-255.0","8frhzxqs","1920","1080","","","","","","","","","","","null","+","Fixation - short","","null","","","","","","","","","","","","",""
"","html-keyboard-response","146","230315","0.0-256.0","8frhzxqs","1920","1080","","","","","","","","","","","790","jey","Diagnostic trial","","j","3","6","false","false","RIGHT","j","1","","LEFT","false","","",""
"","html-keyboard-response","147","231071","0.0-259.0","8frhzxqs","1920","1080","","","","","","","","","","","null","+","Fixation - short","","null","","","","","","","","","","","","",""
"","html-keyboard-response","148","231578","0.0-260.0","8frhzxqs","1920","1080","","","","","","","","","","","507","jey","Diagnostic trial","","f","3","7","false","true","LEFT","f","1","","LEFT","true","","",""
"","html-keyboard-response","149","232329","0.0-263.0","8frhzxqs","1920","1080","","","","","","","","","","","null","+","Fixation - short","","null","","","","","","","","","","","","",""
"","html-keyboard-response","150","232859","0.0-264.0","8frhzxqs","1920","1080","","","","","","","","","","","529","gfm","Diagnostic trial","","j","3","8","false","false","RIGHT","j","1","","RIGHT","true","","",""
"","html-keyboard-response","151","233613","0.0-267.0","8frhzxqs","1920","1080","","","","","","","","","","","null","+","Fixation - short","","null","","","","","","","","","","","","",""
"","html-keyboard-response","152","234378","0.0-268.0","8frhzxqs","1920","1080","","","","","","","","","","","765","gfm","Diagnostic trial","","f","3","9","false","true","LEFT","f","1","","RIGHT","false","","",""
"","html-keyboard-response","153","235129","0.0-271.0","8frhzxqs","1920","1080","","","","","","","","","","","null","+","Fixation - short","","null","","","","","","","","","","","","",""
"","html-keyboard-response","154","236122","0.0-272.0","8frhzxqs","1920","1080","","","","","","","","","","","993","jey","Diagnostic trial","","j","3","10","false","false","RIGHT","j","1","","LEFT","false","","",""
"","html-keyboard-response","155","236875","0.0-275.0","8frhzxqs","1920","1080","","","","","","","","","","","null","+","Fixation - short","","null","","","","","","","","","","","","",""
"","html-keyboard-response","156","237666","0.0-276.0","8frhzxqs","1920","1080","","","","","","","","","","","791","jey","Inducer trial","","f","3","","true","","","f","1","LEFT","","","","",""
"","html-keyboard-response","157","239179","0.0-279.0","8frhzxqs","1920","1080","","","","","","","","","","","null","+","Fixation - long","","null","","","","","","","","","","","","",""
"","html-keyboard-response","158","242610","0.0-280.0","8frhzxqs","1920","1080","","","","","","","","","","","3431","If upf press LEFT | If ibg press RIGHT","Inducer instructions",""," ","4","","","","","","","","","","","",""
"","html-keyboard-response","159","243362","0.0-281.0","8frhzxqs","1920","1080","","","","","","","","","","","null","+","Fixation - short","","null","","","","","","","","","","","","",""
"","html-keyboard-response","160","244002","0.0-282.0","8frhzxqs","1920","1080","","","","","","","","","","","640","upf","Diagnostic trial","","f","4","0","false","true","LEFT","f","1","","LEFT","true","","",""
"","html-keyboard-response","161","244758","0.0-285.0","8frhzxqs","1920","1080","","","","","","","","","","","null","+","Fixation - short","","null","","","","","","","","","","","","",""
"","html-keyboard-response","162","245627","0.0-286.0","8frhzxqs","1920","1080","","","","","","","","","","","868","ibg","Diagnostic trial","","f","4","1","false","true","LEFT","f","1","","RIGHT","false","","",""
"","html-keyboard-response","163","246379","0.0-289.0","8frhzxqs","1920","1080","","","","","","","","","","","null","+","Fixation - short","","null","","","","","","","","","","","","",""
"","html-keyboard-response","164","247147","0.0-290.0","8frhzxqs","1920","1080","","","","","","","","","","","767","ibg","Diagnostic trial","","j","4","2","false","false","RIGHT","j","1","","RIGHT","true","","",""
"","html-keyboard-response","165","247904","0.0-293.0","8frhzxqs","1920","1080","","","","","","","","","","","null","+","Fixation - short","","null","","","","","","","","","","","","",""
"","html-keyboard-response","166","248490","0.0-294.0","8frhzxqs","1920","1080","","","","","","","","","","","586","ibg","Diagnostic trial","","f","4","3","false","true","LEFT","f","1","","RIGHT","false","","",""
"","html-keyboard-response","167","249246","0.0-297.0","8frhzxqs","1920","1080","","","","","","","","","","","null","+","Fixation - short","","null","","","","","","","","","","","","",""
"","html-keyboard-response","168","249931","0.0-298.0","8frhzxqs","1920","1080","","","","","","","","","","","685","ibg","Diagnostic trial","","j","4","4","false","false","RIGHT","j","1","","RIGHT","true","","",""
"","html-keyboard-response","169","250692","0.0-301.0","8frhzxqs","1920","1080","","","","","","","","","","","null","+","Fixation - short","","null","","","","","","","","","","","","",""
"","html-keyboard-response","170","251243","0.0-302.0","8frhzxqs","1920","1080","","","","","","","","","","","550","ibg","Diagnostic trial","","j","4","5","false","false","RIGHT","j","1","","RIGHT","true","","",""
"","html-keyboard-response","171","251995","0.0-305.0","8frhzxqs","1920","1080","","","","","","","","","","","null","+","Fixation - short","","null","","","","","","","","","","","","",""
"","html-keyboard-response","172","252731","0.0-306.0","8frhzxqs","1920","1080","","","","","","","","","","","736","upf","Diagnostic trial","","j","4","6","false","false","RIGHT","j","1","","LEFT","false","","",""
"","html-keyboard-response","173","253495","0.0-309.0","8frhzxqs","1920","1080","","","","","","","","","","","null","+","Fixation - short","","null","","","","","","","","","","","","",""
"","html-keyboard-response","174","254371","0.0-310.0","8frhzxqs","1920","1080","","","","","","","","","","","875","upf","Inducer trial","","f","4","","true","","","f","1","LEFT","","","","",""
"","html-keyboard-response","175","255872","0.0-313.0","8frhzxqs","1920","1080","","","","","","","","","","","null","+","Fixation - long","","null","","","","","","","","","","","","",""
"","html-keyboard-response","176","257939","0.0-314.0","8frhzxqs","1920","1080","","","","","","","","","","","2066","If ofa press LEFT | If geb press RIGHT","Inducer instructions",""," ","5","","","","","","","","","","","",""
"","html-keyboard-response","177","258690","0.0-315.0","8frhzxqs","1920","1080","","","","","","","","","","","null","+","Fixation - short","","null","","","","","","","","","","","","",""
"","html-keyboard-response","178","259411","0.0-316.0","8frhzxqs","1920","1080","","","","","","","","","","","721","ofa","Diagnostic trial","","f","5","0","false","true","LEFT","f","1","","LEFT","true","","",""
"","html-keyboard-response","179","260162","0.0-319.0","8frhzxqs","1920","1080","","","","","","","","","","","null","+","Fixation - short","","null","","","","","","","","","","","","",""
"","html-keyboard-response","180","260747","0.0-320.0","8frhzxqs","1920","1080","","","","","","","","","","","584","ofa","Diagnostic trial","","j","5","1","false","false","RIGHT","j","1","","LEFT","false","","",""
"","html-keyboard-response","181","261511","0.0-323.0","8frhzxqs","1920","1080","","","","","","","","","","","null","+","Fixation - short","","null","","","","","","","","","","","","",""
"","html-keyboard-response","182","262051","0.0-324.0","8frhzxqs","1920","1080","","","","","","","","","","","539","ofa","Diagnostic trial","","j","5","2","false","false","RIGHT","j","1","","LEFT","false","","",""
"","html-keyboard-response","183","262812","0.0-327.0","8frhzxqs","1920","1080","","","","","","","","","","","null","+","Fixation - short","","null","","","","","","","","","","","","",""
"","html-keyboard-response","184","263379","0.0-328.0","8frhzxqs","1920","1080","","","","","","","","","","","567","ofa","Diagnostic trial","","f","5","3","false","true","LEFT","f","1","","LEFT","true","","",""
"","html-keyboard-response","185","264144","0.0-331.0","8frhzxqs","1920","1080","","","","","","","","","","","null","+","Fixation - short","","null","","","","","","","","","","","","",""
"","html-keyboard-response","186","264763","0.0-332.0","8frhzxqs","1920","1080","","","","","","","","","","","619","ofa","Diagnostic trial","","j","5","4","false","false","RIGHT","j","1","","LEFT","false","","",""
"","html-keyboard-response","187","265521","0.0-335.0","8frhzxqs","1920","1080","","","","","","","","","","","null","+","Fixation - short","","null","","","","","","","","","","","","",""
"","html-keyboard-response","188","266139","0.0-336.0","8frhzxqs","1920","1080","","","","","","","","","","","617","ofa","Diagnostic trial","","f","5","5","false","true","LEFT","f","1","","LEFT","true","","",""
"","html-keyboard-response","189","266895","0.0-339.0","8frhzxqs","1920","1080","","","","","","","","","","","null","+","Fixation - short","","null","","","","","","","","","","","","",""
"","html-keyboard-response","190","267595","0.0-340.0","8frhzxqs","1920","1080","","","","","","","","","","","699","ofa","Diagnostic trial","","j","5","6","false","false","RIGHT","j","1","","LEFT","false","","",""
"","html-keyboard-response","191","268358","0.0-343.0","8frhzxqs","1920","1080","","","","","","","","","","","null","+","Fixation - short","","null","","","","","","","","","","","","",""
"","html-keyboard-response","192","268923","0.0-344.0","8frhzxqs","1920","1080","","","","","","","","","","","564","geb","Diagnostic trial","","f","5","7","false","true","LEFT","f","1","","RIGHT","false","","",""
"","html-keyboard-response","193","269673","0.0-347.0","8frhzxqs","1920","1080","","","","","","","","","","","null","+","Fixation - short","","null","","","","","","","","","","","","",""
"","html-keyboard-response","194","270499","0.0-348.0","8frhzxqs","1920","1080","","","","","","","","","","","825","geb","Diagnostic trial","","f","5","8","false","true","LEFT","f","1","","RIGHT","false","","",""
"","html-keyboard-response","195","271255","0.0-351.0","8frhzxqs","1920","1080","","","","","","","","","","","null","+","Fixation - short","","null","","","","","","","","","","","","",""
"","html-keyboard-response","196","271955","0.0-352.0","8frhzxqs","1920","1080","","","","","","","","","","","700","geb","Diagnostic trial","","j","5","9","false","false","RIGHT","j","1","","RIGHT","true","","",""
"","html-keyboard-response","197","272712","0.0-355.0","8frhzxqs","1920","1080","","","","","","","","","","","null","+","Fixation - short","","null","","","","","","","","","","","","",""
"","html-keyboard-response","198","273579","0.0-356.0","8frhzxqs","1920","1080","","","","","","","","","","","867","geb","Diagnostic trial","","j","5","10","false","false","RIGHT","j","1","","RIGHT","true","","",""
"","html-keyboard-response","199","274340","0.0-359.0","8frhzxqs","1920","1080","","","","","","","","","","","null","+","Fixation - short","","null","","","","","","","","","","","","",""
"","html-keyboard-response","200","274883","0.0-360.0","8frhzxqs","1920","1080","","","","","","","","","","","543","ofa","Diagnostic trial","","f","5","11","false","false","RIGHT","j","0","","LEFT","false","","",""
"","call-function","201","274884","0.0-362.0-0.0","8frhzxqs","","","","","","","","","","","","","","","","","","","","","","","","","","","","","",""
"","html-keyboard-response","202","275191","0.0-362.0-1.0","8frhzxqs","1920","1080","","","","","","","","","","","null","Wrong","Feedback","","null","","","","","","","","","","","","",""
"","call-function","203","275191","0.0-362.0-2.0","8frhzxqs","","","","","","","","","","","","","","","","","","","","","","","","","","","","","",""
"","html-keyboard-response","204","275945","0.0-363.0","8frhzxqs","1920","1080","","","","","","","","","","","null","+","Fixation - short","","null","","","","","","","","","","","","",""
"","html-keyboard-response","205","276467","0.0-364.0","8frhzxqs","1920","1080","","","","","","","","","","","522","geb","Diagnostic trial","","j","5","12","false","false","RIGHT","j","1","","RIGHT","true","","",""
"","html-keyboard-response","206","277219","0.0-367.0","8frhzxqs","1920","1080","","","","","","","","","","","null","+","Fixation - short","","null","","","","","","","","","","","","",""
"","html-keyboard-response","207","277707","0.0-368.0","8frhzxqs","1920","1080","","","","","","","","","","","487","ofa","Diagnostic trial","","f","5","13","false","true","LEFT","f","1","","LEFT","true","","",""
"","html-keyboard-response","208","278462","0.0-371.0","8frhzxqs","1920","1080","","","","","","","","","","","null","+","Fixation - short","","null","","","","","","","","","","","","",""
"","html-keyboard-response","209","279019","0.0-372.0","8frhzxqs","1920","1080","","","","","","","","","","","557","ofa","Inducer trial","","f","5","","true","","","f","1","LEFT","","","","",""
"","html-keyboard-response","210","280523","0.0-375.0","8frhzxqs","1920","1080","","","","","","","","","","","null","+","Fixation - long","","null","","","","","","","","","","","","",""
"","html-keyboard-response","211","285004","0.0-376.0","8frhzxqs","1920","1080","","","","","","","","","","","4480","If tkb press LEFT | If flh press RIGHT","Inducer instructions",""," ","6","","","","","","","","","","","",""
"","html-keyboard-response","212","285761","0.0-377.0","8frhzxqs","1920","1080","","","","","","","","","","","null","+","Fixation - short","","null","","","","","","","","","","","","",""
"","html-keyboard-response","213","286355","0.0-378.0","8frhzxqs","1920","1080","","","","","","","","","","","594","tkb","Diagnostic trial","","f","6","0","false","true","LEFT","f","1","","LEFT","true","","",""
"","html-keyboard-response","214","287106","0.0-381.0","8frhzxqs","1920","1080","","","","","","","","","","","null","+","Fixation - short","","null","","","","","","","","","","","","",""
"","html-keyboard-response","215","287619","0.0-382.0","8frhzxqs","1920","1080","","","","","","","","","","","513","flh","Diagnostic trial","","f","6","1","false","true","LEFT","f","1","","RIGHT","false","","",""
"","html-keyboard-response","216","288370","0.0-385.0","8frhzxqs","1920","1080","","","","","","","","","","","null","+","Fixation - short","","null","","","","","","","","","","","","",""
"","html-keyboard-response","217","289011","0.0-386.0","8frhzxqs","1920","1080","","","","","","","","","","","641","flh","Diagnostic trial","","f","6","2","false","true","LEFT","f","1","","RIGHT","false","","",""
"","html-keyboard-response","218","289771","0.0-389.0","8frhzxqs","1920","1080","","","","","","","","","","","null","+","Fixation - short","","null","","","","","","","","","","","","",""
"","html-keyboard-response","219","290259","0.0-390.0","8frhzxqs","1920","1080","","","","","","","","","","","488","flh","Diagnostic trial","","f","6","3","false","true","LEFT","f","1","","RIGHT","false","","",""
"","html-keyboard-response","220","291010","0.0-393.0","8frhzxqs","1920","1080","","","","","","","","","","","null","+","Fixation - short","","null","","","","","","","","","","","","",""
"","html-keyboard-response","221","291451","0.0-394.0","8frhzxqs","1920","1080","","","","","","","","","","","440","flh","Diagnostic trial","","f","6","4","false","true","LEFT","f","1","","RIGHT","false","","",""
"","html-keyboard-response","222","292209","0.0-397.0","8frhzxqs","1920","1080","","","","","","","","","","","null","+","Fixation - short","","null","","","","","","","","","","","","",""
"","html-keyboard-response","223","292851","0.0-398.0","8frhzxqs","1920","1080","","","","","","","","","","","642","tkb","Diagnostic trial","","j","6","5","false","false","RIGHT","j","1","","LEFT","false","","",""
"","html-keyboard-response","224","293602","0.0-401.0","8frhzxqs","1920","1080","","","","","","","","","","","null","+","Fixation - short","","null","","","","","","","","","","","","",""
"","html-keyboard-response","225","294195","0.0-402.0","8frhzxqs","1920","1080","","","","","","","","","","","592","tkb","Diagnostic trial","","f","6","6","false","true","LEFT","f","1","","LEFT","true","","",""
"","html-keyboard-response","226","294952","0.0-405.0","8frhzxqs","1920","1080","","","","","","","","","","","null","+","Fixation - short","","null","","","","","","","","","","","","",""
"","html-keyboard-response","227","295547","0.0-406.0","8frhzxqs","1920","1080","","","","","","","","","","","595","flh","Diagnostic trial","","f","6","7","false","true","LEFT","f","1","","RIGHT","false","","",""
"","html-keyboard-response","228","296301","0.0-409.0","8frhzxqs","1920","1080","","","","","","","","","","","null","+","Fixation - short","","null","","","","","","","","","","","","",""
"","html-keyboard-response","229","296795","0.0-410.0","8frhzxqs","1920","1080","","","","","","","","","","","494","flh","Diagnostic trial","","f","6","8","false","true","LEFT","f","1","","RIGHT","false","","",""
"","html-keyboard-response","230","297560","0.0-413.0","8frhzxqs","1920","1080","","","","","","","","","","","null","+","Fixation - short","","null","","","","","","","","","","","","",""
"","html-keyboard-response","231","298155","0.0-414.0","8frhzxqs","1920","1080","","","","","","","","","","","595","flh","Diagnostic trial","","j","6","9","false","false","RIGHT","j","1","","RIGHT","true","","",""
"","html-keyboard-response","232","298911","0.0-417.0","8frhzxqs","1920","1080","","","","","","","","","","","null","+","Fixation - short","","null","","","","","","","","","","","","",""
"","html-keyboard-response","233","299355","0.0-418.0","8frhzxqs","1920","1080","","","","","","","","","","","444","flh","Diagnostic trial","","j","6","10","false","false","RIGHT","j","1","","RIGHT","true","","",""
"","html-keyboard-response","234","300111","0.0-421.0","8frhzxqs","1920","1080","","","","","","","","","","","null","+","Fixation - short","","null","","","","","","","","","","","","",""
"","html-keyboard-response","235","300587","0.0-422.0","8frhzxqs","1920","1080","","","","","","","","","","","476","flh","Diagnostic trial","","f","6","11","false","true","LEFT","f","1","","RIGHT","false","","",""
"","html-keyboard-response","236","301342","0.0-425.0","8frhzxqs","1920","1080","","","","","","","","","","","null","+","Fixation - short","","null","","","","","","","","","","","","",""
"","html-keyboard-response","237","302283","0.0-426.0","8frhzxqs","1920","1080","","","","","","","","","","","941","tkb","Diagnostic trial","","j","6","12","false","false","RIGHT","j","1","","LEFT","false","","",""
"","html-keyboard-response","238","303044","0.0-429.0","8frhzxqs","1920","1080","","","","","","","","","","","null","+","Fixation - short","","null","","","","","","","","","","","","",""
"","html-keyboard-response","239","304011","0.0-430.0","8frhzxqs","1920","1080","","","","","","","","","","","967","tkb","Inducer trial","","f","6","","true","","","f","1","LEFT","","","","",""
"","html-keyboard-response","240","305526","0.0-433.0","8frhzxqs","1920","1080","","","","","","","","","","","null","+","Fixation - long","","null","","","","","","","","","","","","",""
"","html-keyboard-response","241","311020","0.0-434.0","8frhzxqs","1920","1080","","","","","","","","","","","5493","If pxv press LEFT | If pbz press RIGHT","Inducer instructions",""," ","7","","","","","","","","","","","",""
"","html-keyboard-response","242","311777","0.0-435.0","8frhzxqs","1920","1080","","","","","","","","","","","null","+","Fixation - short","","null","","","","","","","","","","","","",""
"","html-keyboard-response","243","312347","0.0-436.0","8frhzxqs","1920","1080","","","","","","","","","","","570","pbz","Diagnostic trial","","j","7","0","false","false","RIGHT","j","1","","RIGHT","true","","",""
"","html-keyboard-response","244","313099","0.0-439.0","8frhzxqs","1920","1080","","","","","","","","","","","null","+","Fixation - short","","null","","","","","","","","","","","","",""
"","html-keyboard-response","245","313780","0.0-440.0","8frhzxqs","1920","1080","","","","","","","","","","","680","pbz","Diagnostic trial","","f","7","1","false","true","LEFT","f","1","","RIGHT","false","","",""
"","html-keyboard-response","246","314540","0.0-443.0","8frhzxqs","1920","1080","","","","","","","","","","","null","+","Fixation - short","","null","","","","","","","","","","","","",""
"","html-keyboard-response","247","315076","0.0-444.0","8frhzxqs","1920","1080","","","","","","","","","","","536","pbz","Diagnostic trial","","j","7","2","false","false","RIGHT","j","1","","RIGHT","true","","",""
"","html-keyboard-response","248","315827","0.0-447.0","8frhzxqs","1920","1080","","","","","","","","","","","null","+","Fixation - short","","null","","","","","","","","","","","","",""
"","html-keyboard-response","249","316492","0.0-448.0","8frhzxqs","1920","1080","","","","","","","","","","","664","pxv","Diagnostic trial","","j","7","3","false","false","RIGHT","j","1","","LEFT","false","","",""
"","html-keyboard-response","250","317244","0.0-451.0","8frhzxqs","1920","1080","","","","","","","","","","","null","+","Fixation - short","","null","","","","","","","","","","","","",""
"","html-keyboard-response","251","317644","0.0-452.0","8frhzxqs","1920","1080","","","","","","","","","","","399","pxv","Diagnostic trial","","f","7","4","false","true","LEFT","f","1","","LEFT","true","","",""
"","html-keyboard-response","252","318394","0.0-455.0","8frhzxqs","1920","1080","","","","","","","","","","","null","+","Fixation - short","","null","","","","","","","","","","","","",""
"","html-keyboard-response","253","318940","0.0-456.0","8frhzxqs","1920","1080","","","","","","","","","","","545","pxv","Diagnostic trial","","j","7","5","false","false","RIGHT","j","1","","LEFT","false","","",""
"","html-keyboard-response","254","319694","0.0-459.0","8frhzxqs","1920","1080","","","","","","","","","","","null","+","Fixation - short","","null","","","","","","","","","","","","",""
"","html-keyboard-response","255","320084","0.0-460.0","8frhzxqs","1920","1080","","","","","","","","","","","389","pxv","Diagnostic trial","","f","7","6","false","true","LEFT","f","1","","LEFT","true","","",""
"","html-keyboard-response","256","320844","0.0-463.0","8frhzxqs","1920","1080","","","","","","","","","","","null","+","Fixation - short","","null","","","","","","","","","","","","",""
"","html-keyboard-response","257","321348","0.0-464.0","8frhzxqs","1920","1080","","","","","","","","","","","504","pbz","Diagnostic trial","","f","7","7","false","true","LEFT","f","1","","RIGHT","false","","",""
"","html-keyboard-response","258","322100","0.0-467.0","8frhzxqs","1920","1080","","","","","","","","","","","null","+","Fixation - short","","null","","","","","","","","","","","","",""
"","html-keyboard-response","259","322660","0.0-468.0","8frhzxqs","1920","1080","","","","","","","","","","","559","pbz","Diagnostic trial","","f","7","8","false","true","LEFT","f","1","","RIGHT","false","","",""
"","html-keyboard-response","260","323410","0.0-471.0","8frhzxqs","1920","1080","","","","","","","","","","","null","+","Fixation - short","","null","","","","","","","","","","","","",""
"","html-keyboard-response","261","323908","0.0-472.0","8frhzxqs","1920","1080","","","","","","","","","","","497","pxv","Diagnostic trial","","f","7","9","false","true","LEFT","f","1","","LEFT","true","","",""
"","html-keyboard-response","262","324660","0.0-475.0","8frhzxqs","1920","1080","","","","","","","","","","","null","+","Fixation - short","","null","","","","","","","","","","","","",""
"","html-keyboard-response","263","325124","0.0-476.0","8frhzxqs","1920","1080","","","","","","","","","","","463","pbz","Diagnostic trial","","f","7","10","false","true","LEFT","f","1","","RIGHT","false","","",""
"","html-keyboard-response","264","325877","0.0-479.0","8frhzxqs","1920","1080","","","","","","","","","","","null","+","Fixation - short","","null","","","","","","","","","","","","",""
"","html-keyboard-response","265","326356","0.0-480.0","8frhzxqs","1920","1080","","","","","","","","","","","478","pbz","Diagnostic trial","","j","7","11","false","false","RIGHT","j","1","","RIGHT","true","","",""
"","html-keyboard-response","266","327106","0.0-483.0","8frhzxqs","1920","1080","","","","","","","","","","","null","+","Fixation - short","","null","","","","","","","","","","","","",""
"","html-keyboard-response","267","327628","0.0-484.0","8frhzxqs","1920","1080","","","","","","","","","","","522","pxv","Diagnostic trial","","j","7","12","false","false","RIGHT","j","1","","LEFT","false","","",""
"","html-keyboard-response","268","328388","0.0-487.0","8frhzxqs","1920","1080","","","","","","","","","","","null","+","Fixation - short","","null","","","","","","","","","","","","",""
"","html-keyboard-response","269","329060","0.0-488.0","8frhzxqs","1920","1080","","","","","","","","","","","672","pxv","Inducer trial","","f","7","","true","","","f","1","LEFT","","","","",""
"","html-keyboard-response","270","330560","0.0-491.0","8frhzxqs","1920","1080","","","","","","","","","","","null","+","Fixation - long","","null","","","","","","","","","","","","",""
"","html-keyboard-response","271","334124","0.0-492.0","8frhzxqs","1920","1080","","","","","","","","","","","3564","If dpa press LEFT | If dnc press RIGHT","Inducer instructions",""," ","8","","","","","","","","","","","",""
"","html-keyboard-response","272","334877","0.0-493.0","8frhzxqs","1920","1080","","","","","","","","","","","null","+","Fixation - short","","null","","","","","","","","","","","","",""
"","html-keyboard-response","273","335604","0.0-494.0","8frhzxqs","1920","1080","","","","","","","","","","","727","dnc","Diagnostic trial","","j","8","0","false","false","RIGHT","j","1","","RIGHT","true","","",""
"","html-keyboard-response","274","336357","0.0-497.0","8frhzxqs","1920","1080","","","","","","","","","","","null","+","Fixation - short","","null","","","","","","","","","","","","",""
"","html-keyboard-response","275","337044","0.0-498.0","8frhzxqs","1920","1080","","","","","","","","","","","687","dpa","Diagnostic trial","","j","8","1","false","false","RIGHT","j","1","","LEFT","false","","",""
"","html-keyboard-response","276","337799","0.0-501.0","8frhzxqs","1920","1080","","","","","","","","","","","null","+","Fixation - short","","null","","","","","","","","","","","","",""
"","html-keyboard-response","277","338188","0.0-502.0","8frhzxqs","1920","1080","","","","","","","","","","","388","dnc","Diagnostic trial","","j","8","2","false","false","RIGHT","j","1","","RIGHT","true","","",""
"","html-keyboard-response","278","338943","0.0-505.0","8frhzxqs","1920","1080","","","","","","","","","","","null","+","Fixation - short","","null","","","","","","","","","","","","",""
"","html-keyboard-response","279","339396","0.0-506.0","8frhzxqs","1920","1080","","","","","","","","","","","452","dpa","Diagnostic trial","","j","8","3","false","false","RIGHT","j","1","","LEFT","false","","",""
"","html-keyboard-response","280","340154","0.0-509.0","8frhzxqs","1920","1080","","","","","","","","","","","null","+","Fixation - short","","null","","","","","","","","","","","","",""
"","html-keyboard-response","281","340564","0.0-510.0","8frhzxqs","1920","1080","","","","","","","","","","","409","dpa","Diagnostic trial","","j","8","4","false","false","RIGHT","j","1","","LEFT","false","","",""
"","html-keyboard-response","282","341315","0.0-513.0","8frhzxqs","1920","1080","","","","","","","","","","","null","+","Fixation - short","","null","","","","","","","","","","","","",""
"","html-keyboard-response","283","341740","0.0-514.0","8frhzxqs","1920","1080","","","","","","","","","","","425","dpa","Diagnostic trial","","f","8","5","false","true","LEFT","f","1","","LEFT","true","","",""
"","html-keyboard-response","284","342493","0.0-517.0","8frhzxqs","1920","1080","","","","","","","","","","","null","+","Fixation - short","","null","","","","","","","","","","","","",""
"","html-keyboard-response","285","343052","0.0-518.0","8frhzxqs","1920","1080","","","","","","","","","","","558","dnc","Diagnostic trial","","j","8","6","false","false","RIGHT","j","1","","RIGHT","true","","",""
"","html-keyboard-response","286","343810","0.0-521.0","8frhzxqs","1920","1080","","","","","","","","","","","null","+","Fixation - short","","null","","","","","","","","","","","","",""
"","html-keyboard-response","287","344340","0.0-522.0","8frhzxqs","1920","1080","","","","","","","","","","","530","dpa","Diagnostic trial","","j","8","7","false","false","RIGHT","j","1","","LEFT","false","","",""
"","html-keyboard-response","288","345093","0.0-525.0","8frhzxqs","1920","1080","","","","","","","","","","","null","+","Fixation - short","","null","","","","","","","","","","","","",""
"","html-keyboard-response","289","345788","0.0-526.0","8frhzxqs","1920","1080","","","","","","","","","","","695","dnc","Diagnostic trial","","f","8","8","false","true","LEFT","f","1","","RIGHT","false","","",""
"","html-keyboard-response","290","346541","0.0-529.0","8frhzxqs","1920","1080","","","","","","","","","","","null","+","Fixation - short","","null","","","","","","","","","","","","",""
"","html-keyboard-response","291","346892","0.0-530.0","8frhzxqs","1920","1080","","","","","","","","","","","351","dpa","Diagnostic trial","","f","8","9","false","true","LEFT","f","1","","LEFT","true","","",""
"","html-keyboard-response","292","347643","0.0-533.0","8frhzxqs","1920","1080","","","","","","","","","","","null","+","Fixation - short","","null","","","","","","","","","","","","",""
"","html-keyboard-response","293","348340","0.0-534.0","8frhzxqs","1920","1080","","","","","","","","","","","697","dnc","Inducer trial","","j","8","","true","","","j","1","RIGHT","","","","",""
"","html-keyboard-response","294","349843","0.0-537.0","8frhzxqs","1920","1080","","","","","","","","","","","null","+","Fixation - long","","null","","","","","","","","","","","","",""
"","html-keyboard-response","295","352508","0.0-538.0","8frhzxqs","1920","1080","","","","","","","","","","","2665","If gdn press LEFT | If yna press RIGHT","Inducer instructions",""," ","9","","","","","","","","","","","",""
"","html-keyboard-response","296","353259","0.0-539.0","8frhzxqs","1920","1080","","","","","","","","","","","null","+","Fixation - short","","null","","","","","","","","","","","","",""
"","html-keyboard-response","297","353940","0.0-540.0","8frhzxqs","1920","1080","","","","","","","","","","","680","yna","Diagnostic trial","","f","9","0","false","true","LEFT","f","1","","RIGHT","false","","",""
"","html-keyboard-response","298","354693","0.0-543.0","8frhzxqs","1920","1080","","","","","","","","","","","null","+","Fixation - short","","null","","","","","","","","","","","","",""
"","html-keyboard-response","299","355228","0.0-544.0","8frhzxqs","1920","1080","","","","","","","","","","","535","gdn","Diagnostic trial","","j","9","1","false","false","RIGHT","j","1","","LEFT","false","","",""
"","html-keyboard-response","300","355990","0.0-547.0","8frhzxqs","1920","1080","","","","","","","","","","","null","+","Fixation - short","","null","","","","","","","","","","","","",""
"","html-keyboard-response","301","356484","0.0-548.0","8frhzxqs","1920","1080","","","","","","","","","","","494","gdn","Diagnostic trial","","f","9","2","false","true","LEFT","f","1","","LEFT","true","","",""
"","html-keyboard-response","302","357235","0.0-551.0","8frhzxqs","1920","1080","","","","","","","","","","","null","+","Fixation - short","","null","","","","","","","","","","","","",""
"","html-keyboard-response","303","357572","0.0-552.0","8frhzxqs","1920","1080","","","","","","","","","","","337","yna","Diagnostic trial","","f","9","3","false","true","LEFT","f","1","","RIGHT","false","","",""
"","html-keyboard-response","304","358326","0.0-555.0","8frhzxqs","1920","1080","","","","","","","","","","","null","+","Fixation - short","","null","","","","","","","","","","","","",""
"","html-keyboard-response","305","359084","0.0-556.0","8frhzxqs","1920","1080","","","","","","","","","","","758","yna","Diagnostic trial","","j","9","4","false","false","RIGHT","j","1","","RIGHT","true","","",""
"","html-keyboard-response","306","359837","0.0-559.0","8frhzxqs","1920","1080","","","","","","","","","","","null","+","Fixation - short","","null","","","","","","","","","","","","",""
"","html-keyboard-response","307","360332","0.0-560.0","8frhzxqs","1920","1080","","","","","","","","","","","494","yna","Diagnostic trial","","f","9","5","false","true","LEFT","f","1","","RIGHT","false","","",""
"","html-keyboard-response","308","361093","0.0-563.0","8frhzxqs","1920","1080","","","","","","","","","","","null","+","Fixation - short","","null","","","","","","","","","","","","",""
"","html-keyboard-response","309","361500","0.0-564.0","8frhzxqs","1920","1080","","","","","","","","","","","407","gdn","Diagnostic trial","","f","9","6","false","true","LEFT","f","1","","LEFT","true","","",""
"","html-keyboard-response","310","362259","0.0-567.0","8frhzxqs","1920","1080","","","","","","","","","","","null","+","Fixation - short","","null","","","","","","","","","","","","",""
"","html-keyboard-response","311","362628","0.0-568.0","8frhzxqs","1920","1080","","","","","","","","","","","369","yna","Diagnostic trial","","j","9","7","false","false","RIGHT","j","1","","RIGHT","true","","",""
"","html-keyboard-response","312","363380","0.0-571.0","8frhzxqs","1920","1080","","","","","","","","","","","null","+","Fixation - short","","null","","","","","","","","","","","","",""
"","html-keyboard-response","313","364012","0.0-572.0","8frhzxqs","1920","1080","","","","","","","","","","","632","gdn","Diagnostic trial","","f","9","8","false","true","LEFT","f","1","","LEFT","true","","",""
"","html-keyboard-response","314","364776","0.0-575.0","8frhzxqs","1920","1080","","","","","","","","","","","null","+","Fixation - short","","null","","","","","","","","","","","","",""
"","html-keyboard-response","315","365188","0.0-576.0","8frhzxqs","1920","1080","","","","","","","","","","","412","yna","Diagnostic trial","","j","9","9","false","false","RIGHT","j","1","","RIGHT","true","","",""
"","html-keyboard-response","316","365942","0.0-579.0","8frhzxqs","1920","1080","","","","","","","","","","","null","+","Fixation - short","","null","","","","","","","","","","","","",""
"","html-keyboard-response","317","366396","0.0-580.0","8frhzxqs","1920","1080","","","","","","","","","","","454","gdn","Diagnostic trial","","f","9","10","false","true","LEFT","f","1","","LEFT","true","","",""
"","html-keyboard-response","318","367147","0.0-583.0","8frhzxqs","1920","1080","","","","","","","","","","","null","+","Fixation - short","","null","","","","","","","","","","","","",""
"","html-keyboard-response","319","367764","0.0-584.0","8frhzxqs","1920","1080","","","","","","","","","","","617","gdn","Diagnostic trial","","j","9","11","false","false","RIGHT","j","1","","LEFT","false","","",""
"","html-keyboard-response","320","368526","0.0-587.0","8frhzxqs","1920","1080","","","","","","","","","","","null","+","Fixation - short","","null","","","","","","","","","","","","",""
"","html-keyboard-response","321","369324","0.0-588.0","8frhzxqs","1920","1080","","","","","","","","","","","798","yna","Diagnostic trial","","j","9","12","false","false","RIGHT","j","1","","RIGHT","true","","",""
"","html-keyboard-response","322","370076","0.0-591.0","8frhzxqs","1920","1080","","","","","","","","","","","null","+","Fixation - short","","null","","","","","","","","","","","","",""
"","html-keyboard-response","323","370540","0.0-592.0","8frhzxqs","1920","1080","","","","","","","","","","","464","yna","Diagnostic trial","","f","9","13","false","true","LEFT","f","1","","RIGHT","false","","",""
"","html-keyboard-response","324","371292","0.0-595.0","8frhzxqs","1920","1080","","","","","","","","","","","null","+","Fixation - short","","null","","","","","","","","","","","","",""
"","html-keyboard-response","325","371996","0.0-596.0","8frhzxqs","1920","1080","","","","","","","","","","","704","yna","Inducer trial","","j","9","","true","","","j","1","RIGHT","","","","",""
"","html-keyboard-response","326","373501","0.0-599.0","8frhzxqs","1920","1080","","","","","","","","","","","null","+","Fixation - long","","null","","","","","","","","","","","","",""
"","html-keyboard-response","327","375501","0.0-600.0","8frhzxqs","1920","1080","","","","","","","","","","","1999","If hrc press LEFT | If psl press RIGHT","Inducer instructions",""," ","10","","","","","","","","","","","",""
"","html-keyboard-response","328","376259","0.0-601.0","8frhzxqs","1920","1080","","","","","","","","","","","null","+","Fixation - short","","null","","","","","","","","","","","","",""
"","html-keyboard-response","329","376861","0.0-602.0","8frhzxqs","1920","1080","","","","","","","","","","","601","hrc","Diagnostic trial","","j","10","0","false","false","RIGHT","j","1","","LEFT","false","","",""
"","html-keyboard-response","330","377623","0.0-605.0","8frhzxqs","1920","1080","","","","","","","","","","","null","+","Fixation - short","","null","","","","","","","","","","","","",""
"","html-keyboard-response","331","378268","0.0-606.0","8frhzxqs","1920","1080","","","","","","","","","","","645","psl","Diagnostic trial","","j","10","1","false","false","RIGHT","j","1","","RIGHT","true","","",""
"","html-keyboard-response","332","379025","0.0-609.0","8frhzxqs","1920","1080","","","","","","","","","","","null","+","Fixation - short","","null","","","","","","","","","","","","",""
"","html-keyboard-response","333","379420","0.0-610.0","8frhzxqs","1920","1080","","","","","","","","","","","395","hrc","Diagnostic trial","","f","10","2","false","true","LEFT","f","1","","LEFT","true","","",""
"","html-keyboard-response","334","380175","0.0-613.0","8frhzxqs","1920","1080","","","","","","","","","","","null","+","Fixation - short","","null","","","","","","","","","","","","",""
"","html-keyboard-response","335","380588","0.0-614.0","8frhzxqs","1920","1080","","","","","","","","","","","413","hrc","Diagnostic trial","","f","10","3","false","true","LEFT","f","1","","LEFT","true","","",""
"","html-keyboard-response","336","381340","0.0-617.0","8frhzxqs","1920","1080","","","","","","","","","","","null","+","Fixation - short","","null","","","","","","","","","","","","",""
"","html-keyboard-response","337","381676","0.0-618.0","8frhzxqs","1920","1080","","","","","","","","","","","336","psl","Diagnostic trial","","f","10","4","false","true","LEFT","f","1","","RIGHT","false","","",""
"","html-keyboard-response","338","382439","0.0-621.0","8frhzxqs","1920","1080","","","","","","","","","","","null","+","Fixation - short","","null","","","","","","","","","","","","",""
"","html-keyboard-response","339","382861","0.0-622.0","8frhzxqs","1920","1080","","","","","","","","","","","422","hrc","Inducer trial","","j","10","","true","","","f","0","LEFT","","","","",""
"","call-function","340","382861","0.0-624.0-0.0","8frhzxqs","","","","","","","","","","","","","","","","","","","","","","","","","","","","","",""
"","html-keyboard-response","341","383168","0.0-624.0-1.0","8frhzxqs","1920","1080","","","","","","","","","","","null","Wrong","Feedback","","null","","","","","","","","","","","","",""
"","call-function","342","383168","0.0-624.0-2.0","8frhzxqs","","","","","","","","","","","","","","","","","","","","","","","","","","","","","",""
"","html-keyboard-response","343","384670","0.0-625.0","8frhzxqs","1920","1080","","","","","","","","","","","null","+","Fixation - long","","null","","","","","","","","","","","","",""
"","html-keyboard-response","344","386757","0.0-626.0","8frhzxqs","1920","1080","","","","","","","","","","","2086","If lct press LEFT | If amb press RIGHT","Inducer instructions",""," ","11","","","","","","","","","","","",""
"","html-keyboard-response","345","387509","0.0-627.0","8frhzxqs","1920","1080","","","","","","","","","","","null","+","Fixation - short","","null","","","","","","","","","","","","",""
"","html-keyboard-response","346","388285","0.0-628.0","8frhzxqs","1920","1080","","","","","","","","","","","776","lct","Diagnostic trial","","j","11","0","false","false","RIGHT","j","1","","LEFT","false","","",""
"","html-keyboard-response","347","389042","0.0-631.0","8frhzxqs","1920","1080","","","","","","","","","","","null","+","Fixation - short","","null","","","","","","","","","","","","",""
"","html-keyboard-response","348","389629","0.0-632.0","8frhzxqs","1920","1080","","","","","","","","","","","586","amb","Diagnostic trial","","j","11","1","false","false","RIGHT","j","1","","RIGHT","true","","",""
"","html-keyboard-response","349","390382","0.0-635.0","8frhzxqs","1920","1080","","","","","","","","","","","null","+","Fixation - short","","null","","","","","","","","","","","","",""
"","html-keyboard-response","350","390933","0.0-636.0","8frhzxqs","1920","1080","","","","","","","","","","","551","lct","Diagnostic trial","","f","11","2","false","true","LEFT","f","1","","LEFT","true","","",""
"","html-keyboard-response","351","391683","0.0-639.0","8frhzxqs","1920","1080","","","","","","","","","","","null","+","Fixation - short","","null","","","","","","","","","","","","",""
"","html-keyboard-response","352","392109","0.0-640.0","8frhzxqs","1920","1080","","","","","","","","","","","425","amb","Diagnostic trial","","f","11","3","false","true","LEFT","f","1","","RIGHT","false","","",""
"","html-keyboard-response","353","392860","0.0-643.0","8frhzxqs","1920","1080","","","","","","","","","","","null","+","Fixation - short","","null","","","","","","","","","","","","",""
"","html-keyboard-response","354","393309","0.0-644.0","8frhzxqs","1920","1080","","","","","","","","","","","448","lct","Diagnostic trial","","j","11","4","false","false","RIGHT","j","1","","LEFT","false","","",""
"","html-keyboard-response","355","394069","0.0-647.0","8frhzxqs","1920","1080","","","","","","","","","","","null","+","Fixation - short","","null","","","","","","","","","","","","",""
"","html-keyboard-response","356","394725","0.0-648.0","8frhzxqs","1920","1080","","","","","","","","","","","656","lct","Diagnostic trial","","f","11","5","false","true","LEFT","f","1","","LEFT","true","","",""
"","html-keyboard-response","357","395475","0.0-651.0","8frhzxqs","1920","1080","","","","","","","","","","","null","+","Fixation - short","","null","","","","","","","","","","","","",""
"","html-keyboard-response","358","395829","0.0-652.0","8frhzxqs","1920","1080","","","","","","","","","","","353","amb","Diagnostic trial","","j","11","6","false","false","RIGHT","j","1","","RIGHT","true","","",""
"","html-keyboard-response","359","396580","0.0-655.0","8frhzxqs","1920","1080","","","","","","","","","","","null","+","Fixation - short","","null","","","","","","","","","","","","",""
"","html-keyboard-response","360","397181","0.0-656.0","8frhzxqs","1920","1080","","","","","","","","","","","601","lct","Inducer trial","","f","11","","true","","","f","1","LEFT","","","","",""
"","html-keyboard-response","361","398688","0.0-659.0","8frhzxqs","1920","1080","","","","","","","","","","","null","+","Fixation - long","","null","","","","","","","","","","","","",""
"","html-keyboard-response","362","400365","0.0-660.0","8frhzxqs","1920","1080","","","","","","","","","","","1677","If ndm press LEFT | If uen press RIGHT","Inducer instructions",""," ","12","","","","","","","","","","","",""
"","html-keyboard-response","363","401121","0.0-661.0","8frhzxqs","1920","1080","","","","","","","","","","","null","+","Fixation - short","","null","","","","","","","","","","","","",""
"","html-keyboard-response","364","401637","0.0-662.0","8frhzxqs","1920","1080","","","","","","","","","","","515","ndm","Diagnostic trial","","j","12","0","false","false","RIGHT","j","1","","LEFT","false","","",""
"","html-keyboard-response","365","402388","0.0-665.0","8frhzxqs","1920","1080","","","","","","","","","","","null","+","Fixation - short","","null","","","","","","","","","","","","",""
"","html-keyboard-response","366","402797","0.0-666.0","8frhzxqs","1920","1080","","","","","","","","","","","409","uen","Diagnostic trial","","j","12","1","false","false","RIGHT","j","1","","RIGHT","true","","",""
"","html-keyboard-response","367","403558","0.0-669.0","8frhzxqs","1920","1080","","","","","","","","","","","null","+","Fixation - short","","null","","","","","","","","","","","","",""
"","html-keyboard-response","368","403989","0.0-670.0","8frhzxqs","1920","1080","","","","","","","","","","","431","uen","Diagnostic trial","","j","12","2","false","false","RIGHT","j","1","","RIGHT","true","","",""
"","html-keyboard-response","369","404742","0.0-673.0","8frhzxqs","1920","1080","","","","","","","","","","","null","+","Fixation - short","","null","","","","","","","","","","","","",""
"","html-keyboard-response","370","405165","0.0-674.0","8frhzxqs","1920","1080","","","","","","","","","","","423","uen","Diagnostic trial","","j","12","3","false","false","RIGHT","j","1","","RIGHT","true","","",""
"","html-keyboard-response","371","405925","0.0-677.0","8frhzxqs","1920","1080","","","","","","","","","","","null","+","Fixation - short","","null","","","","","","","","","","","","",""
"","html-keyboard-response","372","406701","0.0-678.0","8frhzxqs","1920","1080","","","","","","","","","","","776","uen","Inducer trial","","j","12","","true","","","j","1","RIGHT","","","","",""
"","html-keyboard-response","373","408203","0.0-681.0","8frhzxqs","1920","1080","","","","","","","","","","","null","+","Fixation - long","","null","","","","","","","","","","","","",""
"","html-keyboard-response","374","409469","0.0-682.0","8frhzxqs","1920","1080","","","","","","","","","","","1266","If jsf press LEFT | If saj press RIGHT","Inducer instructions",""," ","13","","","","","","","","","","","",""
"","html-keyboard-response","375","410222","0.0-683.0","8frhzxqs","1920","1080","","","","","","","","","","","null","+","Fixation - short","","null","","","","","","","","","","","","",""
"","html-keyboard-response","376","410758","0.0-684.0","8frhzxqs","1920","1080","","","","","","","","","","","535","saj","Diagnostic trial","","f","13","0","false","true","LEFT","f","1","","RIGHT","false","","",""
"","html-keyboard-response","377","411509","0.0-687.0","8frhzxqs","1920","1080","","","","","","","","","","","null","+","Fixation - short","","null","","","","","","","","","","","","",""
"","html-keyboard-response","378","412013","0.0-688.0","8frhzxqs","1920","1080","","","","","","","","","","","505","jsf","Diagnostic trial","","f","13","1","false","true","LEFT","f","1","","LEFT","true","","",""
"","html-keyboard-response","379","412764","0.0-691.0","8frhzxqs","1920","1080","","","","","","","","","","","null","+","Fixation - short","","null","","","","","","","","","","","","",""
"","html-keyboard-response","380","413181","0.0-692.0","8frhzxqs","1920","1080","","","","","","","","","","","417","jsf","Diagnostic trial","","f","13","2","false","true","LEFT","f","1","","LEFT","true","","",""
"","html-keyboard-response","381","413942","0.0-695.0","8frhzxqs","1920","1080","","","","","","","","","","","null","+","Fixation - short","","null","","","","","","","","","","","","",""
"","html-keyboard-response","382","414446","0.0-696.0","8frhzxqs","1920","1080","","","","","","","","","","","504","saj","Diagnostic trial","","f","13","3","false","true","LEFT","f","1","","RIGHT","false","","",""
"","html-keyboard-response","383","415208","0.0-699.0","8frhzxqs","1920","1080","","","","","","","","","","","null","+","Fixation - short","","null","","","","","","","","","","","","",""
"","html-keyboard-response","384","415734","0.0-700.0","8frhzxqs","1920","1080","","","","","","","","","","","525","saj","Diagnostic trial","","j","13","4","false","false","RIGHT","j","1","","RIGHT","true","","",""
"","html-keyboard-response","385","416485","0.0-703.0","8frhzxqs","1920","1080","","","","","","","","","","","null","+","Fixation - short","","null","","","","","","","","","","","","",""
"","html-keyboard-response","386","416910","0.0-704.0","8frhzxqs","1920","1080","","","","","","","","","","","425","saj","Diagnostic trial","","j","13","5","false","false","RIGHT","j","1","","RIGHT","true","","",""
"","html-keyboard-response","387","417660","0.0-707.0","8frhzxqs","1920","1080","","","","","","","","","","","null","+","Fixation - short","","null","","","","","","","","","","","","",""
"","html-keyboard-response","388","418182","0.0-708.0","8frhzxqs","1920","1080","","","","","","","","","","","522","saj","Diagnostic trial","","f","13","6","false","true","LEFT","f","1","","RIGHT","false","","",""
"","html-keyboard-response","389","418942","0.0-711.0","8frhzxqs","1920","1080","","","","","","","","","","","null","+","Fixation - short","","null","","","","","","","","","","","","",""
"","html-keyboard-response","390","419710","0.0-712.0","8frhzxqs","1920","1080","","","","","","","","","","","768","jsf","Diagnostic trial","","j","13","7","false","false","RIGHT","j","1","","LEFT","false","","",""
"","html-keyboard-response","391","420462","0.0-715.0","8frhzxqs","1920","1080","","","","","","","","","","","null","+","Fixation - short","","null","","","","","","","","","","","","",""
"","html-keyboard-response","392","421014","0.0-716.0","8frhzxqs","1920","1080","","","","","","","","","","","552","saj","Diagnostic trial","","j","13","8","false","false","RIGHT","j","1","","RIGHT","true","","",""
"","html-keyboard-response","393","421775","0.0-719.0","8frhzxqs","1920","1080","","","","","","","","","","","null","+","Fixation - short","","null","","","","","","","","","","","","",""
"","html-keyboard-response","394","422430","0.0-720.0","8frhzxqs","1920","1080","","","","","","","","","","","654","saj","Diagnostic trial","","f","13","9","false","true","LEFT","f","1","","RIGHT","false","","",""
"","html-keyboard-response","395","423191","0.0-723.0","8frhzxqs","1920","1080","","","","","","","","","","","null","+","Fixation - short","","null","","","","","","","","","","","","",""
"","html-keyboard-response","396","423670","0.0-724.0","8frhzxqs","1920","1080","","","","","","","","","","","479","jsf","Diagnostic trial","","f","13","10","false","true","LEFT","f","1","","LEFT","true","","",""
"","html-keyboard-response","397","424420","0.0-727.0","8frhzxqs","1920","1080","","","","","","","","","","","null","+","Fixation - short","","null","","","","","","","","","","","","",""
"","html-keyboard-response","398","424862","0.0-728.0","8frhzxqs","1920","1080","","","","","","","","","","","441","jsf","Diagnostic trial","","f","13","11","false","true","LEFT","f","1","","LEFT","true","","",""
"","html-keyboard-response","399","425624","0.0-731.0","8frhzxqs","1920","1080","","","","","","","","","","","null","+","Fixation - short","","null","","","","","","","","","","","","",""
"","html-keyboard-response","400","426190","0.0-732.0","8frhzxqs","1920","1080","","","","","","","","","","","565","jsf","Diagnostic trial","","j","13","12","false","false","RIGHT","j","1","","LEFT","false","","",""
"","html-keyboard-response","401","426941","0.0-735.0","8frhzxqs","1920","1080","","","","","","","","","","","null","+","Fixation - short","","null","","","","","","","","","","","","",""
"","html-keyboard-response","402","427462","0.0-736.0","8frhzxqs","1920","1080","","","","","","","","","","","521","jsf","Diagnostic trial","","f","13","13","false","true","LEFT","f","1","","LEFT","true","","",""
"","html-keyboard-response","403","428225","0.0-739.0","8frhzxqs","1920","1080","","","","","","","","","","","null","+","Fixation - short","","null","","","","","","","","","","","","",""
"","html-keyboard-response","404","428742","0.0-740.0","8frhzxqs","1920","1080","","","","","","","","","","","517","jsf","Diagnostic trial","","f","13","14","false","true","LEFT","f","1","","LEFT","true","","",""
"","html-keyboard-response","405","429495","0.0-743.0","8frhzxqs","1920","1080","","","","","","","","","","","null","+","Fixation - short","","null","","","","","","","","","","","","",""
"","html-keyboard-response","406","430094","0.0-744.0","8frhzxqs","1920","1080","","","","","","","","","","","598","jsf","Diagnostic trial","","j","13","15","false","false","RIGHT","j","1","","LEFT","false","","",""
"","html-keyboard-response","407","430858","0.0-747.0","8frhzxqs","1920","1080","","","","","","","","","","","null","+","Fixation - short","","null","","","","","","","","","","","","",""
"","html-keyboard-response","408","431390","0.0-748.0","8frhzxqs","1920","1080","","","","","","","","","","","532","jsf","Inducer trial","","f","13","","true","","","f","1","LEFT","","","","",""
"","html-keyboard-response","409","432891","0.0-751.0","8frhzxqs","1920","1080","","","","","","","","","","","null","+","Fixation - long","","null","","","","","","","","","","","","",""
"","html-keyboard-response","410","434998","0.0-752.0","8frhzxqs","1920","1080","","","","","","","","","","","2106","If jcr press LEFT | If rif press RIGHT","Inducer instructions",""," ","14","","","","","","","","","","","",""
"","html-keyboard-response","411","435754","0.0-753.0","8frhzxqs","1920","1080","","","","","","","","","","","null","+","Fixation - short","","null","","","","","","","","","","","","",""
"","html-keyboard-response","412","436294","0.0-754.0","8frhzxqs","1920","1080","","","","","","","","","","","540","rif","Diagnostic trial","","j","14","0","false","false","RIGHT","j","1","","RIGHT","true","","",""
"","html-keyboard-response","413","437055","0.0-757.0","8frhzxqs","1920","1080","","","","","","","","","","","null","+","Fixation - short","","null","","","","","","","","","","","","",""
"","html-keyboard-response","414","437446","0.0-758.0","8frhzxqs","1920","1080","","","","","","","","","","","390","jcr","Diagnostic trial","","j","14","1","false","false","RIGHT","j","1","","LEFT","false","","",""
"","html-keyboard-response","415","438201","0.0-761.0","8frhzxqs","1920","1080","","","","","","","","","","","null","+","Fixation - short","","null","","","","","","","","","","","","",""
"","html-keyboard-response","416","438678","0.0-762.0","8frhzxqs","1920","1080","","","","","","","","","","","476","rif","Diagnostic trial","","f","14","2","false","true","LEFT","f","1","","RIGHT","false","","",""
"","html-keyboard-response","417","439441","0.0-765.0","8frhzxqs","1920","1080","","","","","","","","","","","null","+","Fixation - short","","null","","","","","","","","","","","","",""
"","html-keyboard-response","418","440102","0.0-766.0","8frhzxqs","1920","1080","","","","","","","","","","","661","jcr","Diagnostic trial","","j","14","3","false","false","RIGHT","j","1","","LEFT","false","","",""
"","html-keyboard-response","419","440853","0.0-769.0","8frhzxqs","1920","1080","","","","","","","","","","","null","+","Fixation - short","","null","","","","","","","","","","","","",""
"","html-keyboard-response","420","441358","0.0-770.0","8frhzxqs","1920","1080","","","","","","","","","","","504","rif","Diagnostic trial","","f","14","4","false","true","LEFT","f","1","","RIGHT","false","","",""
"","html-keyboard-response","421","442121","0.0-773.0","8frhzxqs","1920","1080","","","","","","","","","","","null","+","Fixation - short","","null","","","","","","","","","","","","",""
"","html-keyboard-response","422","442494","0.0-774.0","8frhzxqs","1920","1080","","","","","","","","","","","373","rif","Diagnostic trial","","f","14","5","false","true","LEFT","f","1","","RIGHT","false","","",""
"","html-keyboard-response","423","443246","0.0-777.0","8frhzxqs","1920","1080","","","","","","","","","","","null","+","Fixation - short","","null","","","","","","","","","","","","",""
"","html-keyboard-response","424","443758","0.0-778.0","8frhzxqs","1920","1080","","","","","","","","","","","512","rif","Diagnostic trial","","j","14","6","false","false","RIGHT","j","1","","RIGHT","true","","",""
"","html-keyboard-response","425","444510","0.0-781.0","8frhzxqs","1920","1080","","","","","","","","","","","null","+","Fixation - short","","null","","","","","","","","","","","","",""
"","html-keyboard-response","426","445030","0.0-782.0","8frhzxqs","1920","1080","","","","","","","","","","","520","rif","Diagnostic trial","","f","14","7","false","true","LEFT","f","1","","RIGHT","false","","",""
"","html-keyboard-response","427","445781","0.0-785.0","8frhzxqs","1920","1080","","","","","","","","","","","null","+","Fixation - short","","null","","","","","","","","","","","","",""
"","html-keyboard-response","428","446318","0.0-786.0","8frhzxqs","1920","1080","","","","","","","","","","","537","jcr","Diagnostic trial","","f","14","8","false","true","LEFT","f","1","","LEFT","true","","",""
"","html-keyboard-response","429","447075","0.0-789.0","8frhzxqs","1920","1080","","","","","","","","","","","null","+","Fixation - short","","null","","","","","","","","","","","","",""
"","html-keyboard-response","430","447670","0.0-790.0","8frhzxqs","1920","1080","","","","","","","","","","","595","rif","Inducer trial","","j","14","","true","","","j","1","RIGHT","","","","",""
"","html-keyboard-response","431","449174","0.0-793.0","8frhzxqs","1920","1080","","","","","","","","","","","null","+","Fixation - long","","null","","","","","","","","","","","","",""
"","html-keyboard-response","432","450510","0.0-794.0","8frhzxqs","1920","1080","","","","","","","","","","","1336","If pcm press LEFT | If ori press RIGHT","Inducer instructions",""," ","15","","","","","","","","","","","",""
"","html-keyboard-response","433","451265","0.0-795.0","8frhzxqs","1920","1080","","","","","","","","","","","null","+","Fixation - short","","null","","","","","","","","","","","","",""
"","html-keyboard-response","434","451846","0.0-796.0","8frhzxqs","1920","1080","","","","","","","","","","","581","ori","Diagnostic trial","","f","15","0","false","true","LEFT","f","1","","RIGHT","false","","",""
"","html-keyboard-response","435","452608","0.0-799.0","8frhzxqs","1920","1080","","","","","","","","","","","null","+","Fixation - short","","null","","","","","","","","","","","","",""
"","html-keyboard-response","436","452959","0.0-800.0","8frhzxqs","1920","1080","","","","","","","","","","","351","pcm","Diagnostic trial","","f","15","1","false","true","LEFT","f","1","","LEFT","true","","",""
"","html-keyboard-response","437","453710","0.0-803.0","8frhzxqs","1920","1080","","","","","","","","","","","null","+","Fixation - short","","null","","","","","","","","","","","","",""
"","html-keyboard-response","438","454326","0.0-804.0","8frhzxqs","1920","1080","","","","","","","","","","","616","pcm","Diagnostic trial","","j","15","2","false","false","RIGHT","j","1","","LEFT","false","","",""
"","html-keyboard-response","439","455090","0.0-807.0","8frhzxqs","1920","1080","","","","","","","","","","","null","+","Fixation - short","","null","","","","","","","","","","","","",""
"","html-keyboard-response","440","455582","0.0-808.0","8frhzxqs","1920","1080","","","","","","","","","","","492","ori","Diagnostic trial","","j","15","3","false","false","RIGHT","j","1","","RIGHT","true","","",""
"","html-keyboard-response","441","456341","0.0-811.0","8frhzxqs","1920","1080","","","","","","","","","","","null","+","Fixation - short","","null","","","","","","","","","","","","",""
"","html-keyboard-response","442","456943","0.0-812.0","8frhzxqs","1920","1080","","","","","","","","","","","601","pcm","Diagnostic trial","","j","15","4","false","false","RIGHT","j","1","","LEFT","false","","",""
"","html-keyboard-response","443","457694","0.0-815.0","8frhzxqs","1920","1080","","","","","","","","","","","null","+","Fixation - short","","null","","","","","","","","","","","","",""
"","html-keyboard-response","444","458262","0.0-816.0","8frhzxqs","1920","1080","","","","","","","","","","","568","ori","Diagnostic trial","","f","15","5","false","true","LEFT","f","1","","RIGHT","false","","",""
"","html-keyboard-response","445","459024","0.0-819.0","8frhzxqs","1920","1080","","","","","","","","","","","null","+","Fixation - short","","null","","","","","","","","","","","","",""
"","html-keyboard-response","446","459422","0.0-820.0","8frhzxqs","1920","1080","","","","","","","","","","","398","pcm","Diagnostic trial","","f","15","6","false","true","LEFT","f","1","","LEFT","true","","",""
"","html-keyboard-response","447","460174","0.0-823.0","8frhzxqs","1920","1080","","","","","","","","","","","null","+","Fixation - short","","null","","","","","","","","","","","","",""
"","html-keyboard-response","448","460839","0.0-824.0","8frhzxqs","1920","1080","","","","","","","","","","","664","ori","Diagnostic trial","","f","15","7","false","true","LEFT","f","1","","RIGHT","false","","",""
"","html-keyboard-response","449","461593","0.0-827.0","8frhzxqs","1920","1080","","","","","","","","","","","null","+","Fixation - short","","null","","","","","","","","","","","","",""
"","html-keyboard-response","450","462191","0.0-828.0","8frhzxqs","1920","1080","","","","","","","","","","","597","pcm","Diagnostic trial","","j","15","8","false","false","RIGHT","j","1","","LEFT","false","","",""
"","html-keyboard-response","451","462947","0.0-831.0","8frhzxqs","1920","1080","","","","","","","","","","","null","+","Fixation - short","","null","","","","","","","","","","","","",""
"","html-keyboard-response","452","463431","0.0-832.0","8frhzxqs","1920","1080","","","","","","","","","","","484","pcm","Inducer trial","","f","15","","true","","","f","1","LEFT","","","","",""
"","html-keyboard-response","453","464941","0.0-835.0","8frhzxqs","1920","1080","","","","","","","","","","","null","+","Fixation - long","","null","","","","","","","","","","","","",""
"","html-keyboard-response","454","466631","0.0-836.0","8frhzxqs","1920","1080","","","","","","","","","","","1689","If idy press LEFT | If yoy press RIGHT","Inducer instructions",""," ","16","","","","","","","","","","","",""
"","html-keyboard-response","455","467391","0.0-837.0","8frhzxqs","1920","1080","","","","","","","","","","","null","+","Fixation - short","","null","","","","","","","","","","","","",""
"","html-keyboard-response","456","467967","0.0-838.0","8frhzxqs","1920","1080","","","","","","","","","","","576","yoy","Diagnostic trial","","f","16","0","false","true","LEFT","f","1","","RIGHT","false","","",""
"","html-keyboard-response","457","468724","0.0-841.0","8frhzxqs","1920","1080","","","","","","","","","","","null","+","Fixation - short","","null","","","","","","","","","","","","",""
"","html-keyboard-response","458","469103","0.0-842.0","8frhzxqs","1920","1080","","","","","","","","","","","378","idy","Diagnostic trial","","f","16","1","false","true","LEFT","f","1","","LEFT","true","","",""
"","html-keyboard-response","459","469857","0.0-845.0","8frhzxqs","1920","1080","","","","","","","","","","","null","+","Fixation - short","","null","","","","","","","","","","","","",""
"","html-keyboard-response","460","470216","0.0-846.0","8frhzxqs","1920","1080","","","","","","","","","","","358","yoy","Diagnostic trial","","j","16","2","false","false","RIGHT","j","1","","RIGHT","true","","",""
"","html-keyboard-response","461","470972","0.0-849.0","8frhzxqs","1920","1080","","","","","","","","","","","null","+","Fixation - short","","null","","","","","","","","","","","","",""
"","html-keyboard-response","462","471351","0.0-850.0","8frhzxqs","1920","1080","","","","","","","","","","","379","yoy","Diagnostic trial","","j","16","3","false","false","RIGHT","j","1","","RIGHT","true","","",""
"","html-keyboard-response","463","472105","0.0-853.0","8frhzxqs","1920","1080","","","","","","","","","","","null","+","Fixation - short","","null","","","","","","","","","","","","",""
"","html-keyboard-response","464","472543","0.0-854.0","8frhzxqs","1920","1080","","","","","","","","","","","438","idy","Diagnostic trial","","f","16","4","false","true","LEFT","f","1","","LEFT","true","","",""
"","html-keyboard-response","465","473297","0.0-857.0","8frhzxqs","1920","1080","","","","","","","","","","","null","+","Fixation - short","","null","","","","","","","","","","","","",""
"","html-keyboard-response","466","473983","0.0-858.0","8frhzxqs","1920","1080","","","","","","","","","","","686","idy","Diagnostic trial","","j","16","5","false","false","RIGHT","j","1","","LEFT","false","","",""
"","html-keyboard-response","467","474734","0.0-861.0","8frhzxqs","1920","1080","","","","","","","","","","","null","+","Fixation - short","","null","","","","","","","","","","","","",""
"","html-keyboard-response","468","475175","0.0-862.0","8frhzxqs","1920","1080","","","","","","","","","","","441","yoy","Diagnostic trial","","j","16","6","false","false","RIGHT","j","1","","RIGHT","true","","",""
"","html-keyboard-response","469","475926","0.0-865.0","8frhzxqs","1920","1080","","","","","","","","","","","null","+","Fixation - short","","null","","","","","","","","","","","","",""
"","html-keyboard-response","470","476463","0.0-866.0","8frhzxqs","1920","1080","","","","","","","","","","","537","idy","Diagnostic trial","","f","16","7","false","true","LEFT","f","1","","LEFT","true","","",""
"","html-keyboard-response","471","477224","0.0-869.0","8frhzxqs","1920","1080","","","","","","","","","","","null","+","Fixation - short","","null","","","","","","","","","","","","",""
"","html-keyboard-response","472","477959","0.0-870.0","8frhzxqs","1920","1080","","","","","","","","","","","735","yoy","Diagnostic trial","","f","16","8","false","true","LEFT","f","1","","RIGHT","false","","",""
"","html-keyboard-response","473","478714","0.0-873.0","8frhzxqs","1920","1080","","","","","","","","","","","null","+","Fixation - short","","null","","","","","","","","","","","","",""
"","html-keyboard-response","474","479135","0.0-874.0","8frhzxqs","1920","1080","","","","","","","","","","","421","idy","Diagnostic trial","","f","16","9","false","true","LEFT","f","1","","LEFT","true","","",""
"","html-keyboard-response","475","479891","0.0-877.0","8frhzxqs","1920","1080","","","","","","","","","","","null","+","Fixation - short","","null","","","","","","","","","","","","",""
"","html-keyboard-response","476","480975","0.0-878.0","8frhzxqs","1920","1080","","","","","","","","","","","1084","idy","Inducer trial","","f","16","","true","","","f","1","LEFT","","","","",""
"","html-keyboard-response","477","482482","0.0-881.0","8frhzxqs","1920","1080","","","","","","","","","","","null","+","Fixation - long","","null","","","","","","","","","","","","",""
"","html-keyboard-response","478","484567","0.0-882.0","8frhzxqs","1920","1080","","","","","","","","","","","2085","If uus press LEFT | If mmo press RIGHT","Inducer instructions",""," ","17","","","","","","","","","","","",""
"","html-keyboard-response","479","485320","0.0-883.0","8frhzxqs","1920","1080","","","","","","","","","","","null","+","Fixation - short","","null","","","","","","","","","","","","",""
"","html-keyboard-response","480","485743","0.0-884.0","8frhzxqs","1920","1080","","","","","","","","","","","423","mmo","Diagnostic trial","","j","17","0","false","false","RIGHT","j","1","","RIGHT","true","","",""
"","html-keyboard-response","481","486501","0.0-887.0","8frhzxqs","1920","1080","","","","","","","","","","","null","+","Fixation - short","","null","","","","","","","","","","","","",""
"","html-keyboard-response","482","486927","0.0-888.0","8frhzxqs","1920","1080","","","","","","","","","","","426","mmo","Diagnostic trial","","f","17","1","false","true","LEFT","f","1","","RIGHT","false","","",""
"","html-keyboard-response","483","487681","0.0-891.0","8frhzxqs","1920","1080","","","","","","","","","","","null","+","Fixation - short","","null","","","","","","","","","","","","",""
"","html-keyboard-response","484","488151","0.0-892.0","8frhzxqs","1920","1080","","","","","","","","","","","470","mmo","Diagnostic trial","","j","17","2","false","false","RIGHT","j","1","","RIGHT","true","","",""
"","html-keyboard-response","485","488906","0.0-895.0","8frhzxqs","1920","1080","","","","","","","","","","","null","+","Fixation - short","","null","","","","","","","","","","","","",""
"","html-keyboard-response","486","489271","0.0-896.0","8frhzxqs","1920","1080","","","","","","","","","","","365","mmo","Diagnostic trial","","j","17","3","false","true","LEFT","f","0","","RIGHT","false","","",""
"","call-function","487","489272","0.0-898.0-0.0","8frhzxqs","","","","","","","","","","","","","","","","","","","","","","","","","","","","","",""
"","html-keyboard-response","488","489573","0.0-898.0-1.0","8frhzxqs","1920","1080","","","","","","","","","","","null","Wrong","Feedback","","null","","","","","","","","","","","","",""
"","call-function","489","489573","0.0-898.0-2.0","8frhzxqs","","","","","","","","","","","","","","","","","","","","","","","","","","","","","",""
"","html-keyboard-response","490","490324","0.0-899.0","8frhzxqs","1920","1080","","","","","","","","","","","null","+","Fixation - short","","null","","","","","","","","","","","","",""
"","html-keyboard-response","491","490743","0.0-900.0","8frhzxqs","1920","1080","","","","","","","","","","","419","mmo","Diagnostic trial","","j","17","4","false","false","RIGHT","j","1","","RIGHT","true","","",""
"","html-keyboard-response","492","491507","0.0-903.0","8frhzxqs","1920","1080","","","","","","","","","","","null","+","Fixation - short","","null","","","","","","","","","","","","",""
"","html-keyboard-response","493","491935","0.0-904.0","8frhzxqs","1920","1080","","","","","","","","","","","428","mmo","Diagnostic trial","","f","17","5","false","true","LEFT","f","1","","RIGHT","false","","",""
"","html-keyboard-response","494","492690","0.0-907.0","8frhzxqs","1920","1080","","","","","","","","","","","null","+","Fixation - short","","null","","","","","","","","","","","","",""
