"value","trial_type","trial_index","time_elapsed","internal_node_id","id","width","height","webaudio","browser","browser_version","mobile","os","fullscreen","vsync_rate","webcam","microphone","view_history","rt","stimulus","trial_info","success","response","inducer_run","diagnostic_run","inducer_trial","italic","correct_diag_response_side","correct_response_key","correct_response","correct_indu_response_side","correct_inducer_response_side","congruent","accuracy","open_feedback","interactive"
"","call-function","0","2","0.0-0.0","77hzvosf","","","","","","","","","","","","","","","","","","","","","","","","","","","","","",""
"","browser-check","1","16606","0.0-1.0","77hzvosf","1920","911","true","chrome","121.0.0","false","Windows 10","true","3.61","true","true","","","","","","","","","","","","","","","","","","",""
"","instructions","2","35760","0.0-2.0","77hzvosf","","","","","","","","","","","","[{""page_index"":0,""viewing_time"":4866},{""page_index"":1,""viewing_time"":11056},{""page_index"":2,""viewing_time"":3232}]","19154","The experiment and consent","The experiment and consent","","","","","","","","","","","","","","",""
"","fullscreen","3","41593","0.0-3.0","77hzvosf","1920","1080","","","","","","","","","","","4826","","Full screen","true","","","","","","","","","","","","","",""
"","instructions","4","76500","0.0-4.0","77hzvosf","1920","1080","","","","","","","","","","[{""page_index"":0,""viewing_time"":16341},{""page_index"":1,""viewing_time"":18565}]","34906","Instructions","Basic overview explanation","","","","","","","","","","","","","","",""
"","html-keyboard-response","5","85501","0.0-5.0","77hzvosf","1920","1080","","","","","","","","","","","7495","If italic press LEFT | If upright press RIGHT","Diagnostic instructions",""," ","","","","","","","","","","","","",""
"","html-keyboard-response","6","86263","0.0-6.0","77hzvosf","1920","1080","","","","","","","","","","","null","+","Fixation - short","","null","","","","","","","","","","","","",""
"","html-keyboard-response","7","86978","0.0-7.0","77hzvosf","1920","1080","","","","","","","","","","","715","mik","Practice diganostic trial","","j","practice","0","false","0","RIGHT","j","1","","","","","",""
"","html-keyboard-response","8","87732","0.0-10.0","77hzvosf","1920","1080","","","","","","","","","","","null","+","Fixation - short","","null","","","","","","","","","","","","",""
"","html-keyboard-response","9","88189","0.0-11.0","77hzvosf","1920","1080","","","","","","","","","","","457","mik","Practice diganostic trial","","j","practice","1","false","0","RIGHT","j","1","","","","","",""
"","html-keyboard-response","10","88955","0.0-14.0","77hzvosf","1920","1080","","","","","","","","","","","null","+","Fixation - short","","null","","","","","","","","","","","","",""
"","html-keyboard-response","11","89352","0.0-15.0","77hzvosf","1920","1080","","","","","","","","","","","396","mik","Practice diganostic trial","","j","practice","2","false","0","RIGHT","j","1","","","","","",""
"","html-keyboard-response","12","90119","0.0-18.0","77hzvosf","1920","1080","","","","","","","","","","","null","+","Fixation - short","","null","","","","","","","","","","","","",""
"","html-keyboard-response","13","90551","0.0-19.0","77hzvosf","1920","1080","","","","","","","","","","","431","mik","Practice diganostic trial","","f","practice","3","false","1","LEFT","f","1","","","","","",""
"","html-keyboard-response","14","91314","0.0-22.0","77hzvosf","1920","1080","","","","","","","","","","","null","+","Fixation - short","","null","","","","","","","","","","","","",""
"","html-keyboard-response","15","91863","0.0-23.0","77hzvosf","1920","1080","","","","","","","","","","","548","amb","Practice diganostic trial","","f","practice","4","false","1","LEFT","f","1","","","","","",""
"","html-keyboard-response","16","92614","0.0-26.0","77hzvosf","1920","1080","","","","","","","","","","","null","+","Fixation - short","","null","","","","","","","","","","","","",""
"","html-keyboard-response","17","92994","0.0-27.0","77hzvosf","1920","1080","","","","","","","","","","","379","mik","Practice diganostic trial","","f","practice","5","false","1","LEFT","f","1","","","","","",""
"","html-keyboard-response","18","93753","0.0-30.0","77hzvosf","1920","1080","","","","","","","","","","","null","+","Fixation - short","","null","","","","","","","","","","","","",""
"","html-keyboard-response","19","94254","0.0-31.0","77hzvosf","1920","1080","","","","","","","","","","","501","mik","Practice diganostic trial","","f","practice","6","false","1","LEFT","f","1","","","","","",""
"","html-keyboard-response","20","95012","0.0-34.0","77hzvosf","1920","1080","","","","","","","","","","","null","+","Fixation - short","","null","","","","","","","","","","","","",""
"","html-keyboard-response","21","95427","0.0-35.0","77hzvosf","1920","1080","","","","","","","","","","","415","mik","Practice diganostic trial","","j","practice","7","false","0","RIGHT","j","1","","","","","",""
"","html-keyboard-response","22","96179","0.0-38.0","77hzvosf","1920","1080","","","","","","","","","","","null","+","Fixation - short","","null","","","","","","","","","","","","",""
"","html-keyboard-response","23","96567","0.0-39.0","77hzvosf","1920","1080","","","","","","","","","","","387","amb","Practice diganostic trial","","j","practice","8","false","0","RIGHT","j","1","","","","","",""
"","html-keyboard-response","24","97325","0.0-42.0","77hzvosf","1920","1080","","","","","","","","","","","null","+","Fixation - short","","null","","","","","","","","","","","","",""
"","html-keyboard-response","25","97713","0.0-43.0","77hzvosf","1920","1080","","","","","","","","","","","387","amb","Practice diganostic trial","","j","practice","9","false","1","LEFT","f","0","","","","","",""
"","call-function","26","97713","0.0-45.0-0.0","77hzvosf","","","","","","","","","","","","","","","","","","","","","","","","","","","","","",""
"","html-keyboard-response","27","98019","0.0-45.0-1.0","77hzvosf","1920","1080","","","","","","","","","","","null","Wrong","Feedback","","null","","","","","","","","","","","","",""
"","call-function","28","98020","0.0-45.0-2.0","77hzvosf","","","","","","","","","","","","","","","","","","","","","","","","","","","","","",""
"","html-keyboard-response","29","98787","0.0-46.0","77hzvosf","1920","1080","","","","","","","","","","","null","+","Fixation - short","","null","","","","","","","","","","","","",""
"","html-keyboard-response","30","99269","0.0-47.0","77hzvosf","1920","1080","","","","","","","","","","","481","mik","Practice diganostic trial","","j","practice","10","false","0","RIGHT","j","1","","","","","",""
"","html-keyboard-response","31","100022","0.0-50.0","77hzvosf","1920","1080","","","","","","","","","","","null","+","Fixation - short","","null","","","","","","","","","","","","",""
"","html-keyboard-response","32","100237","0.0-51.0","77hzvosf","1920","1080","","","","","","","","","","","215","amb","Practice diganostic trial","","j","practice","11","false","1","LEFT","f","0","","","","","",""
"","call-function","33","100237","0.0-53.0-0.0","77hzvosf","","","","","","","","","","","","","","","","","","","","","","","","","","","","","",""
"","html-keyboard-response","34","100549","0.0-53.0-1.0","77hzvosf","1920","1080","","","","","","","","","","","null","Wrong","Feedback","","null","","","","","","","","","","","","",""
"","call-function","35","100550","0.0-53.0-2.0","77hzvosf","","","","","","","","","","","","","","","","","","","","","","","","","","","","","",""
"","html-keyboard-response","36","101306","0.0-54.0","77hzvosf","1920","1080","","","","","","","","","","","null","+","Fixation - short","","null","","","","","","","","","","","","",""
"","html-keyboard-response","37","102159","0.0-55.0","77hzvosf","1920","1080","","","","","","","","","","","852","mik","Practice diganostic trial","","j","practice","12","false","0","RIGHT","j","1","","","","","",""
"","html-keyboard-response","38","102918","0.0-58.0","77hzvosf","1920","1080","","","","","","","","","","","null","+","Fixation - short","","null","","","","","","","","","","","","",""
"","html-keyboard-response","39","103300","0.0-59.0","77hzvosf","1920","1080","","","","","","","","","","","382","amb","Practice diganostic trial","","f","practice","13","false","1","LEFT","f","1","","","","","",""
"","html-keyboard-response","40","104054","0.0-62.0","77hzvosf","1920","1080","","","","","","","","","","","null","+","Fixation - short","","null","","","","","","","","","","","","",""
"","html-keyboard-response","41","104426","0.0-63.0","77hzvosf","1920","1080","","","","","","","","","","","372","mik","Practice diganostic trial","","f","practice","14","false","1","LEFT","f","1","","","","","",""
"","html-keyboard-response","42","105180","0.0-66.0","77hzvosf","1920","1080","","","","","","","","","","","null","+","Fixation - short","","null","","","","","","","","","","","","",""
"","html-keyboard-response","43","105406","0.0-67.0","77hzvosf","1920","1080","","","","","","","","","","","225","mik","Practice diganostic trial","","f","practice","15","false","0","RIGHT","j","0","","","","","",""
"","call-function","44","105406","0.0-69.0-0.0","77hzvosf","","","","","","","","","","","","","","","","","","","","","","","","","","","","","",""
"","html-keyboard-response","45","105715","0.0-69.0-1.0","77hzvosf","1920","1080","","","","","","","","","","","null","Wrong","Feedback","","null","","","","","","","","","","","","",""
"","call-function","46","105716","0.0-69.0-2.0","77hzvosf","","","","","","","","","","","","","","","","","","","","","","","","","","","","","",""
"","html-keyboard-response","47","106476","0.0-70.0","77hzvosf","1920","1080","","","","","","","","","","","null","+","Fixation - short","","null","","","","","","","","","","","","",""
"","instructions","48","119285","0.0-71.0","77hzvosf","1920","1080","","","","","","","","","","[{""page_index"":0,""viewing_time"":12808}]","12808","Instructions","Final experiment explanation","","","","","","","","","","","","","","",""
"","html-keyboard-response","49","131571","0.0-72.0","77hzvosf","1920","1080","","","","","","","","","","","10781","If vpu press LEFT | If flh press RIGHT","Practice inducer instructions",""," ","practice","","","","","","","","","","","",""
"","html-keyboard-response","50","132486","0.0-73.0","77hzvosf","1920","1080","","","","","","","","","","","914","","Practice inducer trial","","j","practice","","true","","","j","1","RIGHT","","","","",""
"","html-keyboard-response","51","133245","0.0-76.0","77hzvosf","1920","1080","","","","","","","","","","","null","+","Fixation - short","","null","","","","","","","","","","","","",""
"","html-keyboard-response","52","140218","0.0-77.0","77hzvosf","1920","1080","","","","","","","","","","","6973","If kmh press LEFT | If uen press RIGHT","Practice inducer instructions",""," ","practice","","","","","","","","","","","",""
"","html-keyboard-response","53","141570","0.0-78.0","77hzvosf","1920","1080","","","","","","","","","","","1351","","Practice inducer trial","","f","practice","","true","","","f","1","LEFT","","","","",""
"","html-keyboard-response","54","142325","0.0-81.0","77hzvosf","1920","1080","","","","","","","","","","","null","+","Fixation - short","","null","","","","","","","","","","","","",""
"","html-keyboard-response","55","145530","0.0-82.0","77hzvosf","1920","1080","","","","","","","","","","","3205","If swr press LEFT | If idy press RIGHT","Practice inducer instructions",""," ","practice","","","","","","","","","","","",""
"","html-keyboard-response","56","146131","0.0-83.0","77hzvosf","1920","1080","","","","","","","","","","","600","","Practice inducer trial","","f","practice","","true","","","f","1","LEFT","","","","",""
"","html-keyboard-response","57","146897","0.0-86.0","77hzvosf","1920","1080","","","","","","","","","","","null","+","Fixation - short","","null","","","","","","","","","","","","",""
"","html-keyboard-response","58","148979","0.0-87.0","77hzvosf","1920","1080","","","","","","","","","","","2081","If jil press LEFT | If kue press RIGHT","Practice inducer instructions",""," ","practice","","","","","","","","","","","",""
"","html-keyboard-response","59","149750","0.0-88.0","77hzvosf","1920","1080","","","","","","","","","","","771","","Practice inducer trial","","j","practice","","true","","","j","1","RIGHT","","","","",""
"","html-keyboard-response","60","150512","0.0-91.0","77hzvosf","1920","1080","","","","","","","","","","","null","+","Fixation - short","","null","","","","","","","","","","","","",""
"","html-keyboard-response","61","152201","0.0-92.0","77hzvosf","1920","1080","","","","","","","","","","","1688","If vnn press LEFT | If vrm press RIGHT","Practice inducer instructions",""," ","practice","","","","","","","","","","","",""
"","html-keyboard-response","62","152904","0.0-93.0","77hzvosf","1920","1080","","","","","","","","","","","702","","Practice inducer trial","","f","practice","","true","","","f","1","LEFT","","","","",""
"","html-keyboard-response","63","153663","0.0-96.0","77hzvosf","1920","1080","","","","","","","","","","","null","+","Fixation - short","","null","","","","","","","","","","","","",""
"","html-keyboard-response","64","155090","0.0-97.0","77hzvosf","1920","1080","","","","","","","","","","","1426","If edc press LEFT | If slu press RIGHT","Practice inducer instructions",""," ","practice","","","","","","","","","","","",""
"","html-keyboard-response","65","155656","0.0-98.0","77hzvosf","1920","1080","","","","","","","","","","","566","","Practice inducer trial","","j","practice","","true","","","j","1","RIGHT","","","","",""
"","html-keyboard-response","66","156410","0.0-101.0","77hzvosf","1920","1080","","","","","","","","","","","null","+","Fixation - short","","null","","","","","","","","","","","","",""
"","html-keyboard-response","67","165071","0.0-102.0","77hzvosf","1920","1080","","","","","","","","","","","8660","End practice","End of practice",""," ","","","","","","","","","","","","",""
"","html-keyboard-response","68","166584","0.0-103.0","77hzvosf","1920","1080","","","","","","","","","","","null","+","Fixation - long","","null","","","","","","","","","","","","",""
"","html-keyboard-response","69","169057","0.0-104.0","77hzvosf","1920","1080","","","","","","","","","","","2472","If ndm press LEFT | If hrc press RIGHT","Inducer instructions",""," ","0","","","","","","","","","","","",""
"","html-keyboard-response","70","169811","0.0-105.0","77hzvosf","1920","1080","","","","","","","","","","","null","+","Fixation - short","","null","","","","","","","","","","","","",""
"","html-keyboard-response","71","170259","0.0-106.0","77hzvosf","1920","1080","","","","","","","","","","","447","ndm","Diagnostic trial","","f","0","0","false","false","RIGHT","j","0","","LEFT","false","","",""
"","call-function","72","170260","0.0-108.0-0.0","77hzvosf","","","","","","","","","","","","","","","","","","","","","","","","","","","","","",""
"","html-keyboard-response","73","170572","0.0-108.0-1.0","77hzvosf","1920","1080","","","","","","","","","","","null","Wrong","Feedback","","null","","","","","","","","","","","","",""
"","call-function","74","170572","0.0-108.0-2.0","77hzvosf","","","","","","","","","","","","","","","","","","","","","","","","","","","","","",""
"","html-keyboard-response","75","171328","0.0-109.0","77hzvosf","1920","1080","","","","","","","","","","","null","+","Fixation - short","","null","","","","","","","","","","","","",""
"","html-keyboard-response","76","173148","0.0-110.0","77hzvosf","1920","1080","","","","","","","","","","","1820","ndm","Diagnostic trial","","j","0","1","false","false","RIGHT","j","1","","LEFT","false","","",""
"","html-keyboard-response","77","173904","0.0-113.0","77hzvosf","1920","1080","","","","","","","","","","","null","+","Fixation - short","","null","","","","","","","","","","","","",""
"","html-keyboard-response","78","174451","0.0-114.0","77hzvosf","1920","1080","","","","","","","","","","","546","ndm","Diagnostic trial","","j","0","2","false","false","RIGHT","j","1","","LEFT","false","","",""
"","html-keyboard-response","79","175205","0.0-117.0","77hzvosf","1920","1080","","","","","","","","","","","null","+","Fixation - short","","null","","","","","","","","","","","","",""
"","html-keyboard-response","80","175697","0.0-118.0","77hzvosf","1920","1080","","","","","","","","","","","491","hrc","Diagnostic trial","","f","0","3","false","false","RIGHT","j","0","","RIGHT","true","","",""
"","call-function","81","175697","0.0-120.0-0.0","77hzvosf","","","","","","","","","","","","","","","","","","","","","","","","","","","","","",""
"","html-keyboard-response","82","176001","0.0-120.0-1.0","77hzvosf","1920","1080","","","","","","","","","","","null","Wrong","Feedback","","null","","","","","","","","","","","","",""
"","call-function","83","176001","0.0-120.0-2.0","77hzvosf","","","","","","","","","","","","","","","","","","","","","","","","","","","","","",""
"","html-keyboard-response","84","176755","0.0-121.0","77hzvosf","1920","1080","","","","","","","","","","","null","+","Fixation - short","","null","","","","","","","","","","","","",""
"","html-keyboard-response","85","177242","0.0-122.0","77hzvosf","1920","1080","","","","","","","","","","","487","hrc","Diagnostic trial","","j","0","4","false","true","LEFT","f","0","","RIGHT","false","","",""
"","call-function","86","177242","0.0-124.0-0.0","77hzvosf","","","","","","","","","","","","","","","","","","","","","","","","","","","","","",""
"","html-keyboard-response","87","177547","0.0-124.0-1.0","77hzvosf","1920","1080","","","","","","","","","","","null","Wrong","Feedback","","null","","","","","","","","","","","","",""
"","call-function","88","177548","0.0-124.0-2.0","77hzvosf","","","","","","","","","","","","","","","","","","","","","","","","","","","","","",""
"","html-keyboard-response","89","178304","0.0-125.0","77hzvosf","1920","1080","","","","","","","","","","","null","+","Fixation - short","","null","","","","","","","","","","","","",""
"","html-keyboard-response","90","178828","0.0-126.0","77hzvosf","1920","1080","","","","","","","","","","","524","hrc","Diagnostic trial","","j","0","5","false","false","RIGHT","j","1","","RIGHT","true","","",""
"","html-keyboard-response","91","179584","0.0-129.0","77hzvosf","1920","1080","","","","","","","","","","","null","+","Fixation - short","","null","","","","","","","","","","","","",""
"","html-keyboard-response","92","180087","0.0-130.0","77hzvosf","1920","1080","","","","","","","","","","","502","hrc","Diagnostic trial","","j","0","6","false","false","RIGHT","j","1","","RIGHT","true","","",""
"","html-keyboard-response","93","180848","0.0-133.0","77hzvosf","1920","1080","","","","","","","","","","","null","+","Fixation - short","","null","","","","","","","","","","","","",""
"","html-keyboard-response","94","181441","0.0-134.0","77hzvosf","1920","1080","","","","","","","","","","","593","ndm","Diagnostic trial","","j","0","7","false","false","RIGHT","j","1","","LEFT","false","","",""
"","html-keyboard-response","95","182197","0.0-137.0","77hzvosf","1920","1080","","","","","","","","","","","null","+","Fixation - short","","null","","","","","","","","","","","","",""
"","html-keyboard-response","96","183137","0.0-138.0","77hzvosf","1920","1080","","","","","","","","","","","939","hrc","Diagnostic trial","","f","0","8","false","true","LEFT","f","1","","RIGHT","false","","",""
"","html-keyboard-response","97","183894","0.0-141.0","77hzvosf","1920","1080","","","","","","","","","","","null","+","Fixation - short","","null","","","","","","","","","","","","",""
"","html-keyboard-response","98","184462","0.0-142.0","77hzvosf","1920","1080","","","","","","","","","","","567","ndm","Diagnostic trial","","j","0","9","false","false","RIGHT","j","1","","LEFT","false","","",""
"","html-keyboard-response","99","185227","0.0-145.0","77hzvosf","1920","1080","","","","","","","","","","","null","+","Fixation - short","","null","","","","","","","","","","","","",""
"","html-keyboard-response","100","185720","0.0-146.0","77hzvosf","1920","1080","","","","","","","","","","","492","hrc","Diagnostic trial","","j","0","10","false","false","RIGHT","j","1","","RIGHT","true","","",""
"","html-keyboard-response","101","186476","0.0-149.0","77hzvosf","1920","1080","","","","","","","","","","","null","+","Fixation - short","","null","","","","","","","","","","","","",""
"","html-keyboard-response","102","187251","0.0-150.0","77hzvosf","1920","1080","","","","","","","","","","","774","hrc","Inducer trial","","f","0","","true","","","j","0","RIGHT","","","","",""
"","call-function","103","187251","0.0-152.0-0.0","77hzvosf","","","","","","","","","","","","","","","","","","","","","","","","","","","","","",""
"","html-keyboard-response","104","187553","0.0-152.0-1.0","77hzvosf","1920","1080","","","","","","","","","","","null","Wrong","Feedback","","null","","","","","","","","","","","","",""
"","call-function","105","187553","0.0-152.0-2.0","77hzvosf","","","","","","","","","","","","","","","","","","","","","","","","","","","","","",""
"","html-keyboard-response","106","189063","0.0-153.0","77hzvosf","1920","1080","","","","","","","","","","","null","+","Fixation - long","","null","","","","","","","","","","","","",""
"","html-keyboard-response","107","191244","0.0-154.0","77hzvosf","1920","1080","","","","","","","","","","","2181","If drk press LEFT | If vsc press RIGHT","Inducer instructions",""," ","1","","","","","","","","","","","",""
"","html-keyboard-response","108","192002","0.0-155.0","77hzvosf","1920","1080","","","","","","","","","","","null","+","Fixation - short","","null","","","","","","","","","","","","",""
"","html-keyboard-response","109","192542","0.0-156.0","77hzvosf","1920","1080","","","","","","","","","","","539","vsc","Diagnostic trial","","j","1","0","false","true","LEFT","f","0","","RIGHT","false","","",""
"","call-function","110","192542","0.0-158.0-0.0","77hzvosf","","","","","","","","","","","","","","","","","","","","","","","","","","","","","",""
"","html-keyboard-response","111","192847","0.0-158.0-1.0","77hzvosf","1920","1080","","","","","","","","","","","null","Wrong","Feedback","","null","","","","","","","","","","","","",""
"","call-function","112","192847","0.0-158.0-2.0","77hzvosf","","","","","","","","","","","","","","","","","","","","","","","","","","","","","",""
"","html-keyboard-response","113","193602","0.0-159.0","77hzvosf","1920","1080","","","","","","","","","","","null","+","Fixation - short","","null","","","","","","","","","","","","",""
"","html-keyboard-response","114","194335","0.0-160.0","77hzvosf","1920","1080","","","","","","","","","","","732","drk","Diagnostic trial","","f","1","1","false","true","LEFT","f","1","","LEFT","true","","",""
"","html-keyboard-response","115","195099","0.0-163.0","77hzvosf","1920","1080","","","","","","","","","","","null","+","Fixation - short","","null","","","","","","","","","","","","",""
"","html-keyboard-response","116","195620","0.0-164.0","77hzvosf","1920","1080","","","","","","","","","","","521","vsc","Diagnostic trial","","f","1","2","false","true","LEFT","f","1","","RIGHT","false","","",""
"","html-keyboard-response","117","196382","0.0-167.0","77hzvosf","1920","1080","","","","","","","","","","","null","+","Fixation - short","","null","","","","","","","","","","","","",""
"","html-keyboard-response","118","196664","0.0-168.0","77hzvosf","1920","1080","","","","","","","","","","","282","drk","Diagnostic trial","","f","1","3","false","false","RIGHT","j","0","","LEFT","false","","",""
"","call-function","119","196665","0.0-170.0-0.0","77hzvosf","","","","","","","","","","","","","","","","","","","","","","","","","","","","","",""
"","html-keyboard-response","120","196975","0.0-170.0-1.0","77hzvosf","1920","1080","","","","","","","","","","","null","Wrong","Feedback","","null","","","","","","","","","","","","",""
"","call-function","121","196975","0.0-170.0-2.0","77hzvosf","","","","","","","","","","","","","","","","","","","","","","","","","","","","","",""
"","html-keyboard-response","122","197730","0.0-171.0","77hzvosf","1920","1080","","","","","","","","","","","null","+","Fixation - short","","null","","","","","","","","","","","","",""
"","html-keyboard-response","123","198518","0.0-172.0","77hzvosf","1920","1080","","","","","","","","","","","787","drk","Diagnostic trial","","j","1","4","false","true","LEFT","f","0","","LEFT","true","","",""
"","call-function","124","198518","0.0-174.0-0.0","77hzvosf","","","","","","","","","","","","","","","","","","","","","","","","","","","","","",""
"","html-keyboard-response","125","198832","0.0-174.0-1.0","77hzvosf","1920","1080","","","","","","","","","","","null","Wrong","Feedback","","null","","","","","","","","","","","","",""
"","call-function","126","198832","0.0-174.0-2.0","77hzvosf","","","","","","","","","","","","","","","","","","","","","","","","","","","","","",""
"","html-keyboard-response","127","199594","0.0-175.0","77hzvosf","1920","1080","","","","","","","","","","","null","+","Fixation - short","","null","","","","","","","","","","","","",""
"","html-keyboard-response","128","199821","0.0-176.0","77hzvosf","1920","1080","","","","","","","","","","","227","drk","Diagnostic trial","","j","1","5","false","true","LEFT","f","0","","LEFT","true","","",""
"","call-function","129","199821","0.0-178.0-0.0","77hzvosf","","","","","","","","","","","","","","","","","","","","","","","","","","","","","",""
"","html-keyboard-response","130","200123","0.0-178.0-1.0","77hzvosf","1920","1080","","","","","","","","","","","null","Wrong","Feedback","","null","","","","","","","","","","","","",""
"","call-function","131","200123","0.0-178.0-2.0","77hzvosf","","","","","","","","","","","","","","","","","","","","","","","","","","","","","",""
"","html-keyboard-response","132","200877","0.0-179.0","77hzvosf","1920","1080","","","","","","","","","","","null","+","Fixation - short","","null","","","","","","","","","","","","",""
"","html-keyboard-response","133","201095","0.0-180.0","77hzvosf","1920","1080","","","","","","","","","","","218","vsc","Diagnostic trial","","j","1","6","false","true","LEFT","f","0","","RIGHT","false","","",""
"","call-function","134","201095","0.0-182.0-0.0","77hzvosf","","","","","","","","","","","","","","","","","","","","","","","","","","","","","",""
"","html-keyboard-response","135","201404","0.0-182.0-1.0","77hzvosf","1920","1080","","","","","","","","","","","null","Wrong","Feedback","","null","","","","","","","","","","","","",""
"","call-function","136","201405","0.0-182.0-2.0","77hzvosf","","","","","","","","","","","","","","","","","","","","","","","","","","","","","",""
"","html-keyboard-response","137","202160","0.0-183.0","77hzvosf","1920","1080","","","","","","","","","","","null","+","Fixation - short","","null","","","","","","","","","","","","",""
"","html-keyboard-response","138","202373","0.0-184.0","77hzvosf","1920","1080","","","","","","","","","","","213","drk","Diagnostic trial","","f","1","7","false","true","LEFT","f","1","","LEFT","true","","",""
"","html-keyboard-response","139","203125","0.0-187.0","77hzvosf","1920","1080","","","","","","","","","","","null","+","Fixation - short","","null","","","","","","","","","","","","",""
"","html-keyboard-response","140","203351","0.0-188.0","77hzvosf","1920","1080","","","","","","","","","","","226","vsc","Diagnostic trial","","f","1","8","false","true","LEFT","f","1","","RIGHT","false","","",""
"","html-keyboard-response","141","204108","0.0-191.0","77hzvosf","1920","1080","","","","","","","","","","","null","+","Fixation - short","","null","","","","","","","","","","","","",""
"","html-keyboard-response","142","204328","0.0-192.0","77hzvosf","1920","1080","","","","","","","","","","","219","vsc","Diagnostic trial","","f","1","9","false","true","LEFT","f","1","","RIGHT","false","","",""
"","html-keyboard-response","143","205088","0.0-195.0","77hzvosf","1920","1080","","","","","","","","","","","null","+","Fixation - short","","null","","","","","","","","","","","","",""
"","html-keyboard-response","144","205289","0.0-196.0","77hzvosf","1920","1080","","","","","","","","","","","201","drk","Inducer trial","","f","1","","true","","","f","1","LEFT","","","","",""
"","html-keyboard-response","145","206790","0.0-199.0","77hzvosf","1920","1080","","","","","","","","","","","null","+","Fixation - long","","null","","","","","","","","","","","","",""
"","html-keyboard-response","146","211969","0.0-200.0","77hzvosf","1920","1080","","","","","","","","","","","5179","If pbz press LEFT | If ttm press RIGHT","Inducer instructions",""," ","2","","","","","","","","","","","",""
"","html-keyboard-response","147","212730","0.0-201.0","77hzvosf","1920","1080","","","","","","","","","","","null","+","Fixation - short","","null","","","","","","","","","","","","",""
"","html-keyboard-response","148","213847","0.0-202.0","77hzvosf","1920","1080","","","","","","","","","","","1116","ttm","Diagnostic trial","","j","2","0","false","false","RIGHT","j","1","","RIGHT","true","","",""
"","html-keyboard-response","149","214611","0.0-205.0","77hzvosf","1920","1080","","","","","","","","","","","null","+","Fixation - short","","null","","","","","","","","","","","","",""
"","html-keyboard-response","150","214810","0.0-206.0","77hzvosf","1920","1080","","","","","","","","","","","199","pbz","Diagnostic trial","","j","2","1","false","true","LEFT","f","0","","LEFT","true","","",""
"","call-function","151","214810","0.0-208.0-0.0","77hzvosf","","","","","","","","","","","","","","","","","","","","","","","","","","","","","",""
"","html-keyboard-response","152","215123","0.0-208.0-1.0","77hzvosf","1920","1080","","","","","","","","","","","null","Wrong","Feedback","","null","","","","","","","","","","","","",""
"","call-function","153","215123","0.0-208.0-2.0","77hzvosf","","","","","","","","","","","","","","","","","","","","","","","","","","","","","",""
"","html-keyboard-response","154","215877","0.0-209.0","77hzvosf","1920","1080","","","","","","","","","","","null","+","Fixation - short","","null","","","","","","","","","","","","",""
"","html-keyboard-response","155","216283","0.0-210.0","77hzvosf","1920","1080","","","","","","","","","","","405","ttm","Diagnostic trial","","f","2","2","false","false","RIGHT","j","0","","RIGHT","true","","",""
"","call-function","156","216283","0.0-212.0-0.0","77hzvosf","","","","","","","","","","","","","","","","","","","","","","","","","","","","","",""
"","html-keyboard-response","157","216587","0.0-212.0-1.0","77hzvosf","1920","1080","","","","","","","","","","","null","Wrong","Feedback","","null","","","","","","","","","","","","",""
"","call-function","158","216587","0.0-212.0-2.0","77hzvosf","","","","","","","","","","","","","","","","","","","","","","","","","","","","","",""
"","html-keyboard-response","159","217343","0.0-213.0","77hzvosf","1920","1080","","","","","","","","","","","null","+","Fixation - short","","null","","","","","","","","","","","","",""
"","html-keyboard-response","160","217568","0.0-214.0","77hzvosf","1920","1080","","","","","","","","","","","224","ttm","Diagnostic trial","","f","2","3","false","true","LEFT","f","1","","RIGHT","false","","",""
"","html-keyboard-response","161","218325","0.0-217.0","77hzvosf","1920","1080","","","","","","","","","","","null","+","Fixation - short","","null","","","","","","","","","","","","",""
"","html-keyboard-response","162","218601","0.0-218.0","77hzvosf","1920","1080","","","","","","","","","","","276","ttm","Diagnostic trial","","f","2","4","false","false","RIGHT","j","0","","RIGHT","true","","",""
"","call-function","163","218601","0.0-220.0-0.0","77hzvosf","","","","","","","","","","","","","","","","","","","","","","","","","","","","","",""
"","html-keyboard-response","164","218905","0.0-220.0-1.0","77hzvosf","1920","1080","","","","","","","","","","","null","Wrong","Feedback","","null","","","","","","","","","","","","",""
"","call-function","165","218905","0.0-220.0-2.0","77hzvosf","","","","","","","","","","","","","","","","","","","","","","","","","","","","","",""
"","html-keyboard-response","166","219657","0.0-221.0","77hzvosf","1920","1080","","","","","","","","","","","null","+","Fixation - short","","null","","","","","","","","","","","","",""
"","html-keyboard-response","167","220047","0.0-222.0","77hzvosf","1920","1080","","","","","","","","","","","390","ttm","Diagnostic trial","","j","2","5","false","false","RIGHT","j","1","","RIGHT","true","","",""
"","html-keyboard-response","168","220806","0.0-225.0","77hzvosf","1920","1080","","","","","","","","","","","null","+","Fixation - short","","null","","","","","","","","","","","","",""
"","html-keyboard-response","169","221100","0.0-226.0","77hzvosf","1920","1080","","","","","","","","","","","294","pbz","Diagnostic trial","","j","2","6","false","false","RIGHT","j","1","","LEFT","false","","",""
"","html-keyboard-response","170","221853","0.0-229.0","77hzvosf","1920","1080","","","","","","","","","","","null","+","Fixation - short","","null","","","","","","","","","","","","",""
"","html-keyboard-response","171","222080","0.0-230.0","77hzvosf","1920","1080","","","","","","","","","","","226","ttm","Diagnostic trial","","j","2","7","false","true","LEFT","f","0","","RIGHT","false","","",""
"","call-function","172","222080","0.0-232.0-0.0","77hzvosf","","","","","","","","","","","","","","","","","","","","","","","","","","","","","",""
"","html-keyboard-response","173","222397","0.0-232.0-1.0","77hzvosf","1920","1080","","","","","","","","","","","null","Wrong","Feedback","","null","","","","","","","","","","","","",""
"","call-function","174","222397","0.0-232.0-2.0","77hzvosf","","","","","","","","","","","","","","","","","","","","","","","","","","","","","",""
"","html-keyboard-response","175","223153","0.0-233.0","77hzvosf","1920","1080","","","","","","","","","","","null","+","Fixation - short","","null","","","","","","","","","","","","",""
"","html-keyboard-response","176","223353","0.0-234.0","77hzvosf","1920","1080","","","","","","","","","","","200","pbz","Inducer trial","","j","2","","true","","","f","0","LEFT","","","","",""
"","call-function","177","223353","0.0-236.0-0.0","77hzvosf","","","","","","","","","","","","","","","","","","","","","","","","","","","","","",""
"","html-keyboard-response","178","223663","0.0-236.0-1.0","77hzvosf","1920","1080","","","","","","","","","","","null","Wrong","Feedback","","null","","","","","","","","","","","","",""
"","call-function","179","223663","0.0-236.0-2.0","77hzvosf","","","","","","","","","","","","","","","","","","","","","","","","","","","","","",""
"","html-keyboard-response","180","225172","0.0-237.0","77hzvosf","1920","1080","","","","","","","","","","","null","+","Fixation - long","","null","","","","","","","","","","","","",""
"","html-keyboard-response","181","226899","0.0-238.0","77hzvosf","1920","1080","","","","","","","","","","","1726","If hhd press LEFT | If gfm press RIGHT","Inducer instructions",""," ","3","","","","","","","","","","","",""
"","html-keyboard-response","182","227663","0.0-239.0","77hzvosf","1920","1080","","","","","","","","","","","null","+","Fixation - short","","null","","","","","","","","","","","","",""
"","html-keyboard-response","183","228229","0.0-240.0","77hzvosf","1920","1080","","","","","","","","","","","566","hhd","Diagnostic trial","","f","3","0","false","true","LEFT","f","1","","LEFT","true","","",""
"","html-keyboard-response","184","228990","0.0-243.0","77hzvosf","1920","1080","","","","","","","","","","","null","+","Fixation - short","","null","","","","","","","","","","","","",""
"","html-keyboard-response","185","229344","0.0-244.0","77hzvosf","1920","1080","","","","","","","","","","","353","gfm","Diagnostic trial","","j","3","1","false","true","LEFT","f","0","","RIGHT","false","","",""
"","call-function","186","229344","0.0-246.0-0.0","77hzvosf","","","","","","","","","","","","","","","","","","","","","","","","","","","","","",""
"","html-keyboard-response","187","229656","0.0-246.0-1.0","77hzvosf","1920","1080","","","","","","","","","","","null","Wrong","Feedback","","null","","","","","","","","","","","","",""
"","call-function","188","229656","0.0-246.0-2.0","77hzvosf","","","","","","","","","","","","","","","","","","","","","","","","","","","","","",""
"","html-keyboard-response","189","230413","0.0-247.0","77hzvosf","1920","1080","","","","","","","","","","","null","+","Fixation - short","","null","","","","","","","","","","","","",""
"","html-keyboard-response","190","231823","0.0-248.0","77hzvosf","1920","1080","","","","","","","","","","","1410","gfm","Diagnostic trial","","j","3","2","false","true","LEFT","f","0","","RIGHT","false","","",""
"","call-function","191","231824","0.0-250.0-0.0","77hzvosf","","","","","","","","","","","","","","","","","","","","","","","","","","","","","",""
"","html-keyboard-response","192","232137","0.0-250.0-1.0","77hzvosf","1920","1080","","","","","","","","","","","null","Wrong","Feedback","","null","","","","","","","","","","","","",""
"","call-function","193","232137","0.0-250.0-2.0","77hzvosf","","","","","","","","","","","","","","","","","","","","","","","","","","","","","",""
"","html-keyboard-response","194","232898","0.0-251.0","77hzvosf","1920","1080","","","","","","","","","","","null","+","Fixation - short","","null","","","","","","","","","","","","",""
"","html-keyboard-response","195","234099","0.0-252.0","77hzvosf","1920","1080","","","","","","","","","","","1200","hhd","Diagnostic trial","","f","3","3","false","false","RIGHT","j","0","","LEFT","false","","",""
"","call-function","196","234099","0.0-254.0-0.0","77hzvosf","","","","","","","","","","","","","","","","","","","","","","","","","","","","","",""
"","html-keyboard-response","197","234402","0.0-254.0-1.0","77hzvosf","1920","1080","","","","","","","","","","","null","Wrong","Feedback","","null","","","","","","","","","","","","",""
"","call-function","198","234403","0.0-254.0-2.0","77hzvosf","","","","","","","","","","","","","","","","","","","","","","","","","","","","","",""
"","html-keyboard-response","199","235155","0.0-255.0","77hzvosf","1920","1080","","","","","","","","","","","null","+","Fixation - short","","null","","","","","","","","","","","","",""
"","html-keyboard-response","200","235656","0.0-256.0","77hzvosf","1920","1080","","","","","","","","","","","501","gfm","Diagnostic trial","","f","3","4","false","false","RIGHT","j","0","","RIGHT","true","","",""
"","call-function","201","235657","0.0-258.0-0.0","77hzvosf","","","","","","","","","","","","","","","","","","","","","","","","","","","","","",""
"","html-keyboard-response","202","235959","0.0-258.0-1.0","77hzvosf","1920","1080","","","","","","","","","","","null","Wrong","Feedback","","null","","","","","","","","","","","","",""
"","call-function","203","235959","0.0-258.0-2.0","77hzvosf","","","","","","","","","","","","","","","","","","","","","","","","","","","","","",""
"","html-keyboard-response","204","236713","0.0-259.0","77hzvosf","1920","1080","","","","","","","","","","","null","+","Fixation - short","","null","","","","","","","","","","","","",""
"","html-keyboard-response","205","237724","0.0-260.0","77hzvosf","1920","1080","","","","","","","","","","","1011","gfm","Diagnostic trial","","f","3","5","false","false","RIGHT","j","0","","RIGHT","true","","",""
"","call-function","206","237725","0.0-262.0-0.0","77hzvosf","","","","","","","","","","","","","","","","","","","","","","","","","","","","","",""
"","html-keyboard-response","207","238037","0.0-262.0-1.0","77hzvosf","1920","1080","","","","","","","","","","","null","Wrong","Feedback","","null","","","","","","","","","","","","",""
"","call-function","208","238037","0.0-262.0-2.0","77hzvosf","","","","","","","","","","","","","","","","","","","","","","","","","","","","","",""
"","html-keyboard-response","209","238798","0.0-263.0","77hzvosf","1920","1080","","","","","","","","","","","null","+","Fixation - short","","null","","","","","","","","","","","","",""
"","html-keyboard-response","210","239179","0.0-264.0","77hzvosf","1920","1080","","","","","","","","","","","380","hhd","Diagnostic trial","","j","3","6","false","false","RIGHT","j","1","","LEFT","false","","",""
"","html-keyboard-response","211","239942","0.0-267.0","77hzvosf","1920","1080","","","","","","","","","","","null","+","Fixation - short","","null","","","","","","","","","","","","",""
"","html-keyboard-response","212","240983","0.0-268.0","77hzvosf","1920","1080","","","","","","","","","","","1040","gfm","Diagnostic trial","","j","3","7","false","true","LEFT","f","0","","RIGHT","false","","",""
"","call-function","213","240983","0.0-270.0-0.0","77hzvosf","","","","","","","","","","","","","","","","","","","","","","","","","","","","","",""
"","html-keyboard-response","214","241284","0.0-270.0-1.0","77hzvosf","1920","1080","","","","","","","","","","","null","Wrong","Feedback","","null","","","","","","","","","","","","",""
"","call-function","215","241285","0.0-270.0-2.0","77hzvosf","","","","","","","","","","","","","","","","","","","","","","","","","","","","","",""
"","html-keyboard-response","216","242047","0.0-271.0","77hzvosf","1920","1080","","","","","","","","","","","null","+","Fixation - short","","null","","","","","","","","","","","","",""
"","html-keyboard-response","217","242552","0.0-272.0","77hzvosf","1920","1080","","","","","","","","","","","504","gfm","Diagnostic trial","","j","3","8","false","false","RIGHT","j","1","","RIGHT","true","","",""
"","html-keyboard-response","218","243314","0.0-275.0","77hzvosf","1920","1080","","","","","","","","","","","null","+","Fixation - short","","null","","","","","","","","","","","","",""
"","html-keyboard-response","219","243858","0.0-276.0","77hzvosf","1920","1080","","","","","","","","","","","543","hhd","Diagnostic trial","","f","3","9","false","false","RIGHT","j","0","","LEFT","false","","",""
"","call-function","220","243858","0.0-278.0-0.0","77hzvosf","","","","","","","","","","","","","","","","","","","","","","","","","","","","","",""
"","html-keyboard-response","221","244159","0.0-278.0-1.0","77hzvosf","1920","1080","","","","","","","","","","","null","Wrong","Feedback","","null","","","","","","","","","","","","",""
"","call-function","222","244160","0.0-278.0-2.0","77hzvosf","","","","","","","","","","","","","","","","","","","","","","","","","","","","","",""
"","html-keyboard-response","223","244912","0.0-279.0","77hzvosf","1920","1080","","","","","","","","","","","null","+","Fixation - short","","null","","","","","","","","","","","","",""
"","html-keyboard-response","224","245431","0.0-280.0","77hzvosf","1920","1080","","","","","","","","","","","518","hhd","Diagnostic trial","","j","3","10","false","false","RIGHT","j","1","","LEFT","false","","",""
"","html-keyboard-response","225","246194","0.0-283.0","77hzvosf","1920","1080","","","","","","","","","","","null","+","Fixation - short","","null","","","","","","","","","","","","",""
"","html-keyboard-response","226","246565","0.0-284.0","77hzvosf","1920","1080","","","","","","","","","","","370","hhd","Diagnostic trial","","j","3","11","false","false","RIGHT","j","1","","LEFT","false","","",""
"","html-keyboard-response","227","247328","0.0-287.0","77hzvosf","1920","1080","","","","","","","","","","","null","+","Fixation - short","","null","","","","","","","","","","","","",""
"","html-keyboard-response","228","247743","0.0-288.0","77hzvosf","1920","1080","","","","","","","","","","","415","gfm","Diagnostic trial","","j","3","12","false","false","RIGHT","j","1","","RIGHT","true","","",""
"","html-keyboard-response","229","248511","0.0-291.0","77hzvosf","1920","1080","","","","","","","","","","","null","+","Fixation - short","","null","","","","","","","","","","","","",""
"","html-keyboard-response","230","248956","0.0-292.0","77hzvosf","1920","1080","","","","","","","","","","","444","hhd","Inducer trial","","f","3","","true","","","f","1","LEFT","","","","",""
"","html-keyboard-response","231","250472","0.0-295.0","77hzvosf","1920","1080","","","","","","","","","","","null","+","Fixation - long","","null","","","","","","","","","","","","",""
"","html-keyboard-response","232","253855","0.0-296.0","77hzvosf","1920","1080","","","","","","","","","","","3383","If gso press LEFT | If jcr press RIGHT","Inducer instructions",""," ","4","","","","","","","","","","","",""
"","html-keyboard-response","233","254609","0.0-297.0","77hzvosf","1920","1080","","","","","","","","","","","null","+","Fixation - short","","null","","","","","","","","","","","","",""
"","html-keyboard-response","234","255548","0.0-298.0","77hzvosf","1920","1080","","","","","","","","","","","938","jcr","Diagnostic trial","","j","4","0","false","true","LEFT","f","0","","RIGHT","false","","",""
"","call-function","235","255548","0.0-300.0-0.0","77hzvosf","","","","","","","","","","","","","","","","","","","","","","","","","","","","","",""
"","html-keyboard-response","236","255864","0.0-300.0-1.0","77hzvosf","1920","1080","","","","","","","","","","","null","Wrong","Feedback","","null","","","","","","","","","","","","",""
"","call-function","237","255865","0.0-300.0-2.0","77hzvosf","","","","","","","","","","","","","","","","","","","","","","","","","","","","","",""
"","html-keyboard-response","238","256629","0.0-301.0","77hzvosf","1920","1080","","","","","","","","","","","null","+","Fixation - short","","null","","","","","","","","","","","","",""
"","html-keyboard-response","239","257219","0.0-302.0","77hzvosf","1920","1080","","","","","","","","","","","589","jcr","Diagnostic trial","","f","4","1","false","true","LEFT","f","1","","RIGHT","false","","",""
"","html-keyboard-response","240","257974","0.0-305.0","77hzvosf","1920","1080","","","","","","","","","","","null","+","Fixation - short","","null","","","","","","","","","","","","",""
"","html-keyboard-response","241","258436","0.0-306.0","77hzvosf","1920","1080","","","","","","","","","","","461","gso","Diagnostic trial","","j","4","2","false","false","RIGHT","j","1","","LEFT","false","","",""
"","html-keyboard-response","242","259190","0.0-309.0","77hzvosf","1920","1080","","","","","","","","","","","null","+","Fixation - short","","null","","","","","","","","","","","","",""
"","html-keyboard-response","243","259895","0.0-310.0","77hzvosf","1920","1080","","","","","","","","","","","704","gso","Diagnostic trial","","f","4","3","false","true","LEFT","f","1","","LEFT","true","","",""
"","html-keyboard-response","244","260649","0.0-313.0","77hzvosf","1920","1080","","","","","","","","","","","null","+","Fixation - short","","null","","","","","","","","","","","","",""
"","html-keyboard-response","245","261149","0.0-314.0","77hzvosf","1920","1080","","","","","","","","","","","499","jcr","Diagnostic trial","","f","4","4","false","true","LEFT","f","1","","RIGHT","false","","",""
"","html-keyboard-response","246","261905","0.0-317.0","77hzvosf","1920","1080","","","","","","","","","","","null","+","Fixation - short","","null","","","","","","","","","","","","",""
"","html-keyboard-response","247","262301","0.0-318.0","77hzvosf","1920","1080","","","","","","","","","","","396","gso","Diagnostic trial","","f","4","5","false","true","LEFT","f","1","","LEFT","true","","",""
"","html-keyboard-response","248","263052","0.0-321.0","77hzvosf","1920","1080","","","","","","","","","","","null","+","Fixation - short","","null","","","","","","","","","","","","",""
"","html-keyboard-response","249","263415","0.0-322.0","77hzvosf","1920","1080","","","","","","","","","","","361","jcr","Diagnostic trial","","f","4","6","false","true","LEFT","f","1","","RIGHT","false","","",""
"","html-keyboard-response","250","264175","0.0-325.0","77hzvosf","1920","1080","","","","","","","","","","","null","+","Fixation - short","","null","","","","","","","","","","","","",""
"","html-keyboard-response","251","264601","0.0-326.0","77hzvosf","1920","1080","","","","","","","","","","","425","jcr","Diagnostic trial","","j","4","7","false","false","RIGHT","j","1","","RIGHT","true","","",""
"","html-keyboard-response","252","265352","0.0-329.0","77hzvosf","1920","1080","","","","","","","","","","","null","+","Fixation - short","","null","","","","","","","","","","","","",""
"","html-keyboard-response","253","266048","0.0-330.0","77hzvosf","1920","1080","","","","","","","","","","","695","jcr","Diagnostic trial","","f","4","8","false","true","LEFT","f","1","","RIGHT","false","","",""
"","html-keyboard-response","254","266799","0.0-333.0","77hzvosf","1920","1080","","","","","","","","","","","null","+","Fixation - short","","null","","","","","","","","","","","","",""
"","html-keyboard-response","255","267219","0.0-334.0","77hzvosf","1920","1080","","","","","","","","","","","419","gso","Diagnostic trial","","f","4","9","false","true","LEFT","f","1","","LEFT","true","","",""
"","html-keyboard-response","256","267972","0.0-337.0","77hzvosf","1920","1080","","","","","","","","","","","null","+","Fixation - short","","null","","","","","","","","","","","","",""
"","html-keyboard-response","257","268519","0.0-338.0","77hzvosf","1920","1080","","","","","","","","","","","546","jcr","Diagnostic trial","","j","4","10","false","false","RIGHT","j","1","","RIGHT","true","","",""
"","html-keyboard-response","258","269270","0.0-341.0","77hzvosf","1920","1080","","","","","","","","","","","null","+","Fixation - short","","null","","","","","","","","","","","","",""
"","html-keyboard-response","259","269793","0.0-342.0","77hzvosf","1920","1080","","","","","","","","","","","522","jcr","Diagnostic trial","","f","4","11","false","true","LEFT","f","1","","RIGHT","false","","",""
"","html-keyboard-response","260","270551","0.0-345.0","77hzvosf","1920","1080","","","","","","","","","","","null","+","Fixation - short","","null","","","","","","","","","","","","",""
"","html-keyboard-response","261","271208","0.0-346.0","77hzvosf","1920","1080","","","","","","","","","","","656","jcr","Inducer trial","","j","4","","true","","","j","1","RIGHT","","","","",""
"","html-keyboard-response","262","272718","0.0-349.0","77hzvosf","1920","1080","","","","","","","","","","","null","+","Fixation - long","","null","","","","","","","","","","","","",""
"","html-keyboard-response","263","278235","0.0-350.0","77hzvosf","1920","1080","","","","","","","","","","","5516","If aor press LEFT | If pcm press RIGHT","Inducer instructions",""," ","5","","","","","","","","","","","",""
"","html-keyboard-response","264","278987","0.0-351.0","77hzvosf","1920","1080","","","","","","","","","","","null","+","Fixation - short","","null","","","","","","","","","","","","",""
"","html-keyboard-response","265","279625","0.0-352.0","77hzvosf","1920","1080","","","","","","","","","","","638","pcm","Diagnostic trial","","f","5","0","false","true","LEFT","f","1","","RIGHT","false","","",""
"","html-keyboard-response","266","280377","0.0-355.0","77hzvosf","1920","1080","","","","","","","","","","","null","+","Fixation - short","","null","","","","","","","","","","","","",""
"","html-keyboard-response","267","280826","0.0-356.0","77hzvosf","1920","1080","","","","","","","","","","","448","pcm","Diagnostic trial","","f","5","1","false","true","LEFT","f","1","","RIGHT","false","","",""
"","html-keyboard-response","268","281592","0.0-359.0","77hzvosf","1920","1080","","","","","","","","","","","null","+","Fixation - short","","null","","","","","","","","","","","","",""
"","html-keyboard-response","269","282138","0.0-360.0","77hzvosf","1920","1080","","","","","","","","","","","546","pcm","Diagnostic trial","","j","5","2","false","false","RIGHT","j","1","","RIGHT","true","","",""
"","html-keyboard-response","270","282899","0.0-363.0","77hzvosf","1920","1080","","","","","","","","","","","null","+","Fixation - short","","null","","","","","","","","","","","","",""
"","html-keyboard-response","271","283528","0.0-364.0","77hzvosf","1920","1080","","","","","","","","","","","628","pcm","Diagnostic trial","","j","5","3","false","false","RIGHT","j","1","","RIGHT","true","","",""
"","html-keyboard-response","272","284282","0.0-367.0","77hzvosf","1920","1080","","","","","","","","","","","null","+","Fixation - short","","null","","","","","","","","","","","","",""
"","html-keyboard-response","273","284832","0.0-368.0","77hzvosf","1920","1080","","","","","","","","","","","549","aor","Inducer trial","","f","5","","true","","","f","1","LEFT","","","","",""
"","html-keyboard-response","274","286346","0.0-371.0","77hzvosf","1920","1080","","","","","","","","","","","null","+","Fixation - long","","null","","","","","","","","","","","","",""
"","html-keyboard-response","275","291854","0.0-372.0","77hzvosf","1920","1080","","","","","","","","","","","5507","If cer press LEFT | If gdn press RIGHT","Inducer instructions",""," ","6","","","","","","","","","","","",""
"","html-keyboard-response","276","292618","0.0-373.0","77hzvosf","1920","1080","","","","","","","","","","","null","+","Fixation - short","","null","","","","","","","","","","","","",""
"","html-keyboard-response","277","293220","0.0-374.0","77hzvosf","1920","1080","","","","","","","","","","","601","gdn","Diagnostic trial","","j","6","0","false","false","RIGHT","j","1","","RIGHT","true","","",""
"","html-keyboard-response","278","293984","0.0-377.0","77hzvosf","1920","1080","","","","","","","","","","","null","+","Fixation - short","","null","","","","","","","","","","","","",""
"","html-keyboard-response","279","294477","0.0-378.0","77hzvosf","1920","1080","","","","","","","","","","","493","cer","Diagnostic trial","","f","6","1","false","true","LEFT","f","1","","LEFT","true","","",""
"","html-keyboard-response","280","295238","0.0-381.0","77hzvosf","1920","1080","","","","","","","","","","","null","+","Fixation - short","","null","","","","","","","","","","","","",""
"","html-keyboard-response","281","295700","0.0-382.0","77hzvosf","1920","1080","","","","","","","","","","","461","gdn","Diagnostic trial","","j","6","2","false","false","RIGHT","j","1","","RIGHT","true","","",""
"","html-keyboard-response","282","296454","0.0-385.0","77hzvosf","1920","1080","","","","","","","","","","","null","+","Fixation - short","","null","","","","","","","","","","","","",""
"","html-keyboard-response","283","296976","0.0-386.0","77hzvosf","1920","1080","","","","","","","","","","","521","cer","Diagnostic trial","","f","6","3","false","true","LEFT","f","1","","LEFT","true","","",""
"","html-keyboard-response","284","297727","0.0-389.0","77hzvosf","1920","1080","","","","","","","","","","","null","+","Fixation - short","","null","","","","","","","","","","","","",""
"","html-keyboard-response","285","298131","0.0-390.0","77hzvosf","1920","1080","","","","","","","","","","","404","cer","Diagnostic trial","","j","6","4","false","false","RIGHT","j","1","","LEFT","false","","",""
"","html-keyboard-response","286","298893","0.0-393.0","77hzvosf","1920","1080","","","","","","","","","","","null","+","Fixation - short","","null","","","","","","","","","","","","",""
"","html-keyboard-response","287","299351","0.0-394.0","77hzvosf","1920","1080","","","","","","","","","","","458","gdn","Diagnostic trial","","j","6","5","false","false","RIGHT","j","1","","RIGHT","true","","",""
"","html-keyboard-response","288","300114","0.0-397.0","77hzvosf","1920","1080","","","","","","","","","","","null","+","Fixation - short","","null","","","","","","","","","","","","",""
"","html-keyboard-response","289","300531","0.0-398.0","77hzvosf","1920","1080","","","","","","","","","","","416","cer","Diagnostic trial","","j","6","6","false","false","RIGHT","j","1","","LEFT","false","","",""
"","html-keyboard-response","290","301287","0.0-401.0","77hzvosf","1920","1080","","","","","","","","","","","null","+","Fixation - short","","null","","","","","","","","","","","","",""
"","html-keyboard-response","291","301811","0.0-402.0","77hzvosf","1920","1080","","","","","","","","","","","523","cer","Diagnostic trial","","f","6","7","false","true","LEFT","f","1","","LEFT","true","","",""
"","html-keyboard-response","292","302565","0.0-405.0","77hzvosf","1920","1080","","","","","","","","","","","null","+","Fixation - short","","null","","","","","","","","","","","","",""
"","html-keyboard-response","293","302990","0.0-406.0","77hzvosf","1920","1080","","","","","","","","","","","425","cer","Diagnostic trial","","j","6","8","false","false","RIGHT","j","1","","LEFT","false","","",""
"","html-keyboard-response","294","303755","0.0-409.0","77hzvosf","1920","1080","","","","","","","","","","","null","+","Fixation - short","","null","","","","","","","","","","","","",""
"","html-keyboard-response","295","304263","0.0-410.0","77hzvosf","1920","1080","","","","","","","","","","","507","gdn","Diagnostic trial","","f","6","9","false","true","LEFT","f","1","","RIGHT","false","","",""
"","html-keyboard-response","296","305021","0.0-413.0","77hzvosf","1920","1080","","","","","","","","","","","null","+","Fixation - short","","null","","","","","","","","","","","","",""
"","html-keyboard-response","297","305484","0.0-414.0","77hzvosf","1920","1080","","","","","","","","","","","462","gdn","Inducer trial","","j","6","","true","","","j","1","RIGHT","","","","",""
"","html-keyboard-response","298","306991","0.0-417.0","77hzvosf","1920","1080","","","","","","","","","","","null","+","Fixation - long","","null","","","","","","","","","","","","",""
"","html-keyboard-response","299","311577","0.0-418.0","77hzvosf","1920","1080","","","","","","","","","","","4585","If tgf press LEFT | If cnl press RIGHT","Inducer instructions",""," ","7","","","","","","","","","","","",""
"","html-keyboard-response","300","312341","0.0-419.0","77hzvosf","1920","1080","","","","","","","","","","","null","+","Fixation - short","","null","","","","","","","","","","","","",""
"","html-keyboard-response","301","313229","0.0-420.0","77hzvosf","1920","1080","","","","","","","","","","","888","tgf","Diagnostic trial","","j","7","0","false","true","LEFT","f","0","","LEFT","true","","",""
"","call-function","302","313229","0.0-422.0-0.0","77hzvosf","","","","","","","","","","","","","","","","","","","","","","","","","","","","","",""
"","html-keyboard-response","303","313533","0.0-422.0-1.0","77hzvosf","1920","1080","","","","","","","","","","","null","Wrong","Feedback","","null","","","","","","","","","","","","",""
"","call-function","304","313534","0.0-422.0-2.0","77hzvosf","","","","","","","","","","","","","","","","","","","","","","","","","","","","","",""
"","html-keyboard-response","305","314296","0.0-423.0","77hzvosf","1920","1080","","","","","","","","","","","null","+","Fixation - short","","null","","","","","","","","","","","","",""
"","html-keyboard-response","306","314901","0.0-424.0","77hzvosf","1920","1080","","","","","","","","","","","604","tgf","Diagnostic trial","","f","7","1","false","false","RIGHT","j","0","","LEFT","false","","",""
"","call-function","307","314901","0.0-426.0-0.0","77hzvosf","","","","","","","","","","","","","","","","","","","","","","","","","","","","","",""
"","html-keyboard-response","308","315213","0.0-426.0-1.0","77hzvosf","1920","1080","","","","","","","","","","","null","Wrong","Feedback","","null","","","","","","","","","","","","",""
"","call-function","309","315213","0.0-426.0-2.0","77hzvosf","","","","","","","","","","","","","","","","","","","","","","","","","","","","","",""
"","html-keyboard-response","310","315969","0.0-427.0","77hzvosf","1920","1080","","","","","","","","","","","null","+","Fixation - short","","null","","","","","","","","","","","","",""
"","html-keyboard-response","311","316641","0.0-428.0","77hzvosf","1920","1080","","","","","","","","","","","672","cnl","Diagnostic trial","","f","7","2","false","true","LEFT","f","1","","RIGHT","false","","",""
"","html-keyboard-response","312","317402","0.0-431.0","77hzvosf","1920","1080","","","","","","","","","","","null","+","Fixation - short","","null","","","","","","","","","","","","",""
"","html-keyboard-response","313","317973","0.0-432.0","77hzvosf","1920","1080","","","","","","","","","","","571","cnl","Diagnostic trial","","f","7","3","false","true","LEFT","f","1","","RIGHT","false","","",""
"","html-keyboard-response","314","318740","0.0-435.0","77hzvosf","1920","1080","","","","","","","","","","","null","+","Fixation - short","","null","","","","","","","","","","","","",""
"","html-keyboard-response","315","319226","0.0-436.0","77hzvosf","1920","1080","","","","","","","","","","","486","tgf","Diagnostic trial","","j","7","4","false","false","RIGHT","j","1","","LEFT","false","","",""
"","html-keyboard-response","316","319978","0.0-439.0","77hzvosf","1920","1080","","","","","","","","","","","null","+","Fixation - short","","null","","","","","","","","","","","","",""
"","html-keyboard-response","317","320574","0.0-440.0","77hzvosf","1920","1080","","","","","","","","","","","595","cnl","Diagnostic trial","","j","7","5","false","false","RIGHT","j","1","","RIGHT","true","","",""
"","html-keyboard-response","318","321329","0.0-443.0","77hzvosf","1920","1080","","","","","","","","","","","null","+","Fixation - short","","null","","","","","","","","","","","","",""
"","html-keyboard-response","319","321703","0.0-444.0","77hzvosf","1920","1080","","","","","","","","","","","373","cnl","Diagnostic trial","","j","7","6","false","false","RIGHT","j","1","","RIGHT","true","","",""
"","html-keyboard-response","320","322470","0.0-447.0","77hzvosf","1920","1080","","","","","","","","","","","null","+","Fixation - short","","null","","","","","","","","","","","","",""
"","html-keyboard-response","321","322840","0.0-448.0","77hzvosf","1920","1080","","","","","","","","","","","369","tgf","Diagnostic trial","","j","7","7","false","false","RIGHT","j","1","","LEFT","false","","",""
"","html-keyboard-response","322","323595","0.0-451.0","77hzvosf","1920","1080","","","","","","","","","","","null","+","Fixation - short","","null","","","","","","","","","","","","",""
"","html-keyboard-response","323","324043","0.0-452.0","77hzvosf","1920","1080","","","","","","","","","","","448","cnl","Diagnostic trial","","j","7","8","false","false","RIGHT","j","1","","RIGHT","true","","",""
"","html-keyboard-response","324","324796","0.0-455.0","77hzvosf","1920","1080","","","","","","","","","","","null","+","Fixation - short","","null","","","","","","","","","","","","",""
"","html-keyboard-response","325","325288","0.0-456.0","77hzvosf","1920","1080","","","","","","","","","","","490","cnl","Diagnostic trial","","j","7","9","false","false","RIGHT","j","1","","RIGHT","true","","",""
"","html-keyboard-response","326","326040","0.0-459.0","77hzvosf","1920","1080","","","","","","","","","","","null","+","Fixation - short","","null","","","","","","","","","","","","",""
"","html-keyboard-response","327","326474","0.0-460.0","77hzvosf","1920","1080","","","","","","","","","","","433","cnl","Diagnostic trial","","j","7","10","false","false","RIGHT","j","1","","RIGHT","true","","",""
"","html-keyboard-response","328","327231","0.0-463.0","77hzvosf","1920","1080","","","","","","","","","","","null","+","Fixation - short","","null","","","","","","","","","","","","",""
"","html-keyboard-response","329","327922","0.0-464.0","77hzvosf","1920","1080","","","","","","","","","","","690","tgf","Inducer trial","","f","7","","true","","","f","1","LEFT","","","","",""
"","html-keyboard-response","330","329424","0.0-467.0","77hzvosf","1920","1080","","","","","","","","","","","null","+","Fixation - long","","null","","","","","","","","","","","","",""
"","html-keyboard-response","331","332459","0.0-468.0","77hzvosf","1920","1080","","","","","","","","","","","3034","If saj press LEFT | If lff press RIGHT","Inducer instructions",""," ","8","","","","","","","","","","","",""
"","html-keyboard-response","332","333214","0.0-469.0","77hzvosf","1920","1080","","","","","","","","","","","null","+","Fixation - short","","null","","","","","","","","","","","","",""
"","html-keyboard-response","333","333940","0.0-470.0","77hzvosf","1920","1080","","","","","","","","","","","725","lff","Diagnostic trial","","f","8","0","false","true","LEFT","f","1","","RIGHT","false","","",""
"","html-keyboard-response","334","334692","0.0-473.0","77hzvosf","1920","1080","","","","","","","","","","","null","+","Fixation - short","","null","","","","","","","","","","","","",""
"","html-keyboard-response","335","335249","0.0-474.0","77hzvosf","1920","1080","","","","","","","","","","","556","saj","Diagnostic trial","","j","8","1","false","false","RIGHT","j","1","","LEFT","false","","",""
"","html-keyboard-response","336","336002","0.0-477.0","77hzvosf","1920","1080","","","","","","","","","","","null","+","Fixation - short","","null","","","","","","","","","","","","",""
"","html-keyboard-response","337","336501","0.0-478.0","77hzvosf","1920","1080","","","","","","","","","","","498","lff","Diagnostic trial","","j","8","2","false","false","RIGHT","j","1","","RIGHT","true","","",""
"","html-keyboard-response","338","337256","0.0-481.0","77hzvosf","1920","1080","","","","","","","","","","","null","+","Fixation - short","","null","","","","","","","","","","","","",""
"","html-keyboard-response","339","337756","0.0-482.0","77hzvosf","1920","1080","","","","","","","","","","","499","saj","Diagnostic trial","","f","8","3","false","true","LEFT","f","1","","LEFT","true","","",""
"","html-keyboard-response","340","338518","0.0-485.0","77hzvosf","1920","1080","","","","","","","","","","","null","+","Fixation - short","","null","","","","","","","","","","","","",""
"","html-keyboard-response","341","338932","0.0-486.0","77hzvosf","1920","1080","","","","","","","","","","","413","lff","Diagnostic trial","","j","8","4","false","false","RIGHT","j","1","","RIGHT","true","","",""
"","html-keyboard-response","342","339688","0.0-489.0","77hzvosf","1920","1080","","","","","","","","","","","null","+","Fixation - short","","null","","","","","","","","","","","","",""
"","html-keyboard-response","343","340342","0.0-490.0","77hzvosf","1920","1080","","","","","","","","","","","654","saj","Diagnostic trial","","j","8","5","false","false","RIGHT","j","1","","LEFT","false","","",""
"","html-keyboard-response","344","341097","0.0-493.0","77hzvosf","1920","1080","","","","","","","","","","","null","+","Fixation - short","","null","","","","","","","","","","","","",""
"","html-keyboard-response","345","341531","0.0-494.0","77hzvosf","1920","1080","","","","","","","","","","","433","lff","Diagnostic trial","","j","8","6","false","false","RIGHT","j","1","","RIGHT","true","","",""
"","html-keyboard-response","346","342292","0.0-497.0","77hzvosf","1920","1080","","","","","","","","","","","null","+","Fixation - short","","null","","","","","","","","","","","","",""
"","html-keyboard-response","347","342851","0.0-498.0","77hzvosf","1920","1080","","","","","","","","","","","559","saj","Diagnostic trial","","f","8","7","false","true","LEFT","f","1","","LEFT","true","","",""
"","html-keyboard-response","348","343614","0.0-501.0","77hzvosf","1920","1080","","","","","","","","","","","null","+","Fixation - short","","null","","","","","","","","","","","","",""
"","html-keyboard-response","349","344448","0.0-502.0","77hzvosf","1920","1080","","","","","","","","","","","834","lff","Inducer trial","","f","8","","true","","","j","0","RIGHT","","","","",""
"","call-function","350","344449","0.0-504.0-0.0","77hzvosf","","","","","","","","","","","","","","","","","","","","","","","","","","","","","",""
"","html-keyboard-response","351","344752","0.0-504.0-1.0","77hzvosf","1920","1080","","","","","","","","","","","null","Wrong","Feedback","","null","","","","","","","","","","","","",""
"","call-function","352","344752","0.0-504.0-2.0","77hzvosf","","","","","","","","","","","","","","","","","","","","","","","","","","","","","",""
"","html-keyboard-response","353","346268","0.0-505.0","77hzvosf","1920","1080","","","","","","","","","","","null","+","Fixation - long","","null","","","","","","","","","","","","",""
"","html-keyboard-response","354","349256","0.0-506.0","77hzvosf","1920","1080","","","","","","","","","","","2988","If pxv press LEFT | If ibg press RIGHT","Inducer instructions",""," ","9","","","","","","","","","","","",""
"","html-keyboard-response","355","350019","0.0-507.0","77hzvosf","1920","1080","","","","","","","","","","","null","+","Fixation - short","","null","","","","","","","","","","","","",""
"","html-keyboard-response","356","350646","0.0-508.0","77hzvosf","1920","1080","","","","","","","","","","","626","pxv","Diagnostic trial","","f","9","0","false","true","LEFT","f","1","","LEFT","true","","",""
"","html-keyboard-response","357","351396","0.0-511.0","77hzvosf","1920","1080","","","","","","","","","","","null","+","Fixation - short","","null","","","","","","","","","","","","",""
"","html-keyboard-response","358","351893","0.0-512.0","77hzvosf","1920","1080","","","","","","","","","","","496","pxv","Diagnostic trial","","j","9","1","false","false","RIGHT","j","1","","LEFT","false","","",""
"","html-keyboard-response","359","352657","0.0-515.0","77hzvosf","1920","1080","","","","","","","","","","","null","+","Fixation - short","","null","","","","","","","","","","","","",""
"","html-keyboard-response","360","353139","0.0-516.0","77hzvosf","1920","1080","","","","","","","","","","","481","ibg","Diagnostic trial","","j","9","2","false","false","RIGHT","j","1","","RIGHT","true","","",""
"","html-keyboard-response","361","353905","0.0-519.0","77hzvosf","1920","1080","","","","","","","","","","","null","+","Fixation - short","","null","","","","","","","","","","","","",""
"","html-keyboard-response","362","354447","0.0-520.0","77hzvosf","1920","1080","","","","","","","","","","","542","ibg","Diagnostic trial","","f","9","3","false","true","LEFT","f","1","","RIGHT","false","","",""
"","html-keyboard-response","363","355200","0.0-523.0","77hzvosf","1920","1080","","","","","","","","","","","null","+","Fixation - short","","null","","","","","","","","","","","","",""
"","html-keyboard-response","364","355697","0.0-524.0","77hzvosf","1920","1080","","","","","","","","","","","496","ibg","Diagnostic trial","","j","9","4","false","false","RIGHT","j","1","","RIGHT","true","","",""
"","html-keyboard-response","365","356460","0.0-527.0","77hzvosf","1920","1080","","","","","","","","","","","null","+","Fixation - short","","null","","","","","","","","","","","","",""
"","html-keyboard-response","366","356926","0.0-528.0","77hzvosf","1920","1080","","","","","","","","","","","465","pxv","Diagnostic trial","","f","9","5","false","true","LEFT","f","1","","LEFT","true","","",""
"","html-keyboard-response","367","357688","0.0-531.0","77hzvosf","1920","1080","","","","","","","","","","","null","+","Fixation - short","","null","","","","","","","","","","","","",""
"","html-keyboard-response","368","358350","0.0-532.0","77hzvosf","1920","1080","","","","","","","","","","","661","ibg","Diagnostic trial","","f","9","6","false","true","LEFT","f","1","","RIGHT","false","","",""
"","html-keyboard-response","369","359101","0.0-535.0","77hzvosf","1920","1080","","","","","","","","","","","null","+","Fixation - short","","null","","","","","","","","","","","","",""
"","html-keyboard-response","370","359516","0.0-536.0","77hzvosf","1920","1080","","","","","","","","","","","414","ibg","Diagnostic trial","","f","9","7","false","true","LEFT","f","1","","RIGHT","false","","",""
"","html-keyboard-response","371","360276","0.0-539.0","77hzvosf","1920","1080","","","","","","","","","","","null","+","Fixation - short","","null","","","","","","","","","","","","",""
"","html-keyboard-response","372","360897","0.0-540.0","77hzvosf","1920","1080","","","","","","","","","","","620","ibg","Diagnostic trial","","j","9","8","false","false","RIGHT","j","1","","RIGHT","true","","",""
"","html-keyboard-response","373","361652","0.0-543.0","77hzvosf","1920","1080","","","","","","","","","","","null","+","Fixation - short","","null","","","","","","","","","","","","",""
"","html-keyboard-response","374","362235","0.0-544.0","77hzvosf","1920","1080","","","","","","","","","","","582","pxv","Diagnostic trial","","f","9","9","false","true","LEFT","f","1","","LEFT","true","","",""
"","html-keyboard-response","375","362990","0.0-547.0","77hzvosf","1920","1080","","","","","","","","","","","null","+","Fixation - short","","null","","","","","","","","","","","","",""
"","html-keyboard-response","376","363574","0.0-548.0","77hzvosf","1920","1080","","","","","","","","","","","583","pxv","Inducer trial","","f","9","","true","","","f","1","LEFT","","","","",""
"","html-keyboard-response","377","365089","0.0-551.0","77hzvosf","1920","1080","","","","","","","","","","","null","+","Fixation - long","","null","","","","","","","","","","","","",""
"","html-keyboard-response","378","368724","0.0-552.0","77hzvosf","1920","1080","","","","","","","","","","","3635","If eeu press LEFT | If adj press RIGHT","Inducer instructions",""," ","10","","","","","","","","","","","",""
"","html-keyboard-response","379","369488","0.0-553.0","77hzvosf","1920","1080","","","","","","","","","","","null","+","Fixation - short","","null","","","","","","","","","","","","",""
"","html-keyboard-response","380","370098","0.0-554.0","77hzvosf","1920","1080","","","","","","","","","","","610","eeu","Diagnostic trial","","j","10","0","false","false","RIGHT","j","1","","LEFT","false","","",""
"","html-keyboard-response","381","370861","0.0-557.0","77hzvosf","1920","1080","","","","","","","","","","","null","+","Fixation - short","","null","","","","","","","","","","","","",""
"","html-keyboard-response","382","371332","0.0-558.0","77hzvosf","1920","1080","","","","","","","","","","","470","adj","Diagnostic trial","","j","10","1","false","false","RIGHT","j","1","","RIGHT","true","","",""
"","html-keyboard-response","383","372093","0.0-561.0","77hzvosf","1920","1080","","","","","","","","","","","null","+","Fixation - short","","null","","","","","","","","","","","","",""
"","html-keyboard-response","384","372615","0.0-562.0","77hzvosf","1920","1080","","","","","","","","","","","522","adj","Diagnostic trial","","f","10","2","false","true","LEFT","f","1","","RIGHT","false","","",""
"","html-keyboard-response","385","373370","0.0-565.0","77hzvosf","1920","1080","","","","","","","","","","","null","+","Fixation - short","","null","","","","","","","","","","","","",""
"","html-keyboard-response","386","373913","0.0-566.0","77hzvosf","1920","1080","","","","","","","","","","","543","adj","Diagnostic trial","","j","10","3","false","false","RIGHT","j","1","","RIGHT","true","","",""
"","html-keyboard-response","387","374672","0.0-569.0","77hzvosf","1920","1080","","","","","","","","","","","null","+","Fixation - short","","null","","","","","","","","","","","","",""
"","html-keyboard-response","388","375155","0.0-570.0","77hzvosf","1920","1080","","","","","","","","","","","482","adj","Diagnostic trial","","f","10","4","false","true","LEFT","f","1","","RIGHT","false","","",""
"","html-keyboard-response","389","375917","0.0-573.0","77hzvosf","1920","1080","","","","","","","","","","","null","+","Fixation - short","","null","","","","","","","","","","","","",""
"","html-keyboard-response","390","376402","0.0-574.0","77hzvosf","1920","1080","","","","","","","","","","","484","eeu","Diagnostic trial","","f","10","5","false","true","LEFT","f","1","","LEFT","true","","",""
"","html-keyboard-response","391","377159","0.0-577.0","77hzvosf","1920","1080","","","","","","","","","","","null","+","Fixation - short","","null","","","","","","","","","","","","",""
"","html-keyboard-response","392","377559","0.0-578.0","77hzvosf","1920","1080","","","","","","","","","","","399","eeu","Diagnostic trial","","f","10","6","false","true","LEFT","f","1","","LEFT","true","","",""
"","html-keyboard-response","393","378325","0.0-581.0","77hzvosf","1920","1080","","","","","","","","","","","null","+","Fixation - short","","null","","","","","","","","","","","","",""
"","html-keyboard-response","394","378846","0.0-582.0","77hzvosf","1920","1080","","","","","","","","","","","520","adj","Diagnostic trial","","f","10","7","false","true","LEFT","f","1","","RIGHT","false","","",""
"","html-keyboard-response","395","379602","0.0-585.0","77hzvosf","1920","1080","","","","","","","","","","","null","+","Fixation - short","","null","","","","","","","","","","","","",""
"","html-keyboard-response","396","380122","0.0-586.0","77hzvosf","1920","1080","","","","","","","","","","","520","eeu","Diagnostic trial","","j","10","8","false","false","RIGHT","j","1","","LEFT","false","","",""
"","html-keyboard-response","397","380887","0.0-589.0","77hzvosf","1920","1080","","","","","","","","","","","null","+","Fixation - short","","null","","","","","","","","","","","","",""
"","html-keyboard-response","398","381481","0.0-590.0","77hzvosf","1920","1080","","","","","","","","","","","593","adj","Inducer trial","","f","10","","true","","","j","0","RIGHT","","","","",""
"","call-function","399","381481","0.0-592.0-0.0","77hzvosf","","","","","","","","","","","","","","","","","","","","","","","","","","","","","",""
"","html-keyboard-response","400","381789","0.0-592.0-1.0","77hzvosf","1920","1080","","","","","","","","","","","null","Wrong","Feedback","","null","","","","","","","","","","","","",""
"","call-function","401","381790","0.0-592.0-2.0","77hzvosf","","","","","","","","","","","","","","","","","","","","","","","","","","","","","",""
"","html-keyboard-response","402","383303","0.0-593.0","77hzvosf","1920","1080","","","","","","","","","","","null","+","Fixation - long","","null","","","","","","","","","","","","",""
"","html-keyboard-response","403","385651","0.0-594.0","77hzvosf","1920","1080","","","","","","","","","","","2347","If ufc press LEFT | If xet press RIGHT","Inducer instructions",""," ","11","","","","","","","","","","","",""
"","html-keyboard-response","404","386408","0.0-595.0","77hzvosf","1920","1080","","","","","","","","","","","null","+","Fixation - short","","null","","","","","","","","","","","","",""
"","html-keyboard-response","405","387169","0.0-596.0","77hzvosf","1920","1080","","","","","","","","","","","761","xet","Diagnostic trial","","f","11","0","false","true","LEFT","f","1","","RIGHT","false","","",""
"","html-keyboard-response","406","387927","0.0-599.0","77hzvosf","1920","1080","","","","","","","","","","","null","+","Fixation - short","","null","","","","","","","","","","","","",""
"","html-keyboard-response","407","388493","0.0-600.0","77hzvosf","1920","1080","","","","","","","","","","","566","xet","Diagnostic trial","","f","11","1","false","true","LEFT","f","1","","RIGHT","false","","",""
"","html-keyboard-response","408","389251","0.0-603.0","77hzvosf","1920","1080","","","","","","","","","","","null","+","Fixation - short","","null","","","","","","","","","","","","",""
"","html-keyboard-response","409","389708","0.0-604.0","77hzvosf","1920","1080","","","","","","","","","","","457","xet","Diagnostic trial","","f","11","2","false","true","LEFT","f","1","","RIGHT","false","","",""
"","html-keyboard-response","410","390472","0.0-607.0","77hzvosf","1920","1080","","","","","","","","","","","null","+","Fixation - short","","null","","","","","","","","","","","","",""
"","html-keyboard-response","411","390922","0.0-608.0","77hzvosf","1920","1080","","","","","","","","","","","449","xet","Diagnostic trial","","f","11","3","false","true","LEFT","f","1","","RIGHT","false","","",""
"","html-keyboard-response","412","391686","0.0-611.0","77hzvosf","1920","1080","","","","","","","","","","","null","+","Fixation - short","","null","","","","","","","","","","","","",""
"","html-keyboard-response","413","392272","0.0-612.0","77hzvosf","1920","1080","","","","","","","","","","","585","xet","Diagnostic trial","","j","11","4","false","false","RIGHT","j","1","","RIGHT","true","","",""
"","html-keyboard-response","414","393032","0.0-615.0","77hzvosf","1920","1080","","","","","","","","","","","null","+","Fixation - short","","null","","","","","","","","","","","","",""
"","html-keyboard-response","415","393563","0.0-616.0","77hzvosf","1920","1080","","","","","","","","","","","531","xet","Diagnostic trial","","f","11","5","false","true","LEFT","f","1","","RIGHT","false","","",""
"","html-keyboard-response","416","394327","0.0-619.0","77hzvosf","1920","1080","","","","","","","","","","","null","+","Fixation - short","","null","","","","","","","","","","","","",""
"","html-keyboard-response","417","394879","0.0-620.0","77hzvosf","1920","1080","","","","","","","","","","","552","xet","Diagnostic trial","","j","11","6","false","false","RIGHT","j","1","","RIGHT","true","","",""
"","html-keyboard-response","418","395636","0.0-623.0","77hzvosf","1920","1080","","","","","","","","","","","null","+","Fixation - short","","null","","","","","","","","","","","","",""
"","html-keyboard-response","419","396173","0.0-624.0","77hzvosf","1920","1080","","","","","","","","","","","536","ufc","Diagnostic trial","","f","11","7","false","true","LEFT","f","1","","LEFT","true","","",""
"","html-keyboard-response","420","396930","0.0-627.0","77hzvosf","1920","1080","","","","","","","","","","","null","+","Fixation - short","","null","","","","","","","","","","","","",""
"","html-keyboard-response","421","397378","0.0-628.0","77hzvosf","1920","1080","","","","","","","","","","","447","ufc","Diagnostic trial","","j","11","8","false","false","RIGHT","j","1","","LEFT","false","","",""
"","html-keyboard-response","422","398137","0.0-631.0","77hzvosf","1920","1080","","","","","","","","","","","null","+","Fixation - short","","null","","","","","","","","","","","","",""
"","html-keyboard-response","423","398667","0.0-632.0","77hzvosf","1920","1080","","","","","","","","","","","530","ufc","Diagnostic trial","","j","11","9","false","false","RIGHT","j","1","","LEFT","false","","",""
"","html-keyboard-response","424","399424","0.0-635.0","77hzvosf","1920","1080","","","","","","","","","","","null","+","Fixation - short","","null","","","","","","","","","","","","",""
"","html-keyboard-response","425","399929","0.0-636.0","77hzvosf","1920","1080","","","","","","","","","","","505","ufc","Diagnostic trial","","f","11","10","false","true","LEFT","f","1","","LEFT","true","","",""
"","html-keyboard-response","426","400688","0.0-639.0","77hzvosf","1920","1080","","","","","","","","","","","null","+","Fixation - short","","null","","","","","","","","","","","","",""
"","html-keyboard-response","427","401150","0.0-640.0","77hzvosf","1920","1080","","","","","","","","","","","462","ufc","Diagnostic trial","","j","11","11","false","false","RIGHT","j","1","","LEFT","false","","",""
"","html-keyboard-response","428","401915","0.0-643.0","77hzvosf","1920","1080","","","","","","","","","","","null","+","Fixation - short","","null","","","","","","","","","","","","",""
"","html-keyboard-response","429","402543","0.0-644.0","77hzvosf","1920","1080","","","","","","","","","","","627","xet","Diagnostic trial","","j","11","12","false","false","RIGHT","j","1","","RIGHT","true","","",""
"","html-keyboard-response","430","403307","0.0-647.0","77hzvosf","1920","1080","","","","","","","","","","","null","+","Fixation - short","","null","","","","","","","","","","","","",""
"","html-keyboard-response","431","404343","0.0-648.0","77hzvosf","1920","1080","","","","","","","","","","","1035","ufc","Diagnostic trial","","j","11","13","false","false","RIGHT","j","1","","LEFT","false","","",""
"","html-keyboard-response","432","405108","0.0-651.0","77hzvosf","1920","1080","","","","","","","","","","","null","+","Fixation - short","","null","","","","","","","","","","","","",""
"","html-keyboard-response","433","405693","0.0-652.0","77hzvosf","1920","1080","","","","","","","","","","","585","xet","Diagnostic trial","","f","11","14","false","true","LEFT","f","1","","RIGHT","false","","",""
"","html-keyboard-response","434","406459","0.0-655.0","77hzvosf","1920","1080","","","","","","","","","","","null","+","Fixation - short","","null","","","","","","","","","","","","",""
"","html-keyboard-response","435","407106","0.0-656.0","77hzvosf","1920","1080","","","","","","","","","","","646","ufc","Diagnostic trial","","j","11","15","false","false","RIGHT","j","1","","LEFT","false","","",""
"","html-keyboard-response","436","407865","0.0-659.0","77hzvosf","1920","1080","","","","","","","","","","","null","+","Fixation - short","","null","","","","","","","","","","","","",""
"","html-keyboard-response","437","408706","0.0-660.0","77hzvosf","1920","1080","","","","","","","","","","","840","xet","Inducer trial","","j","11","","true","","","j","1","RIGHT","","","","",""
"","html-keyboard-response","438","410213","0.0-663.0","77hzvosf","1920","1080","","","","","","","","","","","null","+","Fixation - long","","null","","","","","","","","","","","","",""
"","html-keyboard-response","439","414152","0.0-664.0","77hzvosf","1920","1080","","","","","","","","","","","3938","If bgi press LEFT | If efg press RIGHT","Inducer instructions",""," ","12","","","","","","","","","","","",""
"","html-keyboard-response","440","414903","0.0-665.0","77hzvosf","1920","1080","","","","","","","","","","","null","+","Fixation - short","","null","","","","","","","","","","","","",""
"","html-keyboard-response","441","415478","0.0-666.0","77hzvosf","1920","1080","","","","","","","","","","","575","efg","Diagnostic trial","","j","12","0","false","false","RIGHT","j","1","","RIGHT","true","","",""
"","html-keyboard-response","442","416238","0.0-669.0","77hzvosf","1920","1080","","","","","","","","","","","null","+","Fixation - short","","null","","","","","","","","","","","","",""
"","html-keyboard-response","443","416762","0.0-670.0","77hzvosf","1920","1080","","","","","","","","","","","523","bgi","Diagnostic trial","","f","12","1","false","true","LEFT","f","1","","LEFT","true","","",""
"","html-keyboard-response","444","417525","0.0-673.0","77hzvosf","1920","1080","","","","","","","","","","","null","+","Fixation - short","","null","","","","","","","","","","","","",""
"","html-keyboard-response","445","418175","0.0-674.0","77hzvosf","1920","1080","","","","","","","","","","","650","efg","Diagnostic trial","","f","12","2","false","true","LEFT","f","1","","RIGHT","false","","",""
"","html-keyboard-response","446","418928","0.0-677.0","77hzvosf","1920","1080","","","","","","","","","","","null","+","Fixation - short","","null","","","","","","","","","","","","",""
"","html-keyboard-response","447","419508","0.0-678.0","77hzvosf","1920","1080","","","","","","","","","","","579","bgi","Diagnostic trial","","j","12","3","false","false","RIGHT","j","1","","LEFT","false","","",""
"","html-keyboard-response","448","420273","0.0-681.0","77hzvosf","1920","1080","","","","","","","","","","","null","+","Fixation - short","","null","","","","","","","","","","","","",""
"","html-keyboard-response","449","420785","0.0-682.0","77hzvosf","1920","1080","","","","","","","","","","","524","bgi","Diagnostic trial","","j","12","4","false","false","RIGHT","j","1","","LEFT","false","","",""
"","html-keyboard-response","450","421542","0.0-685.0","77hzvosf","1920","1080","","","","","","","","","","","null","+","Fixation - short","","null","","","","","","","","","","","","",""
"","html-keyboard-response","451","422018","0.0-686.0","77hzvosf","1920","1080","","","","","","","","","","","475","bgi","Diagnostic trial","","j","12","5","false","false","RIGHT","j","1","","LEFT","false","","",""
"","html-keyboard-response","452","422774","0.0-689.0","77hzvosf","1920","1080","","","","","","","","","","","null","+","Fixation - short","","null","","","","","","","","","","","","",""
"","html-keyboard-response","453","423234","0.0-690.0","77hzvosf","1920","1080","","","","","","","","","","","460","bgi","Diagnostic trial","","f","12","6","false","true","LEFT","f","1","","LEFT","true","","",""
"","html-keyboard-response","454","423993","0.0-693.0","77hzvosf","1920","1080","","","","","","","","","","","null","+","Fixation - short","","null","","","","","","","","","","","","",""
"","html-keyboard-response","455","424583","0.0-694.0","77hzvosf","1920","1080","","","","","","","","","","","590","bgi","Diagnostic trial","","j","12","7","false","false","RIGHT","j","1","","LEFT","false","","",""
"","html-keyboard-response","456","425342","0.0-697.0","77hzvosf","1920","1080","","","","","","","","","","","null","+","Fixation - short","","null","","","","","","","","","","","","",""
"","html-keyboard-response","457","425883","0.0-698.0","77hzvosf","1920","1080","","","","","","","","","","","540","bgi","Diagnostic trial","","f","12","8","false","true","LEFT","f","1","","LEFT","true","","",""
"","html-keyboard-response","458","426638","0.0-701.0","77hzvosf","1920","1080","","","","","","","","","","","null","+","Fixation - short","","null","","","","","","","","","","","","",""
"","html-keyboard-response","459","427058","0.0-702.0","77hzvosf","1920","1080","","","","","","","","","","","420","bgi","Diagnostic trial","","j","12","9","false","false","RIGHT","j","1","","LEFT","false","","",""
"","html-keyboard-response","460","427820","0.0-705.0","77hzvosf","1920","1080","","","","","","","","","","","null","+","Fixation - short","","null","","","","","","","","","","","","",""
"","html-keyboard-response","461","428305","0.0-706.0","77hzvosf","1920","1080","","","","","","","","","","","484","efg","Diagnostic trial","","j","12","10","false","false","RIGHT","j","1","","RIGHT","true","","",""
"","html-keyboard-response","462","429065","0.0-709.0","77hzvosf","1920","1080","","","","","","","","","","","null","+","Fixation - short","","null","","","","","","","","","","","","",""
"","html-keyboard-response","463","429629","0.0-710.0","77hzvosf","1920","1080","","","","","","","","","","","563","efg","Diagnostic trial","","f","12","11","false","true","LEFT","f","1","","RIGHT","false","","",""
"","html-keyboard-response","464","430395","0.0-713.0","77hzvosf","1920","1080","","","","","","","","","","","null","+","Fixation - short","","null","","","","","","","","","","","","",""
"","html-keyboard-response","465","431103","0.0-714.0","77hzvosf","1920","1080","","","","","","","","","","","707","bgi","Diagnostic trial","","f","12","12","false","true","LEFT","f","1","","LEFT","true","","",""
"","html-keyboard-response","466","431861","0.0-717.0","77hzvosf","1920","1080","","","","","","","","","","","null","+","Fixation - short","","null","","","","","","","","","","","","",""
"","html-keyboard-response","467","432598","0.0-718.0","77hzvosf","1920","1080","","","","","","","","","","","736","efg","Inducer trial","","j","12","","true","","","j","1","RIGHT","","","","",""
"","html-keyboard-response","468","434110","0.0-721.0","77hzvosf","1920","1080","","","","","","","","","","","null","+","Fixation - long","","null","","","","","","","","","","","","",""
"","html-keyboard-response","469","437327","0.0-722.0","77hzvosf","1920","1080","","","","","","","","","","","3216","If ebe press LEFT | If ydi press RIGHT","Inducer instructions",""," ","13","","","","","","","","","","","",""
"","html-keyboard-response","470","438093","0.0-723.0","77hzvosf","1920","1080","","","","","","","","","","","null","+","Fixation - short","","null","","","","","","","","","","","","",""
"","html-keyboard-response","471","439346","0.0-724.0","77hzvosf","1920","1080","","","","","","","","","","","1252","ebe","Diagnostic trial","","f","13","0","false","true","LEFT","f","1","","LEFT","true","","",""
"","html-keyboard-response","472","440112","0.0-727.0","77hzvosf","1920","1080","","","","","","","","","","","null","+","Fixation - short","","null","","","","","","","","","","","","",""
"","html-keyboard-response","473","440593","0.0-728.0","77hzvosf","1920","1080","","","","","","","","","","","480","ebe","Diagnostic trial","","j","13","1","false","false","RIGHT","j","1","","LEFT","false","","",""
"","html-keyboard-response","474","441348","0.0-731.0","77hzvosf","1920","1080","","","","","","","","","","","null","+","Fixation - short","","null","","","","","","","","","","","","",""
"","html-keyboard-response","475","441802","0.0-732.0","77hzvosf","1920","1080","","","","","","","","","","","454","ebe","Diagnostic trial","","j","13","2","false","false","RIGHT","j","1","","LEFT","false","","",""
"","html-keyboard-response","476","442563","0.0-735.0","77hzvosf","1920","1080","","","","","","","","","","","null","+","Fixation - short","","null","","","","","","","","","","","","",""
"","html-keyboard-response","477","443127","0.0-736.0","77hzvosf","1920","1080","","","","","","","","","","","564","ydi","Diagnostic trial","","f","13","3","false","true","LEFT","f","1","","RIGHT","false","","",""
"","html-keyboard-response","478","443878","0.0-739.0","77hzvosf","1920","1080","","","","","","","","","","","null","+","Fixation - short","","null","","","","","","","","","","","","",""
"","html-keyboard-response","479","444445","0.0-740.0","77hzvosf","1920","1080","","","","","","","","","","","566","ebe","Diagnostic trial","","f","13","4","false","true","LEFT","f","1","","LEFT","true","","",""
"","html-keyboard-response","480","445211","0.0-743.0","77hzvosf","1920","1080","","","","","","","","","","","null","+","Fixation - short","","null","","","","","","","","","","","","",""
"","html-keyboard-response","481","445877","0.0-744.0","77hzvosf","1920","1080","","","","","","","","","","","665","ebe","Diagnostic trial","","j","13","5","false","false","RIGHT","j","1","","LEFT","false","","",""
"","html-keyboard-response","482","446632","0.0-747.0","77hzvosf","1920","1080","","","","","","","","","","","null","+","Fixation - short","","null","","","","","","","","","","","","",""
"","html-keyboard-response","483","447216","0.0-748.0","77hzvosf","1920","1080","","","","","","","","","","","584","ebe","Diagnostic trial","","f","13","6","false","true","LEFT","f","1","","LEFT","true","","",""
"","html-keyboard-response","484","447976","0.0-751.0","77hzvosf","1920","1080","","","","","","","","","","","null","+","Fixation - short","","null","","","","","","","","","","","","",""
"","html-keyboard-response","485","448543","0.0-752.0","77hzvosf","1920","1080","","","","","","","","","","","567","ydi","Diagnostic trial","","j","13","7","false","false","RIGHT","j","1","","RIGHT","true","","",""
"","html-keyboard-response","486","449299","0.0-755.0","77hzvosf","1920","1080","","","","","","","","","","","null","+","Fixation - short","","null","","","","","","","","","","","","",""
"","html-keyboard-response","487","449850","0.0-756.0","77hzvosf","1920","1080","","","","","","","","","","","550","ydi","Diagnostic trial","","f","13","8","false","true","LEFT","f","1","","RIGHT","false","","",""
"","html-keyboard-response","488","450608","0.0-759.0","77hzvosf","1920","1080","","","","","","","","","","","null","+","Fixation - short","","null","","","","","","","","","","","","",""
"","html-keyboard-response","489","451625","0.0-760.0","77hzvosf","1920","1080","","","","","","","","","","","1016","ebe","Inducer trial","","f","13","","true","","","f","1","LEFT","","","","",""
"","html-keyboard-response","490","453131","0.0-763.0","77hzvosf","1920","1080","","","","","","","","","","","null","+","Fixation - long","","null","","","","","","","","","","","","",""
"","html-keyboard-response","491","455512","0.0-764.0","77hzvosf","1920","1080","","","","","","","","","","","2380","If bms press LEFT | If ofa press RIGHT","Inducer instructions",""," ","14","","","","","","","","","","","",""
"","html-keyboard-response","492","456264","0.0-765.0","77hzvosf","1920","1080","","","","","","","","","","","null","+","Fixation - short","","null","","","","","","","","","","","","",""
"","html-keyboard-response","493","456909","0.0-766.0","77hzvosf","1920","1080","","","","","","","","","","","645","bms","Diagnostic trial","","f","14","0","false","true","LEFT","f","1","","LEFT","true","","",""
"","html-keyboard-response","494","457668","0.0-769.0","77hzvosf","1920","1080","","","","","","","","","","","null","+","Fixation - short","","null","","","","","","","","","","","","",""
"","html-keyboard-response","495","458176","0.0-770.0","77hzvosf","1920","1080","","","","","","","","","","","507","bms","Diagnostic trial","","f","14","1","false","true","LEFT","f","1","","LEFT","true","","",""
"","html-keyboard-response","496","458930","0.0-773.0","77hzvosf","1920","1080","","","","","","","","","","","null","+","Fixation - short","","null","","","","","","","","","","","","",""
"","html-keyboard-response","497","459413","0.0-774.0","77hzvosf","1920","1080","","","","","","","","","","","482","ofa","Diagnostic trial","","f","14","2","false","true","LEFT","f","1","","RIGHT","false","","",""
"","html-keyboard-response","498","460167","0.0-777.0","77hzvosf","1920","1080","","","","","","","","","","","null","+","Fixation - short","","null","","","","","","","","","","","","",""
"","html-keyboard-response","499","460657","0.0-778.0","77hzvosf","1920","1080","","","","","","","","","","","490","ofa","Diagnostic trial","","f","14","3","false","true","LEFT","f","1","","RIGHT","false","","",""
"","html-keyboard-response","500","461419","0.0-781.0","77hzvosf","1920","1080","","","","","","","","","","","null","+","Fixation - short","","null","","","","","","","","","","","","",""
"","html-keyboard-response","501","461909","0.0-782.0","77hzvosf","1920","1080","","","","","","","","","","","489","ofa","Diagnostic trial","","f","14","4","false","true","LEFT","f","1","","RIGHT","false","","",""
"","html-keyboard-response","502","462661","0.0-785.0","77hzvosf","1920","1080","","","","","","","","","","","null","+","Fixation - short","","null","","","","","","","","","","","","",""
"","html-keyboard-response","503","464068","0.0-786.0","77hzvosf","1920","1080","","","","","","","","","","","1405","ofa","Inducer trial","","j","14","","true","","","j","1","RIGHT","","","","",""
"","html-keyboard-response","504","465569","0.0-789.0","77hzvosf","1920","1080","","","","","","","","","","","null","+","Fixation - long","","null","","","","","","","","","","","","",""
"","html-keyboard-response","505","467939","0.0-790.0","77hzvosf","1920","1080","","","","","","","","","","","2369","If asn press LEFT | If dlg press RIGHT","Inducer instructions",""," ","15","","","","","","","","","","","",""
"","html-keyboard-response","506","468701","0.0-791.0","77hzvosf","1920","1080","","","","","","","","","","","null","+","Fixation - short","","null","","","","","","","","","","","","",""
"","html-keyboard-response","507","469781","0.0-792.0","77hzvosf","1920","1080","","","","","","","","","","","1080","asn","Diagnostic trial","","j","15","0","false","false","RIGHT","j","1","","LEFT","false","","",""
