"value","trial_type","trial_index","time_elapsed","internal_node_id","id","width","height","webaudio","browser","browser_version","mobile","os","fullscreen","vsync_rate","webcam","microphone","view_history","rt","stimulus","trial_info","success","response","inducer_run","diagnostic_run","inducer_trial","italic","correct_diag_response_side","correct_response_key","correct_response","correct_indu_response_side","correct_inducer_response_side","congruent","accuracy","open_feedback","interactive"
"","call-function","0","5","0.0-0.0","4qayywxb","","","","","","","","","","","","","","","","","","","","","","","","","","","","","",""
"","browser-check","1","1010","0.0-1.0","4qayywxb","620","559","true","chrome","120.0.0","false","Windows 10","true","60.21","true","true","","","","","","","","","","","","","","","","","","",""
"","instructions","2","102445","0.0-2.0","4qayywxb","","","","","","","","","","","","[{""page_index"":0,""viewing_time"":64077},{""page_index"":1,""viewing_time"":34401},{""page_index"":2,""viewing_time"":2943}]","101422","The experiment and consent","The experiment and consent","","","","","","","","","","","","","","",""
"","fullscreen","3","104978","0.0-3.0","4qayywxb","1280","720","","","","","","","","","","","1514","","Full screen","true","","","","","","","","","","","","","",""
"","instructions","4","130412","0.0-4.0","4qayywxb","1280","720","","","","","","","","","","[{""page_index"":0,""viewing_time"":12928},{""page_index"":1,""viewing_time"":12505}]","25433","Instructions","Basic overview explanation","","","","","","","","","","","","","","",""
"","html-keyboard-response","5","143965","0.0-5.0","4qayywxb","1280","720","","","","","","","","","","","12050","If italic press LEFT | If upright press RIGHT","Diagnostic instructions",""," ","","","","","","","","","","","","",""
"","html-keyboard-response","6","144726","0.0-6.0","4qayywxb","1280","720","","","","","","","","","","","null","+","Fixation - short","","null","","","","","","","","","","","","",""
"","html-keyboard-response","7","145773","0.0-7.0","4qayywxb","1280","720","","","","","","","","","","","1045","mik","Practice diganostic trial","","j","practice","0","false","0","RIGHT","j","1","","","","","",""
"","html-keyboard-response","8","146528","0.0-10.0","4qayywxb","1280","720","","","","","","","","","","","null","+","Fixation - short","","null","","","","","","","","","","","","",""
"","html-keyboard-response","9","146939","0.0-11.0","4qayywxb","1280","720","","","","","","","","","","","410","mik","Practice diganostic trial","","j","practice","1","false","0","RIGHT","j","1","","","","","",""
"","html-keyboard-response","10","147702","0.0-14.0","4qayywxb","1280","720","","","","","","","","","","","null","+","Fixation - short","","null","","","","","","","","","","","","",""
"","html-keyboard-response","11","148053","0.0-15.0","4qayywxb","1280","720","","","","","","","","","","","350","mik","Practice diganostic trial","","j","practice","2","false","0","RIGHT","j","1","","","","","",""
"","html-keyboard-response","12","148818","0.0-18.0","4qayywxb","1280","720","","","","","","","","","","","null","+","Fixation - short","","null","","","","","","","","","","","","",""
"","html-keyboard-response","13","149202","0.0-19.0","4qayywxb","1280","720","","","","","","","","","","","383","asn","Practice diganostic trial","","f","practice","3","false","1","LEFT","f","1","","","","","",""
"","html-keyboard-response","14","149961","0.0-22.0","4qayywxb","1280","720","","","","","","","","","","","null","+","Fixation - short","","null","","","","","","","","","","","","",""
"","html-keyboard-response","15","150438","0.0-23.0","4qayywxb","1280","720","","","","","","","","","","","475","asn","Practice diganostic trial","","j","practice","4","false","0","RIGHT","j","1","","","","","",""
"","html-keyboard-response","16","151200","0.0-26.0","4qayywxb","1280","720","","","","","","","","","","","null","+","Fixation - short","","null","","","","","","","","","","","","",""
"","html-keyboard-response","17","151486","0.0-27.0","4qayywxb","1280","720","","","","","","","","","","","285","mik","Practice diganostic trial","","f","practice","5","false","1","LEFT","f","1","","","","","",""
"","html-keyboard-response","18","152251","0.0-30.0","4qayywxb","1280","720","","","","","","","","","","","null","+","Fixation - short","","null","","","","","","","","","","","","",""
"","html-keyboard-response","19","152679","0.0-31.0","4qayywxb","1280","720","","","","","","","","","","","427","mik","Practice diganostic trial","","f","practice","6","false","1","LEFT","f","1","","","","","",""
"","html-keyboard-response","20","153444","0.0-34.0","4qayywxb","1280","720","","","","","","","","","","","null","+","Fixation - short","","null","","","","","","","","","","","","",""
"","html-keyboard-response","21","153776","0.0-35.0","4qayywxb","1280","720","","","","","","","","","","","331","mik","Practice diganostic trial","","f","practice","7","false","1","LEFT","f","1","","","","","",""
"","html-keyboard-response","22","154540","0.0-38.0","4qayywxb","1280","720","","","","","","","","","","","null","+","Fixation - short","","null","","","","","","","","","","","","",""
"","html-keyboard-response","23","154807","0.0-39.0","4qayywxb","1280","720","","","","","","","","","","","266","mik","Practice diganostic trial","","f","practice","8","false","1","LEFT","f","1","","","","","",""
"","html-keyboard-response","24","155560","0.0-42.0","4qayywxb","1280","720","","","","","","","","","","","null","+","Fixation - short","","null","","","","","","","","","","","","",""
"","html-keyboard-response","25","155877","0.0-43.0","4qayywxb","1280","720","","","","","","","","","","","317","mik","Practice diganostic trial","","f","practice","9","false","1","LEFT","f","1","","","","","",""
"","html-keyboard-response","26","156642","0.0-46.0","4qayywxb","1280","720","","","","","","","","","","","null","+","Fixation - short","","null","","","","","","","","","","","","",""
"","html-keyboard-response","27","156904","0.0-47.0","4qayywxb","1280","720","","","","","","","","","","","261","mik","Practice diganostic trial","","f","practice","10","false","1","LEFT","f","1","","","","","",""
"","html-keyboard-response","28","157661","0.0-50.0","4qayywxb","1280","720","","","","","","","","","","","null","+","Fixation - short","","null","","","","","","","","","","","","",""
"","html-keyboard-response","29","157934","0.0-51.0","4qayywxb","1280","720","","","","","","","","","","","272","mik","Practice diganostic trial","","f","practice","11","false","0","RIGHT","j","0","","","","","",""
"","call-function","30","157935","0.0-53.0-0.0","4qayywxb","","","","","","","","","","","","","","","","","","","","","","","","","","","","","",""
"","html-keyboard-response","31","158242","0.0-53.0-1.0","4qayywxb","1280","720","","","","","","","","","","","null","Wrong","Feedback","","null","","","","","","","","","","","","",""
"","call-function","32","158243","0.0-53.0-2.0","4qayywxb","","","","","","","","","","","","","","","","","","","","","","","","","","","","","",""
"","html-keyboard-response","33","158994","0.0-54.0","4qayywxb","1280","720","","","","","","","","","","","null","+","Fixation - short","","null","","","","","","","","","","","","",""
"","html-keyboard-response","34","159390","0.0-55.0","4qayywxb","1280","720","","","","","","","","","","","396","asn","Practice diganostic trial","","f","practice","12","false","1","LEFT","f","1","","","","","",""
"","html-keyboard-response","35","160154","0.0-58.0","4qayywxb","1280","720","","","","","","","","","","","null","+","Fixation - short","","null","","","","","","","","","","","","",""
"","html-keyboard-response","36","160517","0.0-59.0","4qayywxb","1280","720","","","","","","","","","","","361","asn","Practice diganostic trial","","j","practice","13","false","0","RIGHT","j","1","","","","","",""
"","html-keyboard-response","37","161270","0.0-62.0","4qayywxb","1280","720","","","","","","","","","","","null","+","Fixation - short","","null","","","","","","","","","","","","",""
"","html-keyboard-response","38","161700","0.0-63.0","4qayywxb","1280","720","","","","","","","","","","","429","mik","Practice diganostic trial","","j","practice","14","false","0","RIGHT","j","1","","","","","",""
"","html-keyboard-response","39","162459","0.0-66.0","4qayywxb","1280","720","","","","","","","","","","","null","+","Fixation - short","","null","","","","","","","","","","","","",""
"","html-keyboard-response","40","162779","0.0-67.0","4qayywxb","1280","720","","","","","","","","","","","319","mik","Practice diganostic trial","","j","practice","15","false","0","RIGHT","j","1","","","","","",""
"","html-keyboard-response","41","163542","0.0-70.0","4qayywxb","1280","720","","","","","","","","","","","null","+","Fixation - short","","null","","","","","","","","","","","","",""
"","instructions","42","166941","0.0-71.0","4qayywxb","1280","720","","","","","","","","","","[{""page_index"":0,""viewing_time"":3398}]","3398","Instructions","Final experiment explanation","","","","","","","","","","","","","","",""
"","html-keyboard-response","43","174116","0.0-72.0","4qayywxb","1280","720","","","","","","","","","","","5664","If uus press LEFT | If dnc press RIGHT","Practice inducer instructions",""," ","practice","","","","","","","","","","","",""
"","html-keyboard-response","44","175449","0.0-73.0","4qayywxb","1280","720","","","","","","","","","","","1331","","Practice inducer trial","","f","practice","","true","","","f","1","LEFT","","","","",""
"","html-keyboard-response","45","176211","0.0-76.0","4qayywxb","1280","720","","","","","","","","","","","null","+","Fixation - short","","null","","","","","","","","","","","","",""
"","html-keyboard-response","46","181177","0.0-77.0","4qayywxb","1280","720","","","","","","","","","","","4964","If slu press LEFT | If otr press RIGHT","Practice inducer instructions",""," ","practice","","","","","","","","","","","",""
"","html-keyboard-response","47","181844","0.0-78.0","4qayywxb","1280","720","","","","","","","","","","","667","","Practice inducer trial","","f","practice","","true","","","f","1","LEFT","","","","",""
"","html-keyboard-response","48","182608","0.0-81.0","4qayywxb","1280","720","","","","","","","","","","","null","+","Fixation - short","","null","","","","","","","","","","","","",""
"","html-keyboard-response","49","185134","0.0-82.0","4qayywxb","1280","720","","","","","","","","","","","2524","If zpl press LEFT | If jup press RIGHT","Practice inducer instructions",""," ","practice","","","","","","","","","","","",""
"","html-keyboard-response","50","186360","0.0-83.0","4qayywxb","1280","720","","","","","","","","","","","1225","","Practice inducer trial","","j","practice","","true","","","j","1","RIGHT","","","","",""
"","html-keyboard-response","51","187126","0.0-86.0","4qayywxb","1280","720","","","","","","","","","","","null","+","Fixation - short","","null","","","","","","","","","","","","",""
"","html-keyboard-response","52","190441","0.0-87.0","4qayywxb","1280","720","","","","","","","","","","","3313","If rbc press LEFT | If ttm press RIGHT","Practice inducer instructions",""," ","practice","","","","","","","","","","","",""
"","html-keyboard-response","53","191100","0.0-88.0","4qayywxb","1280","720","","","","","","","","","","","658","","Practice inducer trial","","j","practice","","true","","","j","1","RIGHT","","","","",""
"","html-keyboard-response","54","191859","0.0-91.0","4qayywxb","1280","720","","","","","","","","","","","null","+","Fixation - short","","null","","","","","","","","","","","","",""
"","html-keyboard-response","55","194977","0.0-92.0","4qayywxb","1280","720","","","","","","","","","","","3116","If hrc press LEFT | If rif press RIGHT","Practice inducer instructions",""," ","practice","","","","","","","","","","","",""
"","html-keyboard-response","56","195755","0.0-93.0","4qayywxb","1280","720","","","","","","","","","","","778","","Practice inducer trial","","f","practice","","true","","","f","1","LEFT","","","","",""
"","html-keyboard-response","57","196519","0.0-96.0","4qayywxb","1280","720","","","","","","","","","","","null","+","Fixation - short","","null","","","","","","","","","","","","",""
"","html-keyboard-response","58","198538","0.0-97.0","4qayywxb","1280","720","","","","","","","","","","","2018","If nga press LEFT | If mvv press RIGHT","Practice inducer instructions",""," ","practice","","","","","","","","","","","",""
"","html-keyboard-response","59","199188","0.0-98.0","4qayywxb","1280","720","","","","","","","","","","","649","","Practice inducer trial","","j","practice","","true","","","j","1","RIGHT","","","","",""
"","html-keyboard-response","60","199951","0.0-101.0","4qayywxb","1280","720","","","","","","","","","","","null","+","Fixation - short","","null","","","","","","","","","","","","",""
"","html-keyboard-response","61","209168","0.0-102.0","4qayywxb","1280","720","","","","","","","","","","","9215","End practice","End of practice",""," ","","","","","","","","","","","","",""
"","html-keyboard-response","62","210678","0.0-103.0","4qayywxb","1280","720","","","","","","","","","","","null","+","Fixation - long","","null","","","","","","","","","","","","",""
"","html-keyboard-response","63","214110","0.0-104.0","4qayywxb","1280","720","","","","","","","","","","","3431","If uen press LEFT | If dgv press RIGHT","Inducer instructions",""," ","0","","","","","","","","","","","",""
"","html-keyboard-response","64","214878","0.0-105.0","4qayywxb","1280","720","","","","","","","","","","","null","+","Fixation - short","","null","","","","","","","","","","","","",""
"","html-keyboard-response","65","215326","0.0-106.0","4qayywxb","1280","720","","","","","","","","","","","447","uen","Diagnostic trial","","f","0","0","false","true","LEFT","f","1","","LEFT","true","","",""
"","html-keyboard-response","66","216087","0.0-109.0","4qayywxb","1280","720","","","","","","","","","","","null","+","Fixation - short","","null","","","","","","","","","","","","",""
"","html-keyboard-response","67","216750","0.0-110.0","4qayywxb","1280","720","","","","","","","","","","","662","dgv","Diagnostic trial","","j","0","1","false","true","LEFT","f","0","","RIGHT","false","","",""
"","call-function","68","216751","0.0-112.0-0.0","4qayywxb","","","","","","","","","","","","","","","","","","","","","","","","","","","","","",""
"","html-keyboard-response","69","217058","0.0-112.0-1.0","4qayywxb","1280","720","","","","","","","","","","","null","Wrong","Feedback","","null","","","","","","","","","","","","",""
"","call-function","70","217058","0.0-112.0-2.0","4qayywxb","","","","","","","","","","","","","","","","","","","","","","","","","","","","","",""
"","html-keyboard-response","71","217812","0.0-113.0","4qayywxb","1280","720","","","","","","","","","","","null","+","Fixation - short","","null","","","","","","","","","","","","",""
"","html-keyboard-response","72","219517","0.0-114.0","4qayywxb","1280","720","","","","","","","","","","","1704","uen","Diagnostic trial","","j","0","2","false","false","RIGHT","j","1","","LEFT","false","","",""
"","html-keyboard-response","73","220271","0.0-117.0","4qayywxb","1280","720","","","","","","","","","","","null","+","Fixation - short","","null","","","","","","","","","","","","",""
"","html-keyboard-response","74","220949","0.0-118.0","4qayywxb","1280","720","","","","","","","","","","","676","dgv","Diagnostic trial","","f","0","3","false","true","LEFT","f","1","","RIGHT","false","","",""
"","html-keyboard-response","75","221716","0.0-121.0","4qayywxb","1280","720","","","","","","","","","","","null","+","Fixation - short","","null","","","","","","","","","","","","",""
"","html-keyboard-response","76","223526","0.0-122.0","4qayywxb","1280","720","","","","","","","","","","","1809","uen","Diagnostic trial","","j","0","4","false","false","RIGHT","j","1","","LEFT","false","","",""
"","html-keyboard-response","77","224282","0.0-125.0","4qayywxb","1280","720","","","","","","","","","","","null","+","Fixation - short","","null","","","","","","","","","","","","",""
"","html-keyboard-response","78","224811","0.0-126.0","4qayywxb","1280","720","","","","","","","","","","","529","dgv","Diagnostic trial","","f","0","5","false","true","LEFT","f","1","","RIGHT","false","","",""
"","html-keyboard-response","79","225562","0.0-129.0","4qayywxb","1280","720","","","","","","","","","","","null","+","Fixation - short","","null","","","","","","","","","","","","",""
"","html-keyboard-response","80","226510","0.0-130.0","4qayywxb","1280","720","","","","","","","","","","","947","uen","Diagnostic trial","","f","0","6","false","true","LEFT","f","1","","LEFT","true","","",""
"","html-keyboard-response","81","227268","0.0-133.0","4qayywxb","1280","720","","","","","","","","","","","null","+","Fixation - short","","null","","","","","","","","","","","","",""
"","html-keyboard-response","82","227871","0.0-134.0","4qayywxb","1280","720","","","","","","","","","","","602","uen","Diagnostic trial","","j","0","7","false","false","RIGHT","j","1","","LEFT","false","","",""
"","html-keyboard-response","83","228632","0.0-137.0","4qayywxb","1280","720","","","","","","","","","","","null","+","Fixation - short","","null","","","","","","","","","","","","",""
"","html-keyboard-response","84","229289","0.0-138.0","4qayywxb","1280","720","","","","","","","","","","","656","uen","Diagnostic trial","","j","0","8","false","false","RIGHT","j","1","","LEFT","false","","",""
"","html-keyboard-response","85","230043","0.0-141.0","4qayywxb","1280","720","","","","","","","","","","","null","+","Fixation - short","","null","","","","","","","","","","","","",""
"","html-keyboard-response","86","232050","0.0-142.0","4qayywxb","1280","720","","","","","","","","","","","null","dgv","Inducer trial","","null","0","","true","","","j","NaN","RIGHT","","","","",""
"","call-function","87","232052","0.0-143.0-0.0","4qayywxb","","","","","","","","","","","","","","","","","","","","","","","","","","","","","",""
"","html-keyboard-response","88","232365","0.0-143.0-1.0","4qayywxb","1280","720","","","","","","","","","","","null","Slow","Feedback","","null","","","","","","","","","","","","",""
"","call-function","89","232366","0.0-143.0-2.0","4qayywxb","","","","","","","","","","","","","","","","","","","","","","","","","","","","","",""
"","html-keyboard-response","90","233869","0.0-145.0","4qayywxb","1280","720","","","","","","","","","","","null","+","Fixation - long","","null","","","","","","","","","","","","",""
"","html-keyboard-response","91","238502","0.0-146.0","4qayywxb","1280","720","","","","","","","","","","","4632","If kue press LEFT | If glp press RIGHT","Inducer instructions",""," ","1","","","","","","","","","","","",""
"","html-keyboard-response","92","239261","0.0-147.0","4qayywxb","1280","720","","","","","","","","","","","null","+","Fixation - short","","null","","","","","","","","","","","","",""
"","html-keyboard-response","93","239778","0.0-148.0","4qayywxb","1280","720","","","","","","","","","","","516","kue","Diagnostic trial","","j","1","0","false","false","RIGHT","j","1","","LEFT","false","","",""
"","html-keyboard-response","94","240533","0.0-151.0","4qayywxb","1280","720","","","","","","","","","","","null","+","Fixation - short","","null","","","","","","","","","","","","",""
"","html-keyboard-response","95","241928","0.0-152.0","4qayywxb","1280","720","","","","","","","","","","","1394","kue","Diagnostic trial","","f","1","1","false","true","LEFT","f","1","","LEFT","true","","",""
"","html-keyboard-response","96","242681","0.0-155.0","4qayywxb","1280","720","","","","","","","","","","","null","+","Fixation - short","","null","","","","","","","","","","","","",""
"","html-keyboard-response","97","243902","0.0-156.0","4qayywxb","1280","720","","","","","","","","","","","1219","glp","Diagnostic trial","","f","1","2","false","true","LEFT","f","1","","RIGHT","false","","",""
"","html-keyboard-response","98","244656","0.0-159.0","4qayywxb","1280","720","","","","","","","","","","","null","+","Fixation - short","","null","","","","","","","","","","","","",""
"","html-keyboard-response","99","245773","0.0-160.0","4qayywxb","1280","720","","","","","","","","","","","1115","kue","Diagnostic trial","","j","1","3","false","false","RIGHT","j","1","","LEFT","false","","",""
"","html-keyboard-response","100","246537","0.0-163.0","4qayywxb","1280","720","","","","","","","","","","","null","+","Fixation - short","","null","","","","","","","","","","","","",""
"","html-keyboard-response","101","247436","0.0-164.0","4qayywxb","1280","720","","","","","","","","","","","898","kue","Diagnostic trial","","j","1","4","false","false","RIGHT","j","1","","LEFT","false","","",""
"","html-keyboard-response","102","248201","0.0-167.0","4qayywxb","1280","720","","","","","","","","","","","null","+","Fixation - short","","null","","","","","","","","","","","","",""
"","html-keyboard-response","103","249437","0.0-168.0","4qayywxb","1280","720","","","","","","","","","","","1235","glp","Inducer trial","","j","1","","true","","","j","1","RIGHT","","","","",""
"","html-keyboard-response","104","250943","0.0-171.0","4qayywxb","1280","720","","","","","","","","","","","null","+","Fixation - long","","null","","","","","","","","","","","","",""
"","html-keyboard-response","105","255837","0.0-172.0","4qayywxb","1280","720","","","","","","","","","","","4893","If vbt press LEFT | If oez press RIGHT","Inducer instructions",""," ","2","","","","","","","","","","","",""
"","html-keyboard-response","106","256603","0.0-173.0","4qayywxb","1280","720","","","","","","","","","","","null","+","Fixation - short","","null","","","","","","","","","","","","",""
"","html-keyboard-response","107","257433","0.0-174.0","4qayywxb","1280","720","","","","","","","","","","","830","vbt","Diagnostic trial","","f","2","0","false","true","LEFT","f","1","","LEFT","true","","",""
"","html-keyboard-response","108","258204","0.0-177.0","4qayywxb","1280","720","","","","","","","","","","","null","+","Fixation - short","","null","","","","","","","","","","","","",""
"","html-keyboard-response","109","259216","0.0-178.0","4qayywxb","1280","720","","","","","","","","","","","1011","oez","Diagnostic trial","","j","2","1","false","false","RIGHT","j","1","","RIGHT","true","","",""
"","html-keyboard-response","110","259969","0.0-181.0","4qayywxb","1280","720","","","","","","","","","","","null","+","Fixation - short","","null","","","","","","","","","","","","",""
"","html-keyboard-response","111","260435","0.0-182.0","4qayywxb","1280","720","","","","","","","","","","","465","oez","Diagnostic trial","","j","2","2","false","false","RIGHT","j","1","","RIGHT","true","","",""
"","html-keyboard-response","112","261202","0.0-185.0","4qayywxb","1280","720","","","","","","","","","","","null","+","Fixation - short","","null","","","","","","","","","","","","",""
"","html-keyboard-response","113","261754","0.0-186.0","4qayywxb","1280","720","","","","","","","","","","","551","oez","Diagnostic trial","","f","2","3","false","true","LEFT","f","1","","RIGHT","false","","",""
"","html-keyboard-response","114","262515","0.0-189.0","4qayywxb","1280","720","","","","","","","","","","","null","+","Fixation - short","","null","","","","","","","","","","","","",""
"","html-keyboard-response","115","263464","0.0-190.0","4qayywxb","1280","720","","","","","","","","","","","948","oez","Diagnostic trial","","j","2","4","false","false","RIGHT","j","1","","RIGHT","true","","",""
"","html-keyboard-response","116","264226","0.0-193.0","4qayywxb","1280","720","","","","","","","","","","","null","+","Fixation - short","","null","","","","","","","","","","","","",""
"","html-keyboard-response","117","264639","0.0-194.0","4qayywxb","1280","720","","","","","","","","","","","412","oez","Diagnostic trial","","j","2","5","false","false","RIGHT","j","1","","RIGHT","true","","",""
"","html-keyboard-response","118","265402","0.0-197.0","4qayywxb","1280","720","","","","","","","","","","","null","+","Fixation - short","","null","","","","","","","","","","","","",""
"","html-keyboard-response","119","267408","0.0-198.0","4qayywxb","1280","720","","","","","","","","","","","null","vbt","Inducer trial","","null","2","","true","","","f","NaN","LEFT","","","","",""
"","call-function","120","267408","0.0-199.0-0.0","4qayywxb","","","","","","","","","","","","","","","","","","","","","","","","","","","","","",""
"","html-keyboard-response","121","267737","0.0-199.0-1.0","4qayywxb","1280","720","","","","","","","","","","","null","Slow","Feedback","","null","","","","","","","","","","","","",""
"","call-function","122","267738","0.0-199.0-2.0","4qayywxb","","","","","","","","","","","","","","","","","","","","","","","","","","","","","",""
"","html-keyboard-response","123","269244","0.0-201.0","4qayywxb","1280","720","","","","","","","","","","","null","+","Fixation - long","","null","","","","","","","","","","","","",""
"","html-keyboard-response","124","284804","0.0-202.0","4qayywxb","1280","720","","","","","","","","","","","15559","If kho press LEFT | If saj press RIGHT","Inducer instructions",""," ","3","","","","","","","","","","","",""
"","html-keyboard-response","125","285566","0.0-203.0","4qayywxb","1280","720","","","","","","","","","","","null","+","Fixation - short","","null","","","","","","","","","","","","",""
"","html-keyboard-response","126","286554","0.0-204.0","4qayywxb","1280","720","","","","","","","","","","","987","saj","Diagnostic trial","","f","3","0","false","true","LEFT","f","1","","RIGHT","false","","",""
"","html-keyboard-response","127","287318","0.0-207.0","4qayywxb","1280","720","","","","","","","","","","","null","+","Fixation - short","","null","","","","","","","","","","","","",""
"","html-keyboard-response","128","287914","0.0-208.0","4qayywxb","1280","720","","","","","","","","","","","594","kho","Diagnostic trial","","j","3","1","false","false","RIGHT","j","1","","LEFT","false","","",""
"","html-keyboard-response","129","288670","0.0-211.0","4qayywxb","1280","720","","","","","","","","","","","null","+","Fixation - short","","null","","","","","","","","","","","","",""
"","html-keyboard-response","130","289584","0.0-212.0","4qayywxb","1280","720","","","","","","","","","","","913","saj","Diagnostic trial","","j","3","2","false","false","RIGHT","j","1","","RIGHT","true","","",""
"","html-keyboard-response","131","290350","0.0-215.0","4qayywxb","1280","720","","","","","","","","","","","null","+","Fixation - short","","null","","","","","","","","","","","","",""
"","html-keyboard-response","132","290885","0.0-216.0","4qayywxb","1280","720","","","","","","","","","","","534","saj","Diagnostic trial","","f","3","3","false","true","LEFT","f","1","","RIGHT","false","","",""
"","html-keyboard-response","133","291651","0.0-219.0","4qayywxb","1280","720","","","","","","","","","","","null","+","Fixation - short","","null","","","","","","","","","","","","",""
"","html-keyboard-response","134","292169","0.0-220.0","4qayywxb","1280","720","","","","","","","","","","","516","kho","Diagnostic trial","","j","3","4","false","false","RIGHT","j","1","","LEFT","false","","",""
"","html-keyboard-response","135","292935","0.0-223.0","4qayywxb","1280","720","","","","","","","","","","","null","+","Fixation - short","","null","","","","","","","","","","","","",""
"","html-keyboard-response","136","293551","0.0-224.0","4qayywxb","1280","720","","","","","","","","","","","614","saj","Diagnostic trial","","f","3","5","false","true","LEFT","f","1","","RIGHT","false","","",""
"","html-keyboard-response","137","294316","0.0-227.0","4qayywxb","1280","720","","","","","","","","","","","null","+","Fixation - short","","null","","","","","","","","","","","","",""
"","html-keyboard-response","138","295008","0.0-228.0","4qayywxb","1280","720","","","","","","","","","","","691","saj","Diagnostic trial","","f","3","6","false","true","LEFT","f","1","","RIGHT","false","","",""
"","html-keyboard-response","139","295775","0.0-231.0","4qayywxb","1280","720","","","","","","","","","","","null","+","Fixation - short","","null","","","","","","","","","","","","",""
"","html-keyboard-response","140","296407","0.0-232.0","4qayywxb","1280","720","","","","","","","","","","","631","saj","Diagnostic trial","","j","3","7","false","false","RIGHT","j","1","","RIGHT","true","","",""
"","html-keyboard-response","141","297169","0.0-235.0","4qayywxb","1280","720","","","","","","","","","","","null","+","Fixation - short","","null","","","","","","","","","","","","",""
"","html-keyboard-response","142","297935","0.0-236.0","4qayywxb","1280","720","","","","","","","","","","","765","saj","Diagnostic trial","","j","3","8","false","false","RIGHT","j","1","","RIGHT","true","","",""
"","html-keyboard-response","143","298691","0.0-239.0","4qayywxb","1280","720","","","","","","","","","","","null","+","Fixation - short","","null","","","","","","","","","","","","",""
"","html-keyboard-response","144","299164","0.0-240.0","4qayywxb","1280","720","","","","","","","","","","","472","saj","Diagnostic trial","","j","3","9","false","false","RIGHT","j","1","","RIGHT","true","","",""
"","html-keyboard-response","145","299916","0.0-243.0","4qayywxb","1280","720","","","","","","","","","","","null","+","Fixation - short","","null","","","","","","","","","","","","",""
"","html-keyboard-response","146","300747","0.0-244.0","4qayywxb","1280","720","","","","","","","","","","","830","kho","Diagnostic trial","","f","3","10","false","true","LEFT","f","1","","LEFT","true","","",""
"","html-keyboard-response","147","301498","0.0-247.0","4qayywxb","1280","720","","","","","","","","","","","null","+","Fixation - short","","null","","","","","","","","","","","","",""
"","html-keyboard-response","148","301951","0.0-248.0","4qayywxb","1280","720","","","","","","","","","","","452","kho","Diagnostic trial","","f","3","11","false","true","LEFT","f","1","","LEFT","true","","",""
"","html-keyboard-response","149","302705","0.0-251.0","4qayywxb","1280","720","","","","","","","","","","","null","+","Fixation - short","","null","","","","","","","","","","","","",""
"","html-keyboard-response","150","303527","0.0-252.0","4qayywxb","1280","720","","","","","","","","","","","822","saj","Diagnostic trial","","f","3","12","false","true","LEFT","f","1","","RIGHT","false","","",""
"","html-keyboard-response","151","304283","0.0-255.0","4qayywxb","1280","720","","","","","","","","","","","null","+","Fixation - short","","null","","","","","","","","","","","","",""
"","html-keyboard-response","152","304751","0.0-256.0","4qayywxb","1280","720","","","","","","","","","","","467","saj","Diagnostic trial","","f","3","13","false","true","LEFT","f","1","","RIGHT","false","","",""
"","html-keyboard-response","153","305512","0.0-259.0","4qayywxb","1280","720","","","","","","","","","","","null","+","Fixation - short","","null","","","","","","","","","","","","",""
"","html-keyboard-response","154","306147","0.0-260.0","4qayywxb","1280","720","","","","","","","","","","","634","kho","Inducer trial","","j","3","","true","","","f","0","LEFT","","","","",""
"","call-function","155","306147","0.0-262.0-0.0","4qayywxb","","","","","","","","","","","","","","","","","","","","","","","","","","","","","",""
"","html-keyboard-response","156","306453","0.0-262.0-1.0","4qayywxb","1280","720","","","","","","","","","","","null","Wrong","Feedback","","null","","","","","","","","","","","","",""
"","call-function","157","306454","0.0-262.0-2.0","4qayywxb","","","","","","","","","","","","","","","","","","","","","","","","","","","","","",""
"","html-keyboard-response","158","307965","0.0-263.0","4qayywxb","1280","720","","","","","","","","","","","null","+","Fixation - long","","null","","","","","","","","","","","","",""
"","html-keyboard-response","159","311705","0.0-264.0","4qayywxb","1280","720","","","","","","","","","","","3739","If aor press LEFT | If mts press RIGHT","Inducer instructions",""," ","4","","","","","","","","","","","",""
"","html-keyboard-response","160","312458","0.0-265.0","4qayywxb","1280","720","","","","","","","","","","","null","+","Fixation - short","","null","","","","","","","","","","","","",""
"","html-keyboard-response","161","313123","0.0-266.0","4qayywxb","1280","720","","","","","","","","","","","664","mts","Diagnostic trial","","j","4","0","false","false","RIGHT","j","1","","RIGHT","true","","",""
"","html-keyboard-response","162","313886","0.0-269.0","4qayywxb","1280","720","","","","","","","","","","","null","+","Fixation - short","","null","","","","","","","","","","","","",""
"","html-keyboard-response","163","314472","0.0-270.0","4qayywxb","1280","720","","","","","","","","","","","585","aor","Diagnostic trial","","f","4","1","false","true","LEFT","f","1","","LEFT","true","","",""
"","html-keyboard-response","164","315234","0.0-273.0","4qayywxb","1280","720","","","","","","","","","","","null","+","Fixation - short","","null","","","","","","","","","","","","",""
"","html-keyboard-response","165","315723","0.0-274.0","4qayywxb","1280","720","","","","","","","","","","","488","aor","Diagnostic trial","","f","4","2","false","true","LEFT","f","1","","LEFT","true","","",""
"","html-keyboard-response","166","316475","0.0-277.0","4qayywxb","1280","720","","","","","","","","","","","null","+","Fixation - short","","null","","","","","","","","","","","","",""
"","html-keyboard-response","167","317486","0.0-278.0","4qayywxb","1280","720","","","","","","","","","","","1010","mts","Diagnostic trial","","f","4","3","false","true","LEFT","f","1","","RIGHT","false","","",""
"","html-keyboard-response","168","318245","0.0-281.0","4qayywxb","1280","720","","","","","","","","","","","null","+","Fixation - short","","null","","","","","","","","","","","","",""
"","html-keyboard-response","169","318971","0.0-282.0","4qayywxb","1280","720","","","","","","","","","","","725","aor","Diagnostic trial","","j","4","4","false","false","RIGHT","j","1","","LEFT","false","","",""
"","html-keyboard-response","170","319735","0.0-285.0","4qayywxb","1280","720","","","","","","","","","","","null","+","Fixation - short","","null","","","","","","","","","","","","",""
"","html-keyboard-response","171","320654","0.0-286.0","4qayywxb","1280","720","","","","","","","","","","","918","mts","Diagnostic trial","","j","4","5","false","false","RIGHT","j","1","","RIGHT","true","","",""
"","html-keyboard-response","172","321413","0.0-289.0","4qayywxb","1280","720","","","","","","","","","","","null","+","Fixation - short","","null","","","","","","","","","","","","",""
"","html-keyboard-response","173","321889","0.0-290.0","4qayywxb","1280","720","","","","","","","","","","","475","mts","Diagnostic trial","","f","4","6","false","true","LEFT","f","1","","RIGHT","false","","",""
"","html-keyboard-response","174","322650","0.0-293.0","4qayywxb","1280","720","","","","","","","","","","","null","+","Fixation - short","","null","","","","","","","","","","","","",""
"","html-keyboard-response","175","323216","0.0-294.0","4qayywxb","1280","720","","","","","","","","","","","565","mts","Diagnostic trial","","j","4","7","false","false","RIGHT","j","1","","RIGHT","true","","",""
"","html-keyboard-response","176","323968","0.0-297.0","4qayywxb","1280","720","","","","","","","","","","","null","+","Fixation - short","","null","","","","","","","","","","","","",""
"","html-keyboard-response","177","324445","0.0-298.0","4qayywxb","1280","720","","","","","","","","","","","476","aor","Diagnostic trial","","j","4","8","false","false","RIGHT","j","1","","LEFT","false","","",""
"","html-keyboard-response","178","325207","0.0-301.0","4qayywxb","1280","720","","","","","","","","","","","null","+","Fixation - short","","null","","","","","","","","","","","","",""
"","html-keyboard-response","179","325734","0.0-302.0","4qayywxb","1280","720","","","","","","","","","","","526","aor","Diagnostic trial","","j","4","9","false","false","RIGHT","j","1","","LEFT","false","","",""
"","html-keyboard-response","180","326492","0.0-305.0","4qayywxb","1280","720","","","","","","","","","","","null","+","Fixation - short","","null","","","","","","","","","","","","",""
"","html-keyboard-response","181","326944","0.0-306.0","4qayywxb","1280","720","","","","","","","","","","","451","aor","Diagnostic trial","","j","4","10","false","false","RIGHT","j","1","","LEFT","false","","",""
"","html-keyboard-response","182","327706","0.0-309.0","4qayywxb","1280","720","","","","","","","","","","","null","+","Fixation - short","","null","","","","","","","","","","","","",""
"","html-keyboard-response","183","328205","0.0-310.0","4qayywxb","1280","720","","","","","","","","","","","498","mts","Diagnostic trial","","f","4","11","false","true","LEFT","f","1","","RIGHT","false","","",""
"","html-keyboard-response","184","328970","0.0-313.0","4qayywxb","1280","720","","","","","","","","","","","null","+","Fixation - short","","null","","","","","","","","","","","","",""
"","html-keyboard-response","185","330077","0.0-314.0","4qayywxb","1280","720","","","","","","","","","","","1106","aor","Inducer trial","","j","4","","true","","","f","0","LEFT","","","","",""
"","call-function","186","330078","0.0-316.0-0.0","4qayywxb","","","","","","","","","","","","","","","","","","","","","","","","","","","","","",""
"","html-keyboard-response","187","330380","0.0-316.0-1.0","4qayywxb","1280","720","","","","","","","","","","","null","Wrong","Feedback","","null","","","","","","","","","","","","",""
"","call-function","188","330381","0.0-316.0-2.0","4qayywxb","","","","","","","","","","","","","","","","","","","","","","","","","","","","","",""
"","html-keyboard-response","189","331886","0.0-317.0","4qayywxb","1280","720","","","","","","","","","","","null","+","Fixation - long","","null","","","","","","","","","","","","",""
"","html-keyboard-response","190","334135","0.0-318.0","4qayywxb","1280","720","","","","","","","","","","","2248","If hfs press LEFT | If goj press RIGHT","Inducer instructions",""," ","5","","","","","","","","","","","",""
"","html-keyboard-response","191","334897","0.0-319.0","4qayywxb","1280","720","","","","","","","","","","","null","+","Fixation - short","","null","","","","","","","","","","","","",""
"","html-keyboard-response","192","335633","0.0-320.0","4qayywxb","1280","720","","","","","","","","","","","735","hfs","Diagnostic trial","","j","5","0","false","false","RIGHT","j","1","","LEFT","false","","",""
"","html-keyboard-response","193","336385","0.0-323.0","4qayywxb","1280","720","","","","","","","","","","","null","+","Fixation - short","","null","","","","","","","","","","","","",""
"","html-keyboard-response","194","336754","0.0-324.0","4qayywxb","1280","720","","","","","","","","","","","368","goj","Diagnostic trial","","f","5","1","false","true","LEFT","f","1","","RIGHT","false","","",""
"","html-keyboard-response","195","337514","0.0-327.0","4qayywxb","1280","720","","","","","","","","","","","null","+","Fixation - short","","null","","","","","","","","","","","","",""
"","html-keyboard-response","196","338048","0.0-328.0","4qayywxb","1280","720","","","","","","","","","","","534","goj","Diagnostic trial","","j","5","2","false","false","RIGHT","j","1","","RIGHT","true","","",""
"","html-keyboard-response","197","338801","0.0-331.0","4qayywxb","1280","720","","","","","","","","","","","null","+","Fixation - short","","null","","","","","","","","","","","","",""
"","html-keyboard-response","198","339301","0.0-332.0","4qayywxb","1280","720","","","","","","","","","","","499","hfs","Diagnostic trial","","f","5","3","false","true","LEFT","f","1","","LEFT","true","","",""
"","html-keyboard-response","199","340056","0.0-335.0","4qayywxb","1280","720","","","","","","","","","","","null","+","Fixation - short","","null","","","","","","","","","","","","",""
"","html-keyboard-response","200","341253","0.0-336.0","4qayywxb","1280","720","","","","","","","","","","","1197","hfs","Inducer trial","","f","5","","true","","","f","1","LEFT","","","","",""
"","html-keyboard-response","201","342770","0.0-339.0","4qayywxb","1280","720","","","","","","","","","","","null","+","Fixation - long","","null","","","","","","","","","","","","",""
"","html-keyboard-response","202","345115","0.0-340.0","4qayywxb","1280","720","","","","","","","","","","","2344","If cmj press LEFT | If bms press RIGHT","Inducer instructions",""," ","6","","","","","","","","","","","",""
"","html-keyboard-response","203","345873","0.0-341.0","4qayywxb","1280","720","","","","","","","","","","","null","+","Fixation - short","","null","","","","","","","","","","","","",""
"","html-keyboard-response","204","346716","0.0-342.0","4qayywxb","1280","720","","","","","","","","","","","842","cmj","Diagnostic trial","","j","6","0","false","false","RIGHT","j","1","","LEFT","false","","",""
"","html-keyboard-response","205","347473","0.0-345.0","4qayywxb","1280","720","","","","","","","","","","","null","+","Fixation - short","","null","","","","","","","","","","","","",""
"","html-keyboard-response","206","347979","0.0-346.0","4qayywxb","1280","720","","","","","","","","","","","505","cmj","Diagnostic trial","","f","6","1","false","true","LEFT","f","1","","LEFT","true","","",""
"","html-keyboard-response","207","348730","0.0-349.0","4qayywxb","1280","720","","","","","","","","","","","null","+","Fixation - short","","null","","","","","","","","","","","","",""
"","html-keyboard-response","208","349186","0.0-350.0","4qayywxb","1280","720","","","","","","","","","","","455","bms","Diagnostic trial","","f","6","2","false","true","LEFT","f","1","","RIGHT","false","","",""
"","html-keyboard-response","209","349950","0.0-353.0","4qayywxb","1280","720","","","","","","","","","","","null","+","Fixation - short","","null","","","","","","","","","","","","",""
"","html-keyboard-response","210","350357","0.0-354.0","4qayywxb","1280","720","","","","","","","","","","","406","bms","Diagnostic trial","","f","6","3","false","true","LEFT","f","1","","RIGHT","false","","",""
"","html-keyboard-response","211","351112","0.0-357.0","4qayywxb","1280","720","","","","","","","","","","","null","+","Fixation - short","","null","","","","","","","","","","","","",""
"","html-keyboard-response","212","351670","0.0-358.0","4qayywxb","1280","720","","","","","","","","","","","557","bms","Diagnostic trial","","j","6","4","false","false","RIGHT","j","1","","RIGHT","true","","",""
"","html-keyboard-response","213","352429","0.0-361.0","4qayywxb","1280","720","","","","","","","","","","","null","+","Fixation - short","","null","","","","","","","","","","","","",""
"","html-keyboard-response","214","352791","0.0-362.0","4qayywxb","1280","720","","","","","","","","","","","361","bms","Diagnostic trial","","j","6","5","false","false","RIGHT","j","1","","RIGHT","true","","",""
"","html-keyboard-response","215","353544","0.0-365.0","4qayywxb","1280","720","","","","","","","","","","","null","+","Fixation - short","","null","","","","","","","","","","","","",""
"","html-keyboard-response","216","353914","0.0-366.0","4qayywxb","1280","720","","","","","","","","","","","370","cmj","Diagnostic trial","","j","6","6","false","false","RIGHT","j","1","","LEFT","false","","",""
"","html-keyboard-response","217","354671","0.0-369.0","4qayywxb","1280","720","","","","","","","","","","","null","+","Fixation - short","","null","","","","","","","","","","","","",""
"","html-keyboard-response","218","355073","0.0-370.0","4qayywxb","1280","720","","","","","","","","","","","400","cmj","Diagnostic trial","","f","6","7","false","true","LEFT","f","1","","LEFT","true","","",""
"","html-keyboard-response","219","355828","0.0-373.0","4qayywxb","1280","720","","","","","","","","","","","null","+","Fixation - short","","null","","","","","","","","","","","","",""
"","html-keyboard-response","220","356414","0.0-374.0","4qayywxb","1280","720","","","","","","","","","","","585","cmj","Diagnostic trial","","f","6","8","false","true","LEFT","f","1","","LEFT","true","","",""
"","html-keyboard-response","221","357179","0.0-377.0","4qayywxb","1280","720","","","","","","","","","","","null","+","Fixation - short","","null","","","","","","","","","","","","",""
"","html-keyboard-response","222","357642","0.0-378.0","4qayywxb","1280","720","","","","","","","","","","","462","cmj","Diagnostic trial","","j","6","9","false","false","RIGHT","j","1","","LEFT","false","","",""
"","html-keyboard-response","223","358402","0.0-381.0","4qayywxb","1280","720","","","","","","","","","","","null","+","Fixation - short","","null","","","","","","","","","","","","",""
"","html-keyboard-response","224","358968","0.0-382.0","4qayywxb","1280","720","","","","","","","","","","","565","bms","Inducer trial","","f","6","","true","","","j","0","RIGHT","","","","",""
"","call-function","225","358969","0.0-384.0-0.0","4qayywxb","","","","","","","","","","","","","","","","","","","","","","","","","","","","","",""
"","html-keyboard-response","226","359273","0.0-384.0-1.0","4qayywxb","1280","720","","","","","","","","","","","null","Wrong","Feedback","","null","","","","","","","","","","","","",""
"","call-function","227","359274","0.0-384.0-2.0","4qayywxb","","","","","","","","","","","","","","","","","","","","","","","","","","","","","",""
"","html-keyboard-response","228","360785","0.0-385.0","4qayywxb","1280","720","","","","","","","","","","","null","+","Fixation - long","","null","","","","","","","","","","","","",""
"","html-keyboard-response","229","362984","0.0-386.0","4qayywxb","1280","720","","","","","","","","","","","2197","If dul press LEFT | If dlg press RIGHT","Inducer instructions",""," ","7","","","","","","","","","","","",""
"","html-keyboard-response","230","363749","0.0-387.0","4qayywxb","1280","720","","","","","","","","","","","null","+","Fixation - short","","null","","","","","","","","","","","","",""
"","html-keyboard-response","231","364542","0.0-388.0","4qayywxb","1280","720","","","","","","","","","","","792","dul","Diagnostic trial","","f","7","0","false","true","LEFT","f","1","","LEFT","true","","",""
"","html-keyboard-response","232","365302","0.0-391.0","4qayywxb","1280","720","","","","","","","","","","","null","+","Fixation - short","","null","","","","","","","","","","","","",""
"","html-keyboard-response","233","365958","0.0-392.0","4qayywxb","1280","720","","","","","","","","","","","655","dlg","Diagnostic trial","","f","7","1","false","true","LEFT","f","1","","RIGHT","false","","",""
"","html-keyboard-response","234","366712","0.0-395.0","4qayywxb","1280","720","","","","","","","","","","","null","+","Fixation - short","","null","","","","","","","","","","","","",""
"","html-keyboard-response","235","367147","0.0-396.0","4qayywxb","1280","720","","","","","","","","","","","434","dul","Diagnostic trial","","f","7","2","false","true","LEFT","f","1","","LEFT","true","","",""
"","html-keyboard-response","236","367903","0.0-399.0","4qayywxb","1280","720","","","","","","","","","","","null","+","Fixation - short","","null","","","","","","","","","","","","",""
"","html-keyboard-response","237","368335","0.0-400.0","4qayywxb","1280","720","","","","","","","","","","","431","dlg","Diagnostic trial","","j","7","3","false","false","RIGHT","j","1","","RIGHT","true","","",""
"","html-keyboard-response","238","369096","0.0-403.0","4qayywxb","1280","720","","","","","","","","","","","null","+","Fixation - short","","null","","","","","","","","","","","","",""
"","html-keyboard-response","239","369455","0.0-404.0","4qayywxb","1280","720","","","","","","","","","","","357","dul","Diagnostic trial","","j","7","4","false","true","LEFT","f","0","","LEFT","true","","",""
"","call-function","240","369456","0.0-406.0-0.0","4qayywxb","","","","","","","","","","","","","","","","","","","","","","","","","","","","","",""
"","html-keyboard-response","241","369772","0.0-406.0-1.0","4qayywxb","1280","720","","","","","","","","","","","null","Wrong","Feedback","","null","","","","","","","","","","","","",""
"","call-function","242","369773","0.0-406.0-2.0","4qayywxb","","","","","","","","","","","","","","","","","","","","","","","","","","","","","",""
"","html-keyboard-response","243","370527","0.0-407.0","4qayywxb","1280","720","","","","","","","","","","","null","+","Fixation - short","","null","","","","","","","","","","","","",""
"","html-keyboard-response","244","371358","0.0-408.0","4qayywxb","1280","720","","","","","","","","","","","830","dlg","Diagnostic trial","","f","7","5","false","true","LEFT","f","1","","RIGHT","false","","",""
"","html-keyboard-response","245","372124","0.0-411.0","4qayywxb","1280","720","","","","","","","","","","","null","+","Fixation - short","","null","","","","","","","","","","","","",""
"","html-keyboard-response","246","372616","0.0-412.0","4qayywxb","1280","720","","","","","","","","","","","491","dlg","Diagnostic trial","","j","7","6","false","false","RIGHT","j","1","","RIGHT","true","","",""
"","html-keyboard-response","247","373377","0.0-415.0","4qayywxb","1280","720","","","","","","","","","","","null","+","Fixation - short","","null","","","","","","","","","","","","",""
"","html-keyboard-response","248","375175","0.0-416.0","4qayywxb","1280","720","","","","","","","","","","","1797","dlg","Inducer trial","","f","7","","true","","","j","0","RIGHT","","","","",""
"","call-function","249","375176","0.0-418.0-0.0","4qayywxb","","","","","","","","","","","","","","","","","","","","","","","","","","","","","",""
"","html-keyboard-response","250","375478","0.0-418.0-1.0","4qayywxb","1280","720","","","","","","","","","","","null","Wrong","Feedback","","null","","","","","","","","","","","","",""
"","call-function","251","375479","0.0-418.0-2.0","4qayywxb","","","","","","","","","","","","","","","","","","","","","","","","","","","","","",""
"","html-keyboard-response","252","376983","0.0-419.0","4qayywxb","1280","720","","","","","","","","","","","null","+","Fixation - long","","null","","","","","","","","","","","","",""
"","html-keyboard-response","253","378536","0.0-420.0","4qayywxb","1280","720","","","","","","","","","","","1552","If eht press LEFT | If prg press RIGHT","Inducer instructions",""," ","8","","","","","","","","","","","",""
"","html-keyboard-response","254","379289","0.0-421.0","4qayywxb","1280","720","","","","","","","","","","","null","+","Fixation - short","","null","","","","","","","","","","","","",""
"","html-keyboard-response","255","379992","0.0-422.0","4qayywxb","1280","720","","","","","","","","","","","702","eht","Diagnostic trial","","f","8","0","false","true","LEFT","f","1","","LEFT","true","","",""
"","html-keyboard-response","256","380748","0.0-425.0","4qayywxb","1280","720","","","","","","","","","","","null","+","Fixation - short","","null","","","","","","","","","","","","",""
"","html-keyboard-response","257","381808","0.0-426.0","4qayywxb","1280","720","","","","","","","","","","","1059","prg","Diagnostic trial","","f","8","1","false","true","LEFT","f","1","","RIGHT","false","","",""
"","html-keyboard-response","258","382567","0.0-429.0","4qayywxb","1280","720","","","","","","","","","","","null","+","Fixation - short","","null","","","","","","","","","","","","",""
"","html-keyboard-response","259","383184","0.0-430.0","4qayywxb","1280","720","","","","","","","","","","","616","eht","Diagnostic trial","","j","8","2","false","false","RIGHT","j","1","","LEFT","false","","",""
"","html-keyboard-response","260","383946","0.0-433.0","4qayywxb","1280","720","","","","","","","","","","","null","+","Fixation - short","","null","","","","","","","","","","","","",""
"","html-keyboard-response","261","384449","0.0-434.0","4qayywxb","1280","720","","","","","","","","","","","502","eht","Diagnostic trial","","j","8","3","false","false","RIGHT","j","1","","LEFT","false","","",""
"","html-keyboard-response","262","385216","0.0-437.0","4qayywxb","1280","720","","","","","","","","","","","null","+","Fixation - short","","null","","","","","","","","","","","","",""
"","html-keyboard-response","263","385820","0.0-438.0","4qayywxb","1280","720","","","","","","","","","","","603","prg","Diagnostic trial","","f","8","4","false","true","LEFT","f","1","","RIGHT","false","","",""
"","html-keyboard-response","264","386580","0.0-441.0","4qayywxb","1280","720","","","","","","","","","","","null","+","Fixation - short","","null","","","","","","","","","","","","",""
"","html-keyboard-response","265","386959","0.0-442.0","4qayywxb","1280","720","","","","","","","","","","","378","prg","Diagnostic trial","","f","8","5","false","true","LEFT","f","1","","RIGHT","false","","",""
"","html-keyboard-response","266","387723","0.0-445.0","4qayywxb","1280","720","","","","","","","","","","","null","+","Fixation - short","","null","","","","","","","","","","","","",""
"","html-keyboard-response","267","389149","0.0-446.0","4qayywxb","1280","720","","","","","","","","","","","1424","eht","Diagnostic trial","","f","8","6","false","true","LEFT","f","1","","LEFT","true","","",""
"","html-keyboard-response","268","389905","0.0-449.0","4qayywxb","1280","720","","","","","","","","","","","null","+","Fixation - short","","null","","","","","","","","","","","","",""
"","html-keyboard-response","269","390261","0.0-450.0","4qayywxb","1280","720","","","","","","","","","","","355","prg","Diagnostic trial","","f","8","7","false","true","LEFT","f","1","","RIGHT","false","","",""
"","html-keyboard-response","270","391017","0.0-453.0","4qayywxb","1280","720","","","","","","","","","","","null","+","Fixation - short","","null","","","","","","","","","","","","",""
"","html-keyboard-response","271","391477","0.0-454.0","4qayywxb","1280","720","","","","","","","","","","","460","eht","Diagnostic trial","","j","8","8","false","false","RIGHT","j","1","","LEFT","false","","",""
"","html-keyboard-response","272","392241","0.0-457.0","4qayywxb","1280","720","","","","","","","","","","","null","+","Fixation - short","","null","","","","","","","","","","","","",""
"","html-keyboard-response","273","392976","0.0-458.0","4qayywxb","1280","720","","","","","","","","","","","735","eht","Diagnostic trial","","f","8","9","false","true","LEFT","f","1","","LEFT","true","","",""
"","html-keyboard-response","274","393731","0.0-461.0","4qayywxb","1280","720","","","","","","","","","","","null","+","Fixation - short","","null","","","","","","","","","","","","",""
"","html-keyboard-response","275","395737","0.0-462.0","4qayywxb","1280","720","","","","","","","","","","","null","prg","Inducer trial","","null","8","","true","","","j","NaN","RIGHT","","","","",""
"","call-function","276","395738","0.0-463.0-0.0","4qayywxb","","","","","","","","","","","","","","","","","","","","","","","","","","","","","",""
"","html-keyboard-response","277","396050","0.0-463.0-1.0","4qayywxb","1280","720","","","","","","","","","","","null","Slow","Feedback","","null","","","","","","","","","","","","",""
"","call-function","278","396051","0.0-463.0-2.0","4qayywxb","","","","","","","","","","","","","","","","","","","","","","","","","","","","","",""
"","html-keyboard-response","279","397557","0.0-465.0","4qayywxb","1280","720","","","","","","","","","","","null","+","Fixation - long","","null","","","","","","","","","","","","",""
"","html-keyboard-response","280","400376","0.0-466.0","4qayywxb","1280","720","","","","","","","","","","","2817","If wrz press LEFT | If adj press RIGHT","Inducer instructions",""," ","9","","","","","","","","","","","",""
"","html-keyboard-response","281","401131","0.0-467.0","4qayywxb","1280","720","","","","","","","","","","","null","+","Fixation - short","","null","","","","","","","","","","","","",""
"","html-keyboard-response","282","401906","0.0-468.0","4qayywxb","1280","720","","","","","","","","","","","774","adj","Diagnostic trial","","j","9","0","false","false","RIGHT","j","1","","RIGHT","true","","",""
"","html-keyboard-response","283","402668","0.0-471.0","4qayywxb","1280","720","","","","","","","","","","","null","+","Fixation - short","","null","","","","","","","","","","","","",""
"","html-keyboard-response","284","403636","0.0-472.0","4qayywxb","1280","720","","","","","","","","","","","967","wrz","Diagnostic trial","","j","9","1","false","false","RIGHT","j","1","","LEFT","false","","",""
"","html-keyboard-response","285","404395","0.0-475.0","4qayywxb","1280","720","","","","","","","","","","","null","+","Fixation - short","","null","","","","","","","","","","","","",""
"","html-keyboard-response","286","405170","0.0-476.0","4qayywxb","1280","720","","","","","","","","","","","774","adj","Diagnostic trial","","j","9","2","false","false","RIGHT","j","1","","RIGHT","true","","",""
"","html-keyboard-response","287","405930","0.0-479.0","4qayywxb","1280","720","","","","","","","","","","","null","+","Fixation - short","","null","","","","","","","","","","","","",""
"","html-keyboard-response","288","406542","0.0-480.0","4qayywxb","1280","720","","","","","","","","","","","610","wrz","Diagnostic trial","","f","9","3","false","true","LEFT","f","1","","LEFT","true","","",""
"","html-keyboard-response","289","407294","0.0-483.0","4qayywxb","1280","720","","","","","","","","","","","null","+","Fixation - short","","null","","","","","","","","","","","","",""
"","html-keyboard-response","290","407736","0.0-484.0","4qayywxb","1280","720","","","","","","","","","","","441","wrz","Diagnostic trial","","f","9","4","false","false","RIGHT","j","0","","LEFT","false","","",""
"","call-function","291","407736","0.0-486.0-0.0","4qayywxb","","","","","","","","","","","","","","","","","","","","","","","","","","","","","",""
"","html-keyboard-response","292","408043","0.0-486.0-1.0","4qayywxb","1280","720","","","","","","","","","","","null","Wrong","Feedback","","null","","","","","","","","","","","","",""
"","call-function","293","408043","0.0-486.0-2.0","4qayywxb","","","","","","","","","","","","","","","","","","","","","","","","","","","","","",""
"","html-keyboard-response","294","408798","0.0-487.0","4qayywxb","1280","720","","","","","","","","","","","null","+","Fixation - short","","null","","","","","","","","","","","","",""
"","html-keyboard-response","295","409388","0.0-488.0","4qayywxb","1280","720","","","","","","","","","","","588","adj","Diagnostic trial","","f","9","5","false","true","LEFT","f","1","","RIGHT","false","","",""
"","html-keyboard-response","296","410148","0.0-491.0","4qayywxb","1280","720","","","","","","","","","","","null","+","Fixation - short","","null","","","","","","","","","","","","",""
"","html-keyboard-response","297","410584","0.0-492.0","4qayywxb","1280","720","","","","","","","","","","","436","adj","Diagnostic trial","","f","9","6","false","true","LEFT","f","1","","RIGHT","false","","",""
"","html-keyboard-response","298","411341","0.0-495.0","4qayywxb","1280","720","","","","","","","","","","","null","+","Fixation - short","","null","","","","","","","","","","","","",""
"","html-keyboard-response","299","412429","0.0-496.0","4qayywxb","1280","720","","","","","","","","","","","1088","adj","Inducer trial","","j","9","","true","","","j","1","RIGHT","","","","",""
"","html-keyboard-response","300","413934","0.0-499.0","4qayywxb","1280","720","","","","","","","","","","","null","+","Fixation - long","","null","","","","","","","","","","","","",""
"","html-keyboard-response","301","416545","0.0-500.0","4qayywxb","1280","720","","","","","","","","","","","2610","If wab press LEFT | If crf press RIGHT","Inducer instructions",""," ","10","","","","","","","","","","","",""
"","html-keyboard-response","302","417297","0.0-501.0","4qayywxb","1280","720","","","","","","","","","","","null","+","Fixation - short","","null","","","","","","","","","","","","",""
"","html-keyboard-response","303","418280","0.0-502.0","4qayywxb","1280","720","","","","","","","","","","","982","wab","Diagnostic trial","","f","10","0","false","true","LEFT","f","1","","LEFT","true","","",""
"","html-keyboard-response","304","419038","0.0-505.0","4qayywxb","1280","720","","","","","","","","","","","null","+","Fixation - short","","null","","","","","","","","","","","","",""
"","html-keyboard-response","305","419730","0.0-506.0","4qayywxb","1280","720","","","","","","","","","","","691","crf","Diagnostic trial","","f","10","1","false","true","LEFT","f","1","","RIGHT","false","","",""
"","html-keyboard-response","306","420496","0.0-509.0","4qayywxb","1280","720","","","","","","","","","","","null","+","Fixation - short","","null","","","","","","","","","","","","",""
"","html-keyboard-response","307","421168","0.0-510.0","4qayywxb","1280","720","","","","","","","","","","","671","crf","Diagnostic trial","","j","10","2","false","false","RIGHT","j","1","","RIGHT","true","","",""
"","html-keyboard-response","308","421922","0.0-513.0","4qayywxb","1280","720","","","","","","","","","","","null","+","Fixation - short","","null","","","","","","","","","","","","",""
"","html-keyboard-response","309","422576","0.0-514.0","4qayywxb","1280","720","","","","","","","","","","","654","wab","Diagnostic trial","","j","10","3","false","false","RIGHT","j","1","","LEFT","false","","",""
"","html-keyboard-response","310","423334","0.0-517.0","4qayywxb","1280","720","","","","","","","","","","","null","+","Fixation - short","","null","","","","","","","","","","","","",""
"","html-keyboard-response","311","423836","0.0-518.0","4qayywxb","1280","720","","","","","","","","","","","501","wab","Diagnostic trial","","f","10","4","false","true","LEFT","f","1","","LEFT","true","","",""
"","html-keyboard-response","312","424590","0.0-521.0","4qayywxb","1280","720","","","","","","","","","","","null","+","Fixation - short","","null","","","","","","","","","","","","",""
"","html-keyboard-response","313","425043","0.0-522.0","4qayywxb","1280","720","","","","","","","","","","","452","crf","Diagnostic trial","","j","10","5","false","false","RIGHT","j","1","","RIGHT","true","","",""
"","html-keyboard-response","314","425798","0.0-525.0","4qayywxb","1280","720","","","","","","","","","","","null","+","Fixation - short","","null","","","","","","","","","","","","",""
"","html-keyboard-response","315","426287","0.0-526.0","4qayywxb","1280","720","","","","","","","","","","","488","wab","Diagnostic trial","","j","10","6","false","false","RIGHT","j","1","","LEFT","false","","",""
"","html-keyboard-response","316","427051","0.0-529.0","4qayywxb","1280","720","","","","","","","","","","","null","+","Fixation - short","","null","","","","","","","","","","","","",""
"","html-keyboard-response","317","427420","0.0-530.0","4qayywxb","1280","720","","","","","","","","","","","367","wab","Diagnostic trial","","j","10","7","false","false","RIGHT","j","1","","LEFT","false","","",""
"","html-keyboard-response","318","428181","0.0-533.0","4qayywxb","1280","720","","","","","","","","","","","null","+","Fixation - short","","null","","","","","","","","","","","","",""
"","html-keyboard-response","319","428650","0.0-534.0","4qayywxb","1280","720","","","","","","","","","","","468","wab","Diagnostic trial","","f","10","8","false","true","LEFT","f","1","","LEFT","true","","",""
"","html-keyboard-response","320","429402","0.0-537.0","4qayywxb","1280","720","","","","","","","","","","","null","+","Fixation - short","","null","","","","","","","","","","","","",""
"","html-keyboard-response","321","429889","0.0-538.0","4qayywxb","1280","720","","","","","","","","","","","486","crf","Diagnostic trial","","f","10","9","false","true","LEFT","f","1","","RIGHT","false","","",""
"","html-keyboard-response","322","430642","0.0-541.0","4qayywxb","1280","720","","","","","","","","","","","null","+","Fixation - short","","null","","","","","","","","","","","","",""
"","html-keyboard-response","323","431259","0.0-542.0","4qayywxb","1280","720","","","","","","","","","","","615","crf","Diagnostic trial","","f","10","10","false","true","LEFT","f","1","","RIGHT","false","","",""
"","html-keyboard-response","324","432037","0.0-545.0","4qayywxb","1280","720","","","","","","","","","","","null","+","Fixation - short","","null","","","","","","","","","","","","",""
"","html-keyboard-response","325","433473","0.0-546.0","4qayywxb","1280","720","","","","","","","","","","","1434","wab","Inducer trial","","f","10","","true","","","f","1","LEFT","","","","",""
"","html-keyboard-response","326","434986","0.0-549.0","4qayywxb","1280","720","","","","","","","","","","","null","+","Fixation - long","","null","","","","","","","","","","","","",""
"","html-keyboard-response","327","439161","0.0-550.0","4qayywxb","1280","720","","","","","","","","","","","4173","If upf press LEFT | If tgf press RIGHT","Inducer instructions",""," ","11","","","","","","","","","","","",""
"","html-keyboard-response","328","439927","0.0-551.0","4qayywxb","1280","720","","","","","","","","","","","null","+","Fixation - short","","null","","","","","","","","","","","","",""
"","html-keyboard-response","329","440492","0.0-552.0","4qayywxb","1280","720","","","","","","","","","","","563","tgf","Diagnostic trial","","f","11","0","false","true","LEFT","f","1","","RIGHT","false","","",""
"","html-keyboard-response","330","441258","0.0-555.0","4qayywxb","1280","720","","","","","","","","","","","null","+","Fixation - short","","null","","","","","","","","","","","","",""
"","html-keyboard-response","331","441917","0.0-556.0","4qayywxb","1280","720","","","","","","","","","","","658","tgf","Diagnostic trial","","j","11","1","false","false","RIGHT","j","1","","RIGHT","true","","",""
"","html-keyboard-response","332","442669","0.0-559.0","4qayywxb","1280","720","","","","","","","","","","","null","+","Fixation - short","","null","","","","","","","","","","","","",""
"","html-keyboard-response","333","443256","0.0-560.0","4qayywxb","1280","720","","","","","","","","","","","587","tgf","Diagnostic trial","","f","11","2","false","true","LEFT","f","1","","RIGHT","false","","",""
"","html-keyboard-response","334","444017","0.0-563.0","4qayywxb","1280","720","","","","","","","","","","","null","+","Fixation - short","","null","","","","","","","","","","","","",""
"","html-keyboard-response","335","444540","0.0-564.0","4qayywxb","1280","720","","","","","","","","","","","522","tgf","Diagnostic trial","","j","11","3","false","false","RIGHT","j","1","","RIGHT","true","","",""
"","html-keyboard-response","336","445291","0.0-567.0","4qayywxb","1280","720","","","","","","","","","","","null","+","Fixation - short","","null","","","","","","","","","","","","",""
"","html-keyboard-response","337","445899","0.0-568.0","4qayywxb","1280","720","","","","","","","","","","","607","tgf","Diagnostic trial","","f","11","4","false","true","LEFT","f","1","","RIGHT","false","","",""
"","html-keyboard-response","338","446652","0.0-571.0","4qayywxb","1280","720","","","","","","","","","","","null","+","Fixation - short","","null","","","","","","","","","","","","",""
"","html-keyboard-response","339","447283","0.0-572.0","4qayywxb","1280","720","","","","","","","","","","","630","tgf","Diagnostic trial","","j","11","5","false","false","RIGHT","j","1","","RIGHT","true","","",""
"","html-keyboard-response","340","448048","0.0-575.0","4qayywxb","1280","720","","","","","","","","","","","null","+","Fixation - short","","null","","","","","","","","","","","","",""
"","html-keyboard-response","341","448565","0.0-576.0","4qayywxb","1280","720","","","","","","","","","","","516","tgf","Diagnostic trial","","j","11","6","false","false","RIGHT","j","1","","RIGHT","true","","",""
"","html-keyboard-response","342","449320","0.0-579.0","4qayywxb","1280","720","","","","","","","","","","","null","+","Fixation - short","","null","","","","","","","","","","","","",""
"","html-keyboard-response","343","449737","0.0-580.0","4qayywxb","1280","720","","","","","","","","","","","416","tgf","Diagnostic trial","","j","11","7","false","false","RIGHT","j","1","","RIGHT","true","","",""
"","html-keyboard-response","344","450494","0.0-583.0","4qayywxb","1280","720","","","","","","","","","","","null","+","Fixation - short","","null","","","","","","","","","","","","",""
"","html-keyboard-response","345","451006","0.0-584.0","4qayywxb","1280","720","","","","","","","","","","","511","tgf","Diagnostic trial","","f","11","8","false","true","LEFT","f","1","","RIGHT","false","","",""
"","html-keyboard-response","346","451763","0.0-587.0","4qayywxb","1280","720","","","","","","","","","","","null","+","Fixation - short","","null","","","","","","","","","","","","",""
"","html-keyboard-response","347","453048","0.0-588.0","4qayywxb","1280","720","","","","","","","","","","","1284","tgf","Inducer trial","","j","11","","true","","","j","1","RIGHT","","","","",""
"","html-keyboard-response","348","454555","0.0-591.0","4qayywxb","1280","720","","","","","","","","","","","null","+","Fixation - long","","null","","","","","","","","","","","","",""
"","html-keyboard-response","349","456928","0.0-592.0","4qayywxb","1280","720","","","","","","","","","","","2371","If kmh press LEFT | If gdn press RIGHT","Inducer instructions",""," ","12","","","","","","","","","","","",""
"","html-keyboard-response","350","457693","0.0-593.0","4qayywxb","1280","720","","","","","","","","","","","null","+","Fixation - short","","null","","","","","","","","","","","","",""
"","html-keyboard-response","351","458541","0.0-594.0","4qayywxb","1280","720","","","","","","","","","","","847","kmh","Diagnostic trial","","f","12","0","false","true","LEFT","f","1","","LEFT","true","","",""
"","html-keyboard-response","352","459305","0.0-597.0","4qayywxb","1280","720","","","","","","","","","","","null","+","Fixation - short","","null","","","","","","","","","","","","",""
"","html-keyboard-response","353","459803","0.0-598.0","4qayywxb","1280","720","","","","","","","","","","","496","kmh","Diagnostic trial","","j","12","1","false","false","RIGHT","j","1","","LEFT","false","","",""
"","html-keyboard-response","354","460561","0.0-601.0","4qayywxb","1280","720","","","","","","","","","","","null","+","Fixation - short","","null","","","","","","","","","","","","",""
"","html-keyboard-response","355","461147","0.0-602.0","4qayywxb","1280","720","","","","","","","","","","","585","gdn","Diagnostic trial","","f","12","2","false","true","LEFT","f","1","","RIGHT","false","","",""
"","html-keyboard-response","356","461909","0.0-605.0","4qayywxb","1280","720","","","","","","","","","","","null","+","Fixation - short","","null","","","","","","","","","","","","",""
"","html-keyboard-response","357","462875","0.0-606.0","4qayywxb","1280","720","","","","","","","","","","","965","kmh","Diagnostic trial","","j","12","3","false","false","RIGHT","j","1","","LEFT","false","","",""
"","html-keyboard-response","358","463634","0.0-609.0","4qayywxb","1280","720","","","","","","","","","","","null","+","Fixation - short","","null","","","","","","","","","","","","",""
"","html-keyboard-response","359","464171","0.0-610.0","4qayywxb","1280","720","","","","","","","","","","","536","kmh","Diagnostic trial","","j","12","4","false","false","RIGHT","j","1","","LEFT","false","","",""
"","html-keyboard-response","360","464937","0.0-613.0","4qayywxb","1280","720","","","","","","","","","","","null","+","Fixation - short","","null","","","","","","","","","","","","",""
"","html-keyboard-response","361","465491","0.0-614.0","4qayywxb","1280","720","","","","","","","","","","","553","kmh","Diagnostic trial","","f","12","5","false","true","LEFT","f","1","","LEFT","true","","",""
"","html-keyboard-response","362","466253","0.0-617.0","4qayywxb","1280","720","","","","","","","","","","","null","+","Fixation - short","","null","","","","","","","","","","","","",""
"","html-keyboard-response","363","466769","0.0-618.0","4qayywxb","1280","720","","","","","","","","","","","514","gdn","Diagnostic trial","","j","12","6","false","false","RIGHT","j","1","","RIGHT","true","","",""
"","html-keyboard-response","364","467524","0.0-621.0","4qayywxb","1280","720","","","","","","","","","","","null","+","Fixation - short","","null","","","","","","","","","","","","",""
"","html-keyboard-response","365","468336","0.0-622.0","4qayywxb","1280","720","","","","","","","","","","","811","kmh","Inducer trial","","f","12","","true","","","f","1","LEFT","","","","",""
"","html-keyboard-response","366","469839","0.0-625.0","4qayywxb","1280","720","","","","","","","","","","","null","+","Fixation - long","","null","","","","","","","","","","","","",""
"","html-keyboard-response","367","471081","0.0-626.0","4qayywxb","1280","720","","","","","","","","","","","1242","If cta press LEFT | If byy press RIGHT","Inducer instructions",""," ","13","","","","","","","","","","","",""
"","html-keyboard-response","368","471835","0.0-627.0","4qayywxb","1280","720","","","","","","","","","","","null","+","Fixation - short","","null","","","","","","","","","","","","",""
"","html-keyboard-response","369","472531","0.0-628.0","4qayywxb","1280","720","","","","","","","","","","","695","byy","Diagnostic trial","","j","13","0","false","false","RIGHT","j","1","","RIGHT","true","","",""
"","html-keyboard-response","370","473293","0.0-631.0","4qayywxb","1280","720","","","","","","","","","","","null","+","Fixation - short","","null","","","","","","","","","","","","",""
"","html-keyboard-response","371","473676","0.0-632.0","4qayywxb","1280","720","","","","","","","","","","","381","byy","Diagnostic trial","","f","13","1","false","true","LEFT","f","1","","RIGHT","false","","",""
"","html-keyboard-response","372","474438","0.0-635.0","4qayywxb","1280","720","","","","","","","","","","","null","+","Fixation - short","","null","","","","","","","","","","","","",""
"","html-keyboard-response","373","475224","0.0-636.0","4qayywxb","1280","720","","","","","","","","","","","786","cta","Diagnostic trial","","j","13","2","false","false","RIGHT","j","1","","LEFT","false","","",""
"","html-keyboard-response","374","475978","0.0-639.0","4qayywxb","1280","720","","","","","","","","","","","null","+","Fixation - short","","null","","","","","","","","","","","","",""
"","html-keyboard-response","375","476385","0.0-640.0","4qayywxb","1280","720","","","","","","","","","","","406","cta","Diagnostic trial","","j","13","3","false","true","LEFT","f","0","","LEFT","true","","",""
"","call-function","376","476386","0.0-642.0-0.0","4qayywxb","","","","","","","","","","","","","","","","","","","","","","","","","","","","","",""
"","html-keyboard-response","377","476696","0.0-642.0-1.0","4qayywxb","1280","720","","","","","","","","","","","null","Wrong","Feedback","","null","","","","","","","","","","","","",""
"","call-function","378","476697","0.0-642.0-2.0","4qayywxb","","","","","","","","","","","","","","","","","","","","","","","","","","","","","",""
"","html-keyboard-response","379","477449","0.0-643.0","4qayywxb","1280","720","","","","","","","","","","","null","+","Fixation - short","","null","","","","","","","","","","","","",""
"","html-keyboard-response","380","477950","0.0-644.0","4qayywxb","1280","720","","","","","","","","","","","500","cta","Diagnostic trial","","j","13","4","false","false","RIGHT","j","1","","LEFT","false","","",""
"","html-keyboard-response","381","478704","0.0-647.0","4qayywxb","1280","720","","","","","","","","","","","null","+","Fixation - short","","null","","","","","","","","","","","","",""
"","html-keyboard-response","382","479070","0.0-648.0","4qayywxb","1280","720","","","","","","","","","","","365","cta","Diagnostic trial","","f","13","5","false","true","LEFT","f","1","","LEFT","true","","",""
"","html-keyboard-response","383","479832","0.0-651.0","4qayywxb","1280","720","","","","","","","","","","","null","+","Fixation - short","","null","","","","","","","","","","","","",""
"","html-keyboard-response","384","481237","0.0-652.0","4qayywxb","1280","720","","","","","","","","","","","1404","byy","Diagnostic trial","","f","13","6","false","true","LEFT","f","1","","RIGHT","false","","",""
"","html-keyboard-response","385","481995","0.0-655.0","4qayywxb","1280","720","","","","","","","","","","","null","+","Fixation - short","","null","","","","","","","","","","","","",""
"","html-keyboard-response","386","482557","0.0-656.0","4qayywxb","1280","720","","","","","","","","","","","561","cta","Diagnostic trial","","j","13","7","false","false","RIGHT","j","1","","LEFT","false","","",""
"","html-keyboard-response","387","483315","0.0-659.0","4qayywxb","1280","720","","","","","","","","","","","null","+","Fixation - short","","null","","","","","","","","","","","","",""
"","html-keyboard-response","388","484039","0.0-660.0","4qayywxb","1280","720","","","","","","","","","","","723","byy","Diagnostic trial","","j","13","8","false","false","RIGHT","j","1","","RIGHT","true","","",""
"","html-keyboard-response","389","484802","0.0-663.0","4qayywxb","1280","720","","","","","","","","","","","null","+","Fixation - short","","null","","","","","","","","","","","","",""
"","html-keyboard-response","390","485808","0.0-664.0","4qayywxb","1280","720","","","","","","","","","","","1005","cta","Diagnostic trial","","j","13","9","false","false","RIGHT","j","1","","LEFT","false","","",""
"","html-keyboard-response","391","486575","0.0-667.0","4qayywxb","1280","720","","","","","","","","","","","null","+","Fixation - short","","null","","","","","","","","","","","","",""
"","html-keyboard-response","392","487124","0.0-668.0","4qayywxb","1280","720","","","","","","","","","","","548","byy","Diagnostic trial","","j","13","10","false","false","RIGHT","j","1","","RIGHT","true","","",""
"","html-keyboard-response","393","487877","0.0-671.0","4qayywxb","1280","720","","","","","","","","","","","null","+","Fixation - short","","null","","","","","","","","","","","","",""
"","html-keyboard-response","394","488436","0.0-672.0","4qayywxb","1280","720","","","","","","","","","","","558","byy","Diagnostic trial","","f","13","11","false","true","LEFT","f","1","","RIGHT","false","","",""
"","html-keyboard-response","395","489193","0.0-675.0","4qayywxb","1280","720","","","","","","","","","","","null","+","Fixation - short","","null","","","","","","","","","","","","",""
"","html-keyboard-response","396","489857","0.0-676.0","4qayywxb","1280","720","","","","","","","","","","","663","byy","Diagnostic trial","","f","13","12","false","true","LEFT","f","1","","RIGHT","false","","",""
"","html-keyboard-response","397","490619","0.0-679.0","4qayywxb","1280","720","","","","","","","","","","","null","+","Fixation - short","","null","","","","","","","","","","","","",""
"","html-keyboard-response","398","491409","0.0-680.0","4qayywxb","1280","720","","","","","","","","","","","790","cta","Diagnostic trial","","f","13","13","false","true","LEFT","f","1","","LEFT","true","","",""
"","html-keyboard-response","399","492172","0.0-683.0","4qayywxb","1280","720","","","","","","","","","","","null","+","Fixation - short","","null","","","","","","","","","","","","",""
"","html-keyboard-response","400","492785","0.0-684.0","4qayywxb","1280","720","","","","","","","","","","","612","cta","Diagnostic trial","","j","13","14","false","false","RIGHT","j","1","","LEFT","false","","",""
"","html-keyboard-response","401","493552","0.0-687.0","4qayywxb","1280","720","","","","","","","","","","","null","+","Fixation - short","","null","","","","","","","","","","","","",""
"","html-keyboard-response","402","494484","0.0-688.0","4qayywxb","1280","720","","","","","","","","","","","931","cta","Inducer trial","","f","13","","true","","","f","1","LEFT","","","","",""
"","html-keyboard-response","403","495998","0.0-691.0","4qayywxb","1280","720","","","","","","","","","","","null","+","Fixation - long","","null","","","","","","","","","","","","",""
"","html-keyboard-response","404","498128","0.0-692.0","4qayywxb","1280","720","","","","","","","","","","","2128","If bgi press LEFT | If cui press RIGHT","Inducer instructions",""," ","14","","","","","","","","","","","",""
"","html-keyboard-response","405","498885","0.0-693.0","4qayywxb","1280","720","","","","","","","","","","","null","+","Fixation - short","","null","","","","","","","","","","","","",""
"","html-keyboard-response","406","499466","0.0-694.0","4qayywxb","1280","720","","","","","","","","","","","579","cui","Diagnostic trial","","f","14","0","false","true","LEFT","f","1","","RIGHT","false","","",""
"","html-keyboard-response","407","500220","0.0-697.0","4qayywxb","1280","720","","","","","","","","","","","null","+","Fixation - short","","null","","","","","","","","","","","","",""
"","html-keyboard-response","408","500678","0.0-698.0","4qayywxb","1280","720","","","","","","","","","","","456","bgi","Diagnostic trial","","f","14","1","false","true","LEFT","f","1","","LEFT","true","","",""
"","html-keyboard-response","409","501441","0.0-701.0","4qayywxb","1280","720","","","","","","","","","","","null","+","Fixation - short","","null","","","","","","","","","","","","",""
"","html-keyboard-response","410","501913","0.0-702.0","4qayywxb","1280","720","","","","","","","","","","","471","cui","Diagnostic trial","","j","14","2","false","false","RIGHT","j","1","","RIGHT","true","","",""
"","html-keyboard-response","411","502679","0.0-705.0","4qayywxb","1280","720","","","","","","","","","","","null","+","Fixation - short","","null","","","","","","","","","","","","",""
"","html-keyboard-response","412","503143","0.0-706.0","4qayywxb","1280","720","","","","","","","","","","","462","cui","Diagnostic trial","","f","14","3","false","true","LEFT","f","1","","RIGHT","false","","",""
"","html-keyboard-response","413","503902","0.0-709.0","4qayywxb","1280","720","","","","","","","","","","","null","+","Fixation - short","","null","","","","","","","","","","","","",""
"","html-keyboard-response","414","504453","0.0-710.0","4qayywxb","1280","720","","","","","","","","","","","550","bgi","Diagnostic trial","","j","14","4","false","false","RIGHT","j","1","","LEFT","false","","",""
"","html-keyboard-response","415","505220","0.0-713.0","4qayywxb","1280","720","","","","","","","","","","","null","+","Fixation - short","","null","","","","","","","","","","","","",""
"","html-keyboard-response","416","506063","0.0-714.0","4qayywxb","1280","720","","","","","","","","","","","842","bgi","Diagnostic trial","","f","14","5","false","true","LEFT","f","1","","LEFT","true","","",""
"","html-keyboard-response","417","506820","0.0-717.0","4qayywxb","1280","720","","","","","","","","","","","null","+","Fixation - short","","null","","","","","","","","","","","","",""
"","html-keyboard-response","418","507275","0.0-718.0","4qayywxb","1280","720","","","","","","","","","","","454","cui","Diagnostic trial","","j","14","6","false","false","RIGHT","j","1","","RIGHT","true","","",""
"","html-keyboard-response","419","508026","0.0-721.0","4qayywxb","1280","720","","","","","","","","","","","null","+","Fixation - short","","null","","","","","","","","","","","","",""
"","html-keyboard-response","420","508440","0.0-722.0","4qayywxb","1280","720","","","","","","","","","","","413","bgi","Inducer trial","","f","14","","true","","","f","1","LEFT","","","","",""
"","html-keyboard-response","421","509955","0.0-725.0","4qayywxb","1280","720","","","","","","","","","","","null","+","Fixation - long","","null","","","","","","","","","","","","",""
"","html-keyboard-response","422","510973","0.0-726.0","4qayywxb","1280","720","","","","","","","","","","","1017","If ila press LEFT | If pxv press RIGHT","Inducer instructions",""," ","15","","","","","","","","","","","",""
"","html-keyboard-response","423","511725","0.0-727.0","4qayywxb","1280","720","","","","","","","","","","","null","+","Fixation - short","","null","","","","","","","","","","","","",""
"","html-keyboard-response","424","512401","0.0-728.0","4qayywxb","1280","720","","","","","","","","","","","675","pxv","Diagnostic trial","","f","15","0","false","true","LEFT","f","1","","RIGHT","false","","",""
"","html-keyboard-response","425","513153","0.0-731.0","4qayywxb","1280","720","","","","","","","","","","","null","+","Fixation - short","","null","","","","","","","","","","","","",""
"","html-keyboard-response","426","513939","0.0-732.0","4qayywxb","1280","720","","","","","","","","","","","784","ila","Diagnostic trial","","f","15","1","false","true","LEFT","f","1","","LEFT","true","","",""
"","html-keyboard-response","427","514691","0.0-735.0","4qayywxb","1280","720","","","","","","","","","","","null","+","Fixation - short","","null","","","","","","","","","","","","",""
"","html-keyboard-response","428","515269","0.0-736.0","4qayywxb","1280","720","","","","","","","","","","","577","pxv","Diagnostic trial","","j","15","2","false","false","RIGHT","j","1","","RIGHT","true","","",""
"","html-keyboard-response","429","516023","0.0-739.0","4qayywxb","1280","720","","","","","","","","","","","null","+","Fixation - short","","null","","","","","","","","","","","","",""
"","html-keyboard-response","430","516517","0.0-740.0","4qayywxb","1280","720","","","","","","","","","","","493","pxv","Diagnostic trial","","j","15","3","false","false","RIGHT","j","1","","RIGHT","true","","",""
"","html-keyboard-response","431","517278","0.0-743.0","4qayywxb","1280","720","","","","","","","","","","","null","+","Fixation - short","","null","","","","","","","","","","","","",""
"","html-keyboard-response","432","517766","0.0-744.0","4qayywxb","1280","720","","","","","","","","","","","487","pxv","Diagnostic trial","","f","15","4","false","true","LEFT","f","1","","RIGHT","false","","",""
"","html-keyboard-response","433","518532","0.0-747.0","4qayywxb","1280","720","","","","","","","","","","","null","+","Fixation - short","","null","","","","","","","","","","","","",""
"","html-keyboard-response","434","518966","0.0-748.0","4qayywxb","1280","720","","","","","","","","","","","433","ila","Diagnostic trial","","j","15","5","false","false","RIGHT","j","1","","LEFT","false","","",""
"","html-keyboard-response","435","519723","0.0-751.0","4qayywxb","1280","720","","","","","","","","","","","null","+","Fixation - short","","null","","","","","","","","","","","","",""
"","html-keyboard-response","436","520348","0.0-752.0","4qayywxb","1280","720","","","","","","","","","","","624","ila","Inducer trial","","f","15","","true","","","f","1","LEFT","","","","",""
"","html-keyboard-response","437","521856","0.0-755.0","4qayywxb","1280","720","","","","","","","","","","","null","+","Fixation - long","","null","","","","","","","","","","","","",""
"","html-keyboard-response","438","522883","0.0-756.0","4qayywxb","1280","720","","","","","","","","","","","1026","If ydi press LEFT | If chy press RIGHT","Inducer instructions",""," ","16","","","","","","","","","","","",""
"","html-keyboard-response","439","523642","0.0-757.0","4qayywxb","1280","720","","","","","","","","","","","null","+","Fixation - short","","null","","","","","","","","","","","","",""
"","html-keyboard-response","440","524515","0.0-758.0","4qayywxb","1280","720","","","","","","","","","","","872","chy","Diagnostic trial","","j","16","0","false","false","RIGHT","j","1","","RIGHT","true","","",""
"","html-keyboard-response","441","525280","0.0-761.0","4qayywxb","1280","720","","","","","","","","","","","null","+","Fixation - short","","null","","","","","","","","","","","","",""
"","html-keyboard-response","442","525614","0.0-762.0","4qayywxb","1280","720","","","","","","","","","","","333","chy","Diagnostic trial","","j","16","1","false","false","RIGHT","j","1","","RIGHT","true","","",""
"","html-keyboard-response","443","526388","0.0-765.0","4qayywxb","1280","720","","","","","","","","","","","null","+","Fixation - short","","null","","","","","","","","","","","","",""
"","html-keyboard-response","444","526782","0.0-766.0","4qayywxb","1280","720","","","","","","","","","","","393","chy","Diagnostic trial","","j","16","2","false","true","LEFT","f","0","","RIGHT","false","","",""
"","call-function","445","526783","0.0-768.0-0.0","4qayywxb","","","","","","","","","","","","","","","","","","","","","","","","","","","","","",""
"","html-keyboard-response","446","527095","0.0-768.0-1.0","4qayywxb","1280","720","","","","","","","","","","","null","Wrong","Feedback","","null","","","","","","","","","","","","",""
"","call-function","447","527095","0.0-768.0-2.0","4qayywxb","","","","","","","","","","","","","","","","","","","","","","","","","","","","","",""
"","html-keyboard-response","448","527850","0.0-769.0","4qayywxb","1280","720","","","","","","","","","","","null","+","Fixation - short","","null","","","","","","","","","","","","",""
"","html-keyboard-response","449","528266","0.0-770.0","4qayywxb","1280","720","","","","","","","","","","","415","ydi","Diagnostic trial","","f","16","3","false","false","RIGHT","j","0","","LEFT","false","","",""
"","call-function","450","528266","0.0-772.0-0.0","4qayywxb","","","","","","","","","","","","","","","","","","","","","","","","","","","","","",""
"","html-keyboard-response","451","528582","0.0-772.0-1.0","4qayywxb","1280","720","","","","","","","","","","","null","Wrong","Feedback","","null","","","","","","","","","","","","",""
"","call-function","452","528584","0.0-772.0-2.0","4qayywxb","","","","","","","","","","","","","","","","","","","","","","","","","","","","","",""
"","html-keyboard-response","453","529350","0.0-773.0","4qayywxb","1280","720","","","","","","","","","","","null","+","Fixation - short","","null","","","","","","","","","","","","",""
"","html-keyboard-response","454","529729","0.0-774.0","4qayywxb","1280","720","","","","","","","","","","","378","chy","Diagnostic trial","","f","16","4","false","true","LEFT","f","1","","RIGHT","false","","",""
"","html-keyboard-response","455","530495","0.0-777.0","4qayywxb","1280","720","","","","","","","","","","","null","+","Fixation - short","","null","","","","","","","","","","","","",""
"","html-keyboard-response","456","530903","0.0-778.0","4qayywxb","1280","720","","","","","","","","","","","407","chy","Diagnostic trial","","f","16","5","false","true","LEFT","f","1","","RIGHT","false","","",""
"","html-keyboard-response","457","531656","0.0-781.0","4qayywxb","1280","720","","","","","","","","","","","null","+","Fixation - short","","null","","","","","","","","","","","","",""
"","html-keyboard-response","458","532128","0.0-782.0","4qayywxb","1280","720","","","","","","","","","","","470","ydi","Diagnostic trial","","j","16","6","false","false","RIGHT","j","1","","LEFT","false","","",""
"","html-keyboard-response","459","532895","0.0-785.0","4qayywxb","1280","720","","","","","","","","","","","null","+","Fixation - short","","null","","","","","","","","","","","","",""
"","html-keyboard-response","460","533399","0.0-786.0","4qayywxb","1280","720","","","","","","","","","","","503","chy","Diagnostic trial","","f","16","7","false","true","LEFT","f","1","","RIGHT","false","","",""
"","html-keyboard-response","461","534165","0.0-789.0","4qayywxb","1280","720","","","","","","","","","","","null","+","Fixation - short","","null","","","","","","","","","","","","",""
"","html-keyboard-response","462","534699","0.0-790.0","4qayywxb","1280","720","","","","","","","","","","","533","chy","Diagnostic trial","","j","16","8","false","false","RIGHT","j","1","","RIGHT","true","","",""
"","html-keyboard-response","463","535466","0.0-793.0","4qayywxb","1280","720","","","","","","","","","","","null","+","Fixation - short","","null","","","","","","","","","","","","",""
"","html-keyboard-response","464","535908","0.0-794.0","4qayywxb","1280","720","","","","","","","","","","","441","chy","Diagnostic trial","","j","16","9","false","false","RIGHT","j","1","","RIGHT","true","","",""
"","html-keyboard-response","465","536674","0.0-797.0","4qayywxb","1280","720","","","","","","","","","","","null","+","Fixation - short","","null","","","","","","","","","","","","",""
"","html-keyboard-response","466","537054","0.0-798.0","4qayywxb","1280","720","","","","","","","","","","","379","ydi","Diagnostic trial","","j","16","10","false","false","RIGHT","j","1","","LEFT","false","","",""
"","html-keyboard-response","467","537817","0.0-801.0","4qayywxb","1280","720","","","","","","","","","","","null","+","Fixation - short","","null","","","","","","","","","","","","",""
"","html-keyboard-response","468","538408","0.0-802.0","4qayywxb","1280","720","","","","","","","","","","","590","chy","Diagnostic trial","","f","16","11","false","true","LEFT","f","1","","RIGHT","false","","",""
"","html-keyboard-response","469","539167","0.0-805.0","4qayywxb","1280","720","","","","","","","","","","","null","+","Fixation - short","","null","","","","","","","","","","","","",""
"","html-keyboard-response","470","539785","0.0-806.0","4qayywxb","1280","720","","","","","","","","","","","616","chy","Inducer trial","","f","16","","true","","","j","0","RIGHT","","","","",""
"","call-function","471","539785","0.0-808.0-0.0","4qayywxb","","","","","","","","","","","","","","","","","","","","","","","","","","","","","",""
"","html-keyboard-response","472","540091","0.0-808.0-1.0","4qayywxb","1280","720","","","","","","","","","","","null","Wrong","Feedback","","null","","","","","","","","","","","","",""
"","call-function","473","540091","0.0-808.0-2.0","4qayywxb","","","","","","","","","","","","","","","","","","","","","","","","","","","","","",""
"","html-keyboard-response","474","541596","0.0-809.0","4qayywxb","1280","720","","","","","","","","","","","null","+","Fixation - long","","null","","","","","","","","","","","","",""
"","html-keyboard-response","475","543394","0.0-810.0","4qayywxb","1280","720","","","","","","","","","","","1797","If cpt press LEFT | If psl press RIGHT","Inducer instructions",""," ","17","","","","","","","","","","","",""
"","html-keyboard-response","476","544154","0.0-811.0","4qayywxb","1280","720","","","","","","","","","","","null","+","Fixation - short","","null","","","","","","","","","","","","",""
"","html-keyboard-response","477","544895","0.0-812.0","4qayywxb","1280","720","","","","","","","","","","","740","cpt","Diagnostic trial","","j","17","0","false","false","RIGHT","j","1","","LEFT","false","","",""
"","html-keyboard-response","478","545659","0.0-815.0","4qayywxb","1280","720","","","","","","","","","","","null","+","Fixation - short","","null","","","","","","","","","","","","",""
"","html-keyboard-response","479","546139","0.0-816.0","4qayywxb","1280","720","","","","","","","","","","","478","psl","Diagnostic trial","","f","17","1","false","true","LEFT","f","1","","RIGHT","false","","",""
"","html-keyboard-response","480","546897","0.0-819.0","4qayywxb","1280","720","","","","","","","","","","","null","+","Fixation - short","","null","","","","","","","","","","","","",""
"","html-keyboard-response","481","547475","0.0-820.0","4qayywxb","1280","720","","","","","","","","","","","576","psl","Diagnostic trial","","j","17","2","false","false","RIGHT","j","1","","RIGHT","true","","",""
"","html-keyboard-response","482","548230","0.0-823.0","4qayywxb","1280","720","","","","","","","","","","","null","+","Fixation - short","","null","","","","","","","","","","","","",""
"","html-keyboard-response","483","548899","0.0-824.0","4qayywxb","1280","720","","","","","","","","","","","668","cpt","Diagnostic trial","","j","17","3","false","false","RIGHT","j","1","","LEFT","false","","",""
"","html-keyboard-response","484","549662","0.0-827.0","4qayywxb","1280","720","","","","","","","","","","","null","+","Fixation - short","","null","","","","","","","","","","","","",""
"","html-keyboard-response","485","550028","0.0-828.0","4qayywxb","1280","720","","","","","","","","","","","365","psl","Diagnostic trial","","j","17","4","false","false","RIGHT","j","1","","RIGHT","true","","",""
"","html-keyboard-response","486","550787","0.0-831.0","4qayywxb","1280","720","","","","","","","","","","","null","+","Fixation - short","","null","","","","","","","","","","","","",""
"","html-keyboard-response","487","551272","0.0-832.0","4qayywxb","1280","720","","","","","","","","","","","484","psl","Diagnostic trial","","f","17","5","false","true","LEFT","f","1","","RIGHT","false","","",""
"","html-keyboard-response","488","552026","0.0-835.0","4qayywxb","1280","720","","","","","","","","","","","null","+","Fixation - short","","null","","","","","","","","","","","","",""
"","html-keyboard-response","489","552679","0.0-836.0","4qayywxb","1280","720","","","","","","","","","","","652","cpt","Diagnostic trial","","f","17","6","false","true","LEFT","f","1","","LEFT","true","","",""
"","html-keyboard-response","490","553438","0.0-839.0","4qayywxb","1280","720","","","","","","","","","","","null","+","Fixation - short","","null","","","","","","","","","","","","",""
"","html-keyboard-response","491","553966","0.0-840.0","4qayywxb","1280","720","","","","","","","","","","","526","psl","Diagnostic trial","","j","17","7","false","false","RIGHT","j","1","","RIGHT","true","","",""
"","html-keyboard-response","492","554721","0.0-843.0","4qayywxb","1280","720","","","","","","","","","","","null","+","Fixation - short","","null","","","","","","","","","","","","",""
"","html-keyboard-response","493","555545","0.0-844.0","4qayywxb","1280","720","","","","","","","","","","","823","cpt","Diagnostic trial","","j","17","8","false","false","RIGHT","j","1","","LEFT","false","","",""
"","html-keyboard-response","494","556307","0.0-847.0","4qayywxb","1280","720","","","","","","","","","","","null","+","Fixation - short","","null","","","","","","","","","","","","",""
"","html-keyboard-response","495","556747","0.0-848.0","4qayywxb","1280","720","","","","","","","","","","","439","cpt","Diagnostic trial","","f","17","9","false","true","LEFT","f","1","","LEFT","true","","",""
"","html-keyboard-response","496","557498","0.0-851.0","4qayywxb","1280","720","","","","","","","","","","","null","+","Fixation - short","","null","","","","","","","","","","","","",""
"","html-keyboard-response","497","557978","0.0-852.0","4qayywxb","1280","720","","","","","","","","","","","478","psl","Diagnostic trial","","j","17","10","false","false","RIGHT","j","1","","RIGHT","true","","",""
"","html-keyboard-response","498","558736","0.0-855.0","4qayywxb","1280","720","","","","","","","","","","","null","+","Fixation - short","","null","","","","","","","","","","","","",""
"","html-keyboard-response","499","559373","0.0-856.0","4qayywxb","1280","720","","","","","","","","","","","636","psl","Diagnostic trial","","j","17","11","false","false","RIGHT","j","1","","RIGHT","true","","",""
"","html-keyboard-response","500","560131","0.0-859.0","4qayywxb","1280","720","","","","","","","","","","","null","+","Fixation - short","","null","","","","","","","","","","","","",""
"","html-keyboard-response","501","560509","0.0-860.0","4qayywxb","1280","720","","","","","","","","","","","377","cpt","Diagnostic trial","","j","17","12","false","false","RIGHT","j","1","","LEFT","false","","",""
