"value","trial_type","trial_index","time_elapsed","internal_node_id","id","width","height","webaudio","browser","browser_version","mobile","os","fullscreen","vsync_rate","webcam","microphone","view_history","rt","stimulus","trial_info","success","response","inducer_run","diagnostic_run","inducer_trial","italic","correct_diag_response_side","correct_response_key","correct_response","correct_indu_response_side","correct_inducer_response_side","congruent","accuracy","open_feedback","interactive"
"","call-function","0","2","0.0-0.0","34syh0hh","","","","","","","","","","","","","","","","","","","","","","","","","","","","","",""
"","browser-check","1","1009","0.0-1.0","34syh0hh","1920","953","true","chrome","121.0.0","false","Windows 10","true","60.02","true","true","","","","","","","","","","","","","","","","","","",""
"","instructions","2","40031","0.0-2.0","34syh0hh","","","","","","","","","","","","[{""page_index"":0,""viewing_time"":15285},{""page_index"":1,""viewing_time"":19128},{""page_index"":2,""viewing_time"":4608}]","39022","The experiment and consent","The experiment and consent","","","","","","","","","","","","","","",""
"","fullscreen","3","49236","0.0-3.0","34syh0hh","1920","1080","","","","","","","","","","","8196","","Full screen","true","","","","","","","","","","","","","",""
"","instructions","4","75988","0.0-4.0","34syh0hh","1920","1080","","","","","","","","","","[{""page_index"":0,""viewing_time"":16118},{""page_index"":1,""viewing_time"":10632}]","26750","Instructions","Basic overview explanation","","","","","","","","","","","","","","",""
"","html-keyboard-response","5","97149","0.0-5.0","34syh0hh","1920","1080","","","","","","","","","","","19641","If italic press LEFT | If upright press RIGHT","Diagnostic instructions",""," ","","","","","","","","","","","","",""
"","html-keyboard-response","6","97904","0.0-6.0","34syh0hh","1920","1080","","","","","","","","","","","null","+","Fixation - short","","null","","","","","","","","","","","","",""
"","html-keyboard-response","7","101524","0.0-7.0","34syh0hh","1920","1080","","","","","","","","","","","3619","uus","Practice diganostic trial","","f","practice","0","false","1","LEFT","f","1","","","","","",""
"","html-keyboard-response","8","102284","0.0-10.0","34syh0hh","1920","1080","","","","","","","","","","","null","+","Fixation - short","","null","","","","","","","","","","","","",""
"","html-keyboard-response","9","102557","0.0-11.0","34syh0hh","1920","1080","","","","","","","","","","","272","uus","Practice diganostic trial","","j","practice","1","false","0","RIGHT","j","1","","","","","",""
"","html-keyboard-response","10","103313","0.0-14.0","34syh0hh","1920","1080","","","","","","","","","","","null","+","Fixation - short","","null","","","","","","","","","","","","",""
"","html-keyboard-response","11","103978","0.0-15.0","34syh0hh","1920","1080","","","","","","","","","","","663","uus","Practice diganostic trial","","f","practice","2","false","1","LEFT","f","1","","","","","",""
"","html-keyboard-response","12","104733","0.0-18.0","34syh0hh","1920","1080","","","","","","","","","","","null","+","Fixation - short","","null","","","","","","","","","","","","",""
"","html-keyboard-response","13","105295","0.0-19.0","34syh0hh","1920","1080","","","","","","","","","","","561","ydi","Practice diganostic trial","","f","practice","3","false","0","RIGHT","j","0","","","","","",""
"","call-function","14","105296","0.0-21.0-0.0","34syh0hh","","","","","","","","","","","","","","","","","","","","","","","","","","","","","",""
"","html-keyboard-response","15","105610","0.0-21.0-1.0","34syh0hh","1920","1080","","","","","","","","","","","null","Wrong","Feedback","","null","","","","","","","","","","","","",""
"","call-function","16","105611","0.0-21.0-2.0","34syh0hh","","","","","","","","","","","","","","","","","","","","","","","","","","","","","",""
"","html-keyboard-response","17","106372","0.0-22.0","34syh0hh","1920","1080","","","","","","","","","","","null","+","Fixation - short","","null","","","","","","","","","","","","",""
"","html-keyboard-response","18","106520","0.0-23.0","34syh0hh","1920","1080","","","","","","","","","","","147","uus","Practice diganostic trial","","j","practice","4","false","0","RIGHT","j","1","","","","","",""
"","html-keyboard-response","19","107272","0.0-26.0","34syh0hh","1920","1080","","","","","","","","","","","null","+","Fixation - short","","null","","","","","","","","","","","","",""
"","html-keyboard-response","20","111880","0.0-27.0","34syh0hh","1920","1080","","","","","","","","","","","4606","uus","Practice diganostic trial","","j","practice","5","false","0","RIGHT","j","1","","","","","",""
"","html-keyboard-response","21","112646","0.0-30.0","34syh0hh","1920","1080","","","","","","","","","","","null","+","Fixation - short","","null","","","","","","","","","","","","",""
"","html-keyboard-response","22","113872","0.0-31.0","34syh0hh","1920","1080","","","","","","","","","","","1224","ydi","Practice diganostic trial","","j","practice","6","false","0","RIGHT","j","1","","","","","",""
"","html-keyboard-response","23","114635","0.0-34.0","34syh0hh","1920","1080","","","","","","","","","","","null","+","Fixation - short","","null","","","","","","","","","","","","",""
"","html-keyboard-response","24","115816","0.0-35.0","34syh0hh","1920","1080","","","","","","","","","","","1180","uus","Practice diganostic trial","","f","practice","7","false","1","LEFT","f","1","","","","","",""
"","html-keyboard-response","25","116577","0.0-38.0","34syh0hh","1920","1080","","","","","","","","","","","null","+","Fixation - short","","null","","","","","","","","","","","","",""
"","html-keyboard-response","26","117714","0.0-39.0","34syh0hh","1920","1080","","","","","","","","","","","1136","ydi","Practice diganostic trial","","j","practice","8","false","0","RIGHT","j","1","","","","","",""
"","html-keyboard-response","27","118467","0.0-42.0","34syh0hh","1920","1080","","","","","","","","","","","null","+","Fixation - short","","null","","","","","","","","","","","","",""
"","html-keyboard-response","28","119471","0.0-43.0","34syh0hh","1920","1080","","","","","","","","","","","1003","uus","Practice diganostic trial","","f","practice","9","false","1","LEFT","f","1","","","","","",""
"","html-keyboard-response","29","120234","0.0-46.0","34syh0hh","1920","1080","","","","","","","","","","","null","+","Fixation - short","","null","","","","","","","","","","","","",""
"","html-keyboard-response","30","120503","0.0-47.0","34syh0hh","1920","1080","","","","","","","","","","","268","uus","Practice diganostic trial","","j","practice","10","false","1","LEFT","f","0","","","","","",""
"","call-function","31","120504","0.0-49.0-0.0","34syh0hh","","","","","","","","","","","","","","","","","","","","","","","","","","","","","",""
"","html-keyboard-response","32","120811","0.0-49.0-1.0","34syh0hh","1920","1080","","","","","","","","","","","null","Wrong","Feedback","","null","","","","","","","","","","","","",""
"","call-function","33","120812","0.0-49.0-2.0","34syh0hh","","","","","","","","","","","","","","","","","","","","","","","","","","","","","",""
"","html-keyboard-response","34","121574","0.0-50.0","34syh0hh","1920","1080","","","","","","","","","","","null","+","Fixation - short","","null","","","","","","","","","","","","",""
"","html-keyboard-response","35","123338","0.0-51.0","34syh0hh","1920","1080","","","","","","","","","","","1762","ydi","Practice diganostic trial","","j","practice","11","false","0","RIGHT","j","1","","","","","",""
"","html-keyboard-response","36","124095","0.0-54.0","34syh0hh","1920","1080","","","","","","","","","","","null","+","Fixation - short","","null","","","","","","","","","","","","",""
"","html-keyboard-response","37","124750","0.0-55.0","34syh0hh","1920","1080","","","","","","","","","","","654","uus","Practice diganostic trial","","f","practice","12","false","1","LEFT","f","1","","","","","",""
"","html-keyboard-response","38","125501","0.0-58.0","34syh0hh","1920","1080","","","","","","","","","","","null","+","Fixation - short","","null","","","","","","","","","","","","",""
"","html-keyboard-response","39","126190","0.0-59.0","34syh0hh","1920","1080","","","","","","","","","","","688","ydi","Practice diganostic trial","","j","practice","13","false","0","RIGHT","j","1","","","","","",""
"","html-keyboard-response","40","126953","0.0-62.0","34syh0hh","1920","1080","","","","","","","","","","","null","+","Fixation - short","","null","","","","","","","","","","","","",""
"","html-keyboard-response","41","127452","0.0-63.0","34syh0hh","1920","1080","","","","","","","","","","","497","uus","Practice diganostic trial","","f","practice","14","false","1","LEFT","f","1","","","","","",""
"","html-keyboard-response","42","128215","0.0-66.0","34syh0hh","1920","1080","","","","","","","","","","","null","+","Fixation - short","","null","","","","","","","","","","","","",""
"","html-keyboard-response","43","128615","0.0-67.0","34syh0hh","1920","1080","","","","","","","","","","","399","uus","Practice diganostic trial","","j","practice","15","false","1","LEFT","f","0","","","","","",""
"","call-function","44","128616","0.0-69.0-0.0","34syh0hh","","","","","","","","","","","","","","","","","","","","","","","","","","","","","",""
"","html-keyboard-response","45","128918","0.0-69.0-1.0","34syh0hh","1920","1080","","","","","","","","","","","null","Wrong","Feedback","","null","","","","","","","","","","","","",""
"","call-function","46","128919","0.0-69.0-2.0","34syh0hh","","","","","","","","","","","","","","","","","","","","","","","","","","","","","",""
"","html-keyboard-response","47","129686","0.0-70.0","34syh0hh","1920","1080","","","","","","","","","","","null","+","Fixation - short","","null","","","","","","","","","","","","",""
"","instructions","48","139826","0.0-71.0","34syh0hh","1920","1080","","","","","","","","","","[{""page_index"":0,""viewing_time"":10138}]","10139","Instructions","Final experiment explanation","","","","","","","","","","","","","","",""
"","html-keyboard-response","49","161352","0.0-72.0","34syh0hh","1920","1080","","","","","","","","","","","null","If sdw press LEFT | If dij press RIGHT","Practice inducer instructions","","null","practice","","","","","","","","","","","",""
"","html-keyboard-response","50","164039","0.0-73.0","34syh0hh","1920","1080","","","","","","","","","","","2683","","Practice inducer trial","","j","practice","","true","","","j","1","RIGHT","","","","",""
"","html-keyboard-response","51","164797","0.0-76.0","34syh0hh","1920","1080","","","","","","","","","","","null","+","Fixation - short","","null","","","","","","","","","","","","",""
"","html-keyboard-response","52","168972","0.0-77.0","34syh0hh","1920","1080","","","","","","","","","","","4174","If wwt press LEFT | If glp press RIGHT","Practice inducer instructions",""," ","practice","","","","","","","","","","","",""
"","html-keyboard-response","53","170558","0.0-78.0","34syh0hh","1920","1080","","","","","","","","","","","1585","","Practice inducer trial","","j","practice","","true","","","j","1","RIGHT","","","","",""
"","html-keyboard-response","54","171313","0.0-81.0","34syh0hh","1920","1080","","","","","","","","","","","null","+","Fixation - short","","null","","","","","","","","","","","","",""
"","html-keyboard-response","55","176815","0.0-82.0","34syh0hh","1920","1080","","","","","","","","","","","5500","If prg press LEFT | If bms press RIGHT","Practice inducer instructions",""," ","practice","","","","","","","","","","","",""
"","html-keyboard-response","56","177906","0.0-83.0","34syh0hh","1920","1080","","","","","","","","","","","1090","","Practice inducer trial","","f","practice","","true","","","f","1","LEFT","","","","",""
"","html-keyboard-response","57","178673","0.0-86.0","34syh0hh","1920","1080","","","","","","","","","","","null","+","Fixation - short","","null","","","","","","","","","","","","",""
"","html-keyboard-response","58","180733","0.0-87.0","34syh0hh","1920","1080","","","","","","","","","","","2059","If cnl press LEFT | If afp press RIGHT","Practice inducer instructions",""," ","practice","","","","","","","","","","","",""
"","html-keyboard-response","59","181649","0.0-88.0","34syh0hh","1920","1080","","","","","","","","","","","915","","Practice inducer trial","","j","practice","","true","","","j","1","RIGHT","","","","",""
"","html-keyboard-response","60","182406","0.0-91.0","34syh0hh","1920","1080","","","","","","","","","","","null","+","Fixation - short","","null","","","","","","","","","","","","",""
"","html-keyboard-response","61","189868","0.0-92.0","34syh0hh","1920","1080","","","","","","","","","","","7462","If jft press LEFT | If wrz press RIGHT","Practice inducer instructions",""," ","practice","","","","","","","","","","","",""
"","html-keyboard-response","62","190379","0.0-93.0","34syh0hh","1920","1080","","","","","","","","","","","510","","Practice inducer trial","","j","practice","","true","","","f","0","LEFT","","","","",""
"","call-function","63","190379","0.0-95.0-0.0","34syh0hh","","","","","","","","","","","","","","","","","","","","","","","","","","","","","",""
"","html-keyboard-response","64","190688","0.0-95.0-1.0","34syh0hh","1920","1080","","","","","","","","","","","null","Wrong","Feedback","","null","","","","","","","","","","","","",""
"","call-function","65","190690","0.0-95.0-2.0","34syh0hh","","","","","","","","","","","","","","","","","","","","","","","","","","","","","",""
"","html-keyboard-response","66","191452","0.0-96.0","34syh0hh","1920","1080","","","","","","","","","","","null","+","Fixation - short","","null","","","","","","","","","","","","",""
"","html-keyboard-response","67","194565","0.0-97.0","34syh0hh","1920","1080","","","","","","","","","","","3112","If vsc press LEFT | If zpl press RIGHT","Practice inducer instructions",""," ","practice","","","","","","","","","","","",""
"","html-keyboard-response","68","195105","0.0-98.0","34syh0hh","1920","1080","","","","","","","","","","","539","","Practice inducer trial","","f","practice","","true","","","f","1","LEFT","","","","",""
"","html-keyboard-response","69","195861","0.0-101.0","34syh0hh","1920","1080","","","","","","","","","","","null","+","Fixation - short","","null","","","","","","","","","","","","",""
"","html-keyboard-response","70","235242","0.0-102.0","34syh0hh","1920","1080","","","","","","","","","","","39380","End practice","End of practice",""," ","","","","","","","","","","","","",""
"","html-keyboard-response","71","236754","0.0-103.0","34syh0hh","1920","1080","","","","","","","","","","","null","+","Fixation - long","","null","","","","","","","","","","","","",""
"","html-keyboard-response","72","244836","0.0-104.0","34syh0hh","1920","1080","","","","","","","","","","","8080","If flh press LEFT | If dgv press RIGHT","Inducer instructions",""," ","0","","","","","","","","","","","",""
"","html-keyboard-response","73","245590","0.0-105.0","34syh0hh","1920","1080","","","","","","","","","","","null","+","Fixation - short","","null","","","","","","","","","","","","",""
"","html-keyboard-response","74","246534","0.0-106.0","34syh0hh","1920","1080","","","","","","","","","","","942","flh","Diagnostic trial","","j","0","0","false","true","LEFT","f","0","","LEFT","true","","",""
"","call-function","75","246534","0.0-108.0-0.0","34syh0hh","","","","","","","","","","","","","","","","","","","","","","","","","","","","","",""
"","html-keyboard-response","76","246847","0.0-108.0-1.0","34syh0hh","1920","1080","","","","","","","","","","","null","Wrong","Feedback","","null","","","","","","","","","","","","",""
"","call-function","77","246848","0.0-108.0-2.0","34syh0hh","","","","","","","","","","","","","","","","","","","","","","","","","","","","","",""
"","html-keyboard-response","78","247600","0.0-109.0","34syh0hh","1920","1080","","","","","","","","","","","null","+","Fixation - short","","null","","","","","","","","","","","","",""
"","html-keyboard-response","79","248371","0.0-110.0","34syh0hh","1920","1080","","","","","","","","","","","769","dgv","Diagnostic trial","","f","0","1","false","true","LEFT","f","1","","RIGHT","false","","",""
"","html-keyboard-response","80","249125","0.0-113.0","34syh0hh","1920","1080","","","","","","","","","","","null","+","Fixation - short","","null","","","","","","","","","","","","",""
"","html-keyboard-response","81","250196","0.0-114.0","34syh0hh","1920","1080","","","","","","","","","","","1070","flh","Diagnostic trial","","f","0","2","false","true","LEFT","f","1","","LEFT","true","","",""
"","html-keyboard-response","82","250955","0.0-117.0","34syh0hh","1920","1080","","","","","","","","","","","null","+","Fixation - short","","null","","","","","","","","","","","","",""
"","html-keyboard-response","83","251630","0.0-118.0","34syh0hh","1920","1080","","","","","","","","","","","674","flh","Diagnostic trial","","j","0","3","false","false","RIGHT","j","1","","LEFT","false","","",""
"","html-keyboard-response","84","252391","0.0-121.0","34syh0hh","1920","1080","","","","","","","","","","","null","+","Fixation - short","","null","","","","","","","","","","","","",""
"","html-keyboard-response","85","253048","0.0-122.0","34syh0hh","1920","1080","","","","","","","","","","","655","dgv","Diagnostic trial","","j","0","4","false","false","RIGHT","j","1","","RIGHT","true","","",""
"","html-keyboard-response","86","253810","0.0-125.0","34syh0hh","1920","1080","","","","","","","","","","","null","+","Fixation - short","","null","","","","","","","","","","","","",""
"","html-keyboard-response","87","254287","0.0-126.0","34syh0hh","1920","1080","","","","","","","","","","","475","flh","Diagnostic trial","","f","0","5","false","true","LEFT","f","1","","LEFT","true","","",""
"","html-keyboard-response","88","255048","0.0-129.0","34syh0hh","1920","1080","","","","","","","","","","","null","+","Fixation - short","","null","","","","","","","","","","","","",""
"","html-keyboard-response","89","255765","0.0-130.0","34syh0hh","1920","1080","","","","","","","","","","","716","dgv","Diagnostic trial","","j","0","6","false","false","RIGHT","j","1","","RIGHT","true","","",""
"","html-keyboard-response","90","256519","0.0-133.0","34syh0hh","1920","1080","","","","","","","","","","","null","+","Fixation - short","","null","","","","","","","","","","","","",""
"","html-keyboard-response","91","257113","0.0-134.0","34syh0hh","1920","1080","","","","","","","","","","","593","dgv","Diagnostic trial","","j","0","7","false","false","RIGHT","j","1","","RIGHT","true","","",""
"","html-keyboard-response","92","257875","0.0-137.0","34syh0hh","1920","1080","","","","","","","","","","","null","+","Fixation - short","","null","","","","","","","","","","","","",""
"","html-keyboard-response","93","258598","0.0-138.0","34syh0hh","1920","1080","","","","","","","","","","","722","flh","Diagnostic trial","","j","0","8","false","false","RIGHT","j","1","","LEFT","false","","",""
"","html-keyboard-response","94","259363","0.0-141.0","34syh0hh","1920","1080","","","","","","","","","","","null","+","Fixation - short","","null","","","","","","","","","","","","",""
"","html-keyboard-response","95","259912","0.0-142.0","34syh0hh","1920","1080","","","","","","","","","","","548","flh","Diagnostic trial","","f","0","9","false","true","LEFT","f","1","","LEFT","true","","",""
"","html-keyboard-response","96","260671","0.0-145.0","34syh0hh","1920","1080","","","","","","","","","","","null","+","Fixation - short","","null","","","","","","","","","","","","",""
"","html-keyboard-response","97","261519","0.0-146.0","34syh0hh","1920","1080","","","","","","","","","","","847","dgv","Diagnostic trial","","j","0","10","false","false","RIGHT","j","1","","RIGHT","true","","",""
"","html-keyboard-response","98","262285","0.0-149.0","34syh0hh","1920","1080","","","","","","","","","","","null","+","Fixation - short","","null","","","","","","","","","","","","",""
"","html-keyboard-response","99","262700","0.0-150.0","34syh0hh","1920","1080","","","","","","","","","","","413","dgv","Diagnostic trial","","j","0","11","false","false","RIGHT","j","1","","RIGHT","true","","",""
"","html-keyboard-response","100","263452","0.0-153.0","34syh0hh","1920","1080","","","","","","","","","","","null","+","Fixation - short","","null","","","","","","","","","","","","",""
"","html-keyboard-response","101","263970","0.0-154.0","34syh0hh","1920","1080","","","","","","","","","","","516","flh","Diagnostic trial","","f","0","12","false","true","LEFT","f","1","","LEFT","true","","",""
"","html-keyboard-response","102","264721","0.0-157.0","34syh0hh","1920","1080","","","","","","","","","","","null","+","Fixation - short","","null","","","","","","","","","","","","",""
"","html-keyboard-response","103","265751","0.0-158.0","34syh0hh","1920","1080","","","","","","","","","","","1029","dgv","Inducer trial","","j","0","","true","","","j","1","RIGHT","","","","",""
"","html-keyboard-response","104","267265","0.0-161.0","34syh0hh","1920","1080","","","","","","","","","","","null","+","Fixation - long","","null","","","","","","","","","","","","",""
"","html-keyboard-response","105","273320","0.0-162.0","34syh0hh","1920","1080","","","","","","","","","","","6053","If psl press LEFT | If ecl press RIGHT","Inducer instructions",""," ","1","","","","","","","","","","","",""
"","html-keyboard-response","106","274084","0.0-163.0","34syh0hh","1920","1080","","","","","","","","","","","null","+","Fixation - short","","null","","","","","","","","","","","","",""
"","html-keyboard-response","107","275153","0.0-164.0","34syh0hh","1920","1080","","","","","","","","","","","1068","ecl","Diagnostic trial","","j","1","0","false","true","LEFT","f","0","","RIGHT","false","","",""
"","call-function","108","275154","0.0-166.0-0.0","34syh0hh","","","","","","","","","","","","","","","","","","","","","","","","","","","","","",""
"","html-keyboard-response","109","275465","0.0-166.0-1.0","34syh0hh","1920","1080","","","","","","","","","","","null","Wrong","Feedback","","null","","","","","","","","","","","","",""
"","call-function","110","275466","0.0-166.0-2.0","34syh0hh","","","","","","","","","","","","","","","","","","","","","","","","","","","","","",""
"","html-keyboard-response","111","276219","0.0-167.0","34syh0hh","1920","1080","","","","","","","","","","","null","+","Fixation - short","","null","","","","","","","","","","","","",""
"","html-keyboard-response","112","277173","0.0-168.0","34syh0hh","1920","1080","","","","","","","","","","","953","psl","Diagnostic trial","","j","1","1","false","false","RIGHT","j","1","","LEFT","false","","",""
"","html-keyboard-response","113","277936","0.0-171.0","34syh0hh","1920","1080","","","","","","","","","","","null","+","Fixation - short","","null","","","","","","","","","","","","",""
"","html-keyboard-response","114","278742","0.0-172.0","34syh0hh","1920","1080","","","","","","","","","","","805","ecl","Diagnostic trial","","f","1","2","false","true","LEFT","f","1","","RIGHT","false","","",""
"","html-keyboard-response","115","279504","0.0-175.0","34syh0hh","1920","1080","","","","","","","","","","","null","+","Fixation - short","","null","","","","","","","","","","","","",""
"","html-keyboard-response","116","280233","0.0-176.0","34syh0hh","1920","1080","","","","","","","","","","","728","psl","Diagnostic trial","","j","1","3","false","false","RIGHT","j","1","","LEFT","false","","",""
"","html-keyboard-response","117","280998","0.0-179.0","34syh0hh","1920","1080","","","","","","","","","","","null","+","Fixation - short","","null","","","","","","","","","","","","",""
"","html-keyboard-response","118","281544","0.0-180.0","34syh0hh","1920","1080","","","","","","","","","","","545","psl","Diagnostic trial","","j","1","4","false","false","RIGHT","j","1","","LEFT","false","","",""
"","html-keyboard-response","119","282303","0.0-183.0","34syh0hh","1920","1080","","","","","","","","","","","null","+","Fixation - short","","null","","","","","","","","","","","","",""
"","html-keyboard-response","120","283173","0.0-184.0","34syh0hh","1920","1080","","","","","","","","","","","868","psl","Diagnostic trial","","f","1","5","false","true","LEFT","f","1","","LEFT","true","","",""
"","html-keyboard-response","121","283931","0.0-187.0","34syh0hh","1920","1080","","","","","","","","","","","null","+","Fixation - short","","null","","","","","","","","","","","","",""
"","html-keyboard-response","122","284617","0.0-188.0","34syh0hh","1920","1080","","","","","","","","","","","684","psl","Diagnostic trial","","f","1","6","false","true","LEFT","f","1","","LEFT","true","","",""
"","html-keyboard-response","123","285372","0.0-191.0","34syh0hh","1920","1080","","","","","","","","","","","null","+","Fixation - short","","null","","","","","","","","","","","","",""
"","html-keyboard-response","124","285928","0.0-192.0","34syh0hh","1920","1080","","","","","","","","","","","555","psl","Diagnostic trial","","f","1","7","false","true","LEFT","f","1","","LEFT","true","","",""
"","html-keyboard-response","125","286690","0.0-195.0","34syh0hh","1920","1080","","","","","","","","","","","null","+","Fixation - short","","null","","","","","","","","","","","","",""
"","html-keyboard-response","126","288587","0.0-196.0","34syh0hh","1920","1080","","","","","","","","","","","1896","ecl","Diagnostic trial","","j","1","8","false","true","LEFT","f","0","","RIGHT","false","","",""
"","call-function","127","288588","0.0-198.0-0.0","34syh0hh","","","","","","","","","","","","","","","","","","","","","","","","","","","","","",""
"","html-keyboard-response","128","288891","0.0-198.0-1.0","34syh0hh","1920","1080","","","","","","","","","","","null","Wrong","Feedback","","null","","","","","","","","","","","","",""
"","call-function","129","288892","0.0-198.0-2.0","34syh0hh","","","","","","","","","","","","","","","","","","","","","","","","","","","","","",""
"","html-keyboard-response","130","289657","0.0-199.0","34syh0hh","1920","1080","","","","","","","","","","","null","+","Fixation - short","","null","","","","","","","","","","","","",""
"","html-keyboard-response","131","290417","0.0-200.0","34syh0hh","1920","1080","","","","","","","","","","","758","psl","Diagnostic trial","","j","1","9","false","false","RIGHT","j","1","","LEFT","false","","",""
"","html-keyboard-response","132","291183","0.0-203.0","34syh0hh","1920","1080","","","","","","","","","","","null","+","Fixation - short","","null","","","","","","","","","","","","",""
"","html-keyboard-response","133","291913","0.0-204.0","34syh0hh","1920","1080","","","","","","","","","","","729","ecl","Diagnostic trial","","j","1","10","false","false","RIGHT","j","1","","RIGHT","true","","",""
"","html-keyboard-response","134","292669","0.0-207.0","34syh0hh","1920","1080","","","","","","","","","","","null","+","Fixation - short","","null","","","","","","","","","","","","",""
"","html-keyboard-response","135","293201","0.0-208.0","34syh0hh","1920","1080","","","","","","","","","","","530","psl","Diagnostic trial","","j","1","11","false","false","RIGHT","j","1","","LEFT","false","","",""
"","html-keyboard-response","136","293955","0.0-211.0","34syh0hh","1920","1080","","","","","","","","","","","null","+","Fixation - short","","null","","","","","","","","","","","","",""
"","html-keyboard-response","137","294393","0.0-212.0","34syh0hh","1920","1080","","","","","","","","","","","436","psl","Diagnostic trial","","j","1","12","false","false","RIGHT","j","1","","LEFT","false","","",""
"","html-keyboard-response","138","295145","0.0-215.0","34syh0hh","1920","1080","","","","","","","","","","","null","+","Fixation - short","","null","","","","","","","","","","","","",""
"","html-keyboard-response","139","295939","0.0-216.0","34syh0hh","1920","1080","","","","","","","","","","","793","psl","Inducer trial","","f","1","","true","","","f","1","LEFT","","","","",""
"","html-keyboard-response","140","297451","0.0-219.0","34syh0hh","1920","1080","","","","","","","","","","","null","+","Fixation - long","","null","","","","","","","","","","","","",""
"","html-keyboard-response","141","303501","0.0-220.0","34syh0hh","1920","1080","","","","","","","","","","","6048","If goj press LEFT | If ibg press RIGHT","Inducer instructions",""," ","2","","","","","","","","","","","",""
"","html-keyboard-response","142","304259","0.0-221.0","34syh0hh","1920","1080","","","","","","","","","","","null","+","Fixation - short","","null","","","","","","","","","","","","",""
"","html-keyboard-response","143","305197","0.0-222.0","34syh0hh","1920","1080","","","","","","","","","","","937","goj","Diagnostic trial","","f","2","0","false","false","RIGHT","j","0","","LEFT","false","","",""
"","call-function","144","305197","0.0-224.0-0.0","34syh0hh","","","","","","","","","","","","","","","","","","","","","","","","","","","","","",""
"","html-keyboard-response","145","305514","0.0-224.0-1.0","34syh0hh","1920","1080","","","","","","","","","","","null","Wrong","Feedback","","null","","","","","","","","","","","","",""
"","call-function","146","305514","0.0-224.0-2.0","34syh0hh","","","","","","","","","","","","","","","","","","","","","","","","","","","","","",""
"","html-keyboard-response","147","306280","0.0-225.0","34syh0hh","1920","1080","","","","","","","","","","","null","+","Fixation - short","","null","","","","","","","","","","","","",""
"","html-keyboard-response","148","307705","0.0-226.0","34syh0hh","1920","1080","","","","","","","","","","","1424","goj","Diagnostic trial","","j","2","1","false","false","RIGHT","j","1","","LEFT","false","","",""
"","html-keyboard-response","149","308463","0.0-229.0","34syh0hh","1920","1080","","","","","","","","","","","null","+","Fixation - short","","null","","","","","","","","","","","","",""
"","html-keyboard-response","150","309245","0.0-230.0","34syh0hh","1920","1080","","","","","","","","","","","781","ibg","Diagnostic trial","","j","2","2","false","false","RIGHT","j","1","","RIGHT","true","","",""
"","html-keyboard-response","151","310002","0.0-233.0","34syh0hh","1920","1080","","","","","","","","","","","null","+","Fixation - short","","null","","","","","","","","","","","","",""
"","html-keyboard-response","152","310825","0.0-234.0","34syh0hh","1920","1080","","","","","","","","","","","821","goj","Diagnostic trial","","j","2","3","false","false","RIGHT","j","1","","LEFT","false","","",""
"","html-keyboard-response","153","311583","0.0-237.0","34syh0hh","1920","1080","","","","","","","","","","","null","+","Fixation - short","","null","","","","","","","","","","","","",""
"","html-keyboard-response","154","312318","0.0-238.0","34syh0hh","1920","1080","","","","","","","","","","","734","ibg","Diagnostic trial","","f","2","4","false","true","LEFT","f","1","","RIGHT","false","","",""
"","html-keyboard-response","155","313080","0.0-241.0","34syh0hh","1920","1080","","","","","","","","","","","null","+","Fixation - short","","null","","","","","","","","","","","","",""
"","html-keyboard-response","156","314011","0.0-242.0","34syh0hh","1920","1080","","","","","","","","","","","929","ibg","Diagnostic trial","","j","2","5","false","false","RIGHT","j","1","","RIGHT","true","","",""
"","html-keyboard-response","157","314764","0.0-245.0","34syh0hh","1920","1080","","","","","","","","","","","null","+","Fixation - short","","null","","","","","","","","","","","","",""
"","html-keyboard-response","158","315339","0.0-246.0","34syh0hh","1920","1080","","","","","","","","","","","573","ibg","Diagnostic trial","","f","2","6","false","true","LEFT","f","1","","RIGHT","false","","",""
"","html-keyboard-response","159","316105","0.0-249.0","34syh0hh","1920","1080","","","","","","","","","","","null","+","Fixation - short","","null","","","","","","","","","","","","",""
"","html-keyboard-response","160","316673","0.0-250.0","34syh0hh","1920","1080","","","","","","","","","","","567","ibg","Diagnostic trial","","j","2","7","false","false","RIGHT","j","1","","RIGHT","true","","",""
"","html-keyboard-response","161","317434","0.0-253.0","34syh0hh","1920","1080","","","","","","","","","","","null","+","Fixation - short","","null","","","","","","","","","","","","",""
"","html-keyboard-response","162","318288","0.0-254.0","34syh0hh","1920","1080","","","","","","","","","","","852","ibg","Diagnostic trial","","f","2","8","false","true","LEFT","f","1","","RIGHT","false","","",""
"","html-keyboard-response","163","319050","0.0-257.0","34syh0hh","1920","1080","","","","","","","","","","","null","+","Fixation - short","","null","","","","","","","","","","","","",""
"","html-keyboard-response","164","319714","0.0-258.0","34syh0hh","1920","1080","","","","","","","","","","","662","ibg","Diagnostic trial","","j","2","9","false","false","RIGHT","j","1","","RIGHT","true","","",""
"","html-keyboard-response","165","320473","0.0-261.0","34syh0hh","1920","1080","","","","","","","","","","","null","+","Fixation - short","","null","","","","","","","","","","","","",""
"","html-keyboard-response","166","321384","0.0-262.0","34syh0hh","1920","1080","","","","","","","","","","","910","goj","Diagnostic trial","","j","2","10","false","false","RIGHT","j","1","","LEFT","false","","",""
"","html-keyboard-response","167","322141","0.0-265.0","34syh0hh","1920","1080","","","","","","","","","","","null","+","Fixation - short","","null","","","","","","","","","","","","",""
"","html-keyboard-response","168","322734","0.0-266.0","34syh0hh","1920","1080","","","","","","","","","","","592","ibg","Diagnostic trial","","f","2","11","false","true","LEFT","f","1","","RIGHT","false","","",""
"","html-keyboard-response","169","323486","0.0-269.0","34syh0hh","1920","1080","","","","","","","","","","","null","+","Fixation - short","","null","","","","","","","","","","","","",""
"","html-keyboard-response","170","324546","0.0-270.0","34syh0hh","1920","1080","","","","","","","","","","","1059","ibg","Diagnostic trial","","j","2","12","false","false","RIGHT","j","1","","RIGHT","true","","",""
"","html-keyboard-response","171","325312","0.0-273.0","34syh0hh","1920","1080","","","","","","","","","","","null","+","Fixation - short","","null","","","","","","","","","","","","",""
"","html-keyboard-response","172","326140","0.0-274.0","34syh0hh","1920","1080","","","","","","","","","","","827","ibg","Diagnostic trial","","f","2","13","false","true","LEFT","f","1","","RIGHT","false","","",""
"","html-keyboard-response","173","326906","0.0-277.0","34syh0hh","1920","1080","","","","","","","","","","","null","+","Fixation - short","","null","","","","","","","","","","","","",""
"","html-keyboard-response","174","327471","0.0-278.0","34syh0hh","1920","1080","","","","","","","","","","","563","ibg","Diagnostic trial","","f","2","14","false","true","LEFT","f","1","","RIGHT","false","","",""
"","html-keyboard-response","175","328228","0.0-281.0","34syh0hh","1920","1080","","","","","","","","","","","null","+","Fixation - short","","null","","","","","","","","","","","","",""
"","html-keyboard-response","176","329017","0.0-282.0","34syh0hh","1920","1080","","","","","","","","","","","788","goj","Inducer trial","","j","2","","true","","","f","0","LEFT","","","","",""
"","call-function","177","329018","0.0-284.0-0.0","34syh0hh","","","","","","","","","","","","","","","","","","","","","","","","","","","","","",""
"","html-keyboard-response","178","329323","0.0-284.0-1.0","34syh0hh","1920","1080","","","","","","","","","","","null","Wrong","Feedback","","null","","","","","","","","","","","","",""
"","call-function","179","329323","0.0-284.0-2.0","34syh0hh","","","","","","","","","","","","","","","","","","","","","","","","","","","","","",""
"","html-keyboard-response","180","330828","0.0-285.0","34syh0hh","1920","1080","","","","","","","","","","","null","+","Fixation - long","","null","","","","","","","","","","","","",""
"","html-keyboard-response","181","337358","0.0-286.0","34syh0hh","1920","1080","","","","","","","","","","","6529","If swr press LEFT | If oez press RIGHT","Inducer instructions",""," ","3","","","","","","","","","","","",""
"","html-keyboard-response","182","338120","0.0-287.0","34syh0hh","1920","1080","","","","","","","","","","","null","+","Fixation - short","","null","","","","","","","","","","","","",""
"","html-keyboard-response","183","338898","0.0-288.0","34syh0hh","1920","1080","","","","","","","","","","","776","oez","Diagnostic trial","","j","3","0","false","false","RIGHT","j","1","","RIGHT","true","","",""
"","html-keyboard-response","184","339662","0.0-291.0","34syh0hh","1920","1080","","","","","","","","","","","null","+","Fixation - short","","null","","","","","","","","","","","","",""
"","html-keyboard-response","185","340298","0.0-292.0","34syh0hh","1920","1080","","","","","","","","","","","634","swr","Diagnostic trial","","f","3","1","false","true","LEFT","f","1","","LEFT","true","","",""
"","html-keyboard-response","186","341055","0.0-295.0","34syh0hh","1920","1080","","","","","","","","","","","null","+","Fixation - short","","null","","","","","","","","","","","","",""
"","html-keyboard-response","187","341684","0.0-296.0","34syh0hh","1920","1080","","","","","","","","","","","628","swr","Diagnostic trial","","j","3","2","false","false","RIGHT","j","1","","LEFT","false","","",""
"","html-keyboard-response","188","342444","0.0-299.0","34syh0hh","1920","1080","","","","","","","","","","","null","+","Fixation - short","","null","","","","","","","","","","","","",""
"","html-keyboard-response","189","343378","0.0-300.0","34syh0hh","1920","1080","","","","","","","","","","","933","oez","Diagnostic trial","","f","3","3","false","true","LEFT","f","1","","RIGHT","false","","",""
"","html-keyboard-response","190","344140","0.0-303.0","34syh0hh","1920","1080","","","","","","","","","","","null","+","Fixation - short","","null","","","","","","","","","","","","",""
"","html-keyboard-response","191","344910","0.0-304.0","34syh0hh","1920","1080","","","","","","","","","","","769","oez","Diagnostic trial","","j","3","4","false","false","RIGHT","j","1","","RIGHT","true","","",""
"","html-keyboard-response","192","345675","0.0-307.0","34syh0hh","1920","1080","","","","","","","","","","","null","+","Fixation - short","","null","","","","","","","","","","","","",""
"","html-keyboard-response","193","346408","0.0-308.0","34syh0hh","1920","1080","","","","","","","","","","","732","oez","Diagnostic trial","","f","3","5","false","true","LEFT","f","1","","RIGHT","false","","",""
"","html-keyboard-response","194","347172","0.0-311.0","34syh0hh","1920","1080","","","","","","","","","","","null","+","Fixation - short","","null","","","","","","","","","","","","",""
"","html-keyboard-response","195","347811","0.0-312.0","34syh0hh","1920","1080","","","","","","","","","","","637","oez","Diagnostic trial","","j","3","6","false","false","RIGHT","j","1","","RIGHT","true","","",""
"","html-keyboard-response","196","348578","0.0-315.0","34syh0hh","1920","1080","","","","","","","","","","","null","+","Fixation - short","","null","","","","","","","","","","","","",""
"","html-keyboard-response","197","349239","0.0-316.0","34syh0hh","1920","1080","","","","","","","","","","","661","swr","Diagnostic trial","","f","3","7","false","true","LEFT","f","1","","LEFT","true","","",""
"","html-keyboard-response","198","350000","0.0-319.0","34syh0hh","1920","1080","","","","","","","","","","","null","+","Fixation - short","","null","","","","","","","","","","","","",""
"","html-keyboard-response","199","350456","0.0-320.0","34syh0hh","1920","1080","","","","","","","","","","","455","oez","Diagnostic trial","","j","3","8","false","true","LEFT","f","0","","RIGHT","false","","",""
"","call-function","200","350456","0.0-322.0-0.0","34syh0hh","","","","","","","","","","","","","","","","","","","","","","","","","","","","","",""
"","html-keyboard-response","201","350768","0.0-322.0-1.0","34syh0hh","1920","1080","","","","","","","","","","","null","Wrong","Feedback","","null","","","","","","","","","","","","",""
"","call-function","202","350769","0.0-322.0-2.0","34syh0hh","","","","","","","","","","","","","","","","","","","","","","","","","","","","","",""
"","html-keyboard-response","203","351533","0.0-323.0","34syh0hh","1920","1080","","","","","","","","","","","null","+","Fixation - short","","null","","","","","","","","","","","","",""
"","html-keyboard-response","204","352491","0.0-324.0","34syh0hh","1920","1080","","","","","","","","","","","956","swr","Inducer trial","","f","3","","true","","","f","1","LEFT","","","","",""
"","html-keyboard-response","205","353994","0.0-327.0","34syh0hh","1920","1080","","","","","","","","","","","null","+","Fixation - long","","null","","","","","","","","","","","","",""
"","html-keyboard-response","206","357006","0.0-328.0","34syh0hh","1920","1080","","","","","","","","","","","3011","If fja press LEFT | If jsf press RIGHT","Inducer instructions",""," ","4","","","","","","","","","","","",""
"","html-keyboard-response","207","357766","0.0-329.0","34syh0hh","1920","1080","","","","","","","","","","","null","+","Fixation - short","","null","","","","","","","","","","","","",""
"","html-keyboard-response","208","358699","0.0-330.0","34syh0hh","1920","1080","","","","","","","","","","","932","fja","Diagnostic trial","","f","4","0","false","false","RIGHT","j","0","","LEFT","false","","",""
"","call-function","209","358700","0.0-332.0-0.0","34syh0hh","","","","","","","","","","","","","","","","","","","","","","","","","","","","","",""
"","html-keyboard-response","210","359015","0.0-332.0-1.0","34syh0hh","1920","1080","","","","","","","","","","","null","Wrong","Feedback","","null","","","","","","","","","","","","",""
"","call-function","211","359016","0.0-332.0-2.0","34syh0hh","","","","","","","","","","","","","","","","","","","","","","","","","","","","","",""
"","html-keyboard-response","212","359781","0.0-333.0","34syh0hh","1920","1080","","","","","","","","","","","null","+","Fixation - short","","null","","","","","","","","","","","","",""
"","html-keyboard-response","213","360607","0.0-334.0","34syh0hh","1920","1080","","","","","","","","","","","824","fja","Diagnostic trial","","f","4","1","false","true","LEFT","f","1","","LEFT","true","","",""
"","html-keyboard-response","214","361373","0.0-337.0","34syh0hh","1920","1080","","","","","","","","","","","null","+","Fixation - short","","null","","","","","","","","","","","","",""
"","html-keyboard-response","215","361997","0.0-338.0","34syh0hh","1920","1080","","","","","","","","","","","623","jsf","Diagnostic trial","","f","4","2","false","true","LEFT","f","1","","RIGHT","false","","",""
"","html-keyboard-response","216","362763","0.0-341.0","34syh0hh","1920","1080","","","","","","","","","","","null","+","Fixation - short","","null","","","","","","","","","","","","",""
"","html-keyboard-response","217","363463","0.0-342.0","34syh0hh","1920","1080","","","","","","","","","","","699","fja","Diagnostic trial","","j","4","3","false","false","RIGHT","j","1","","LEFT","false","","",""
"","html-keyboard-response","218","364230","0.0-345.0","34syh0hh","1920","1080","","","","","","","","","","","null","+","Fixation - short","","null","","","","","","","","","","","","",""
"","html-keyboard-response","219","364904","0.0-346.0","34syh0hh","1920","1080","","","","","","","","","","","673","jsf","Diagnostic trial","","j","4","4","false","false","RIGHT","j","1","","RIGHT","true","","",""
"","html-keyboard-response","220","365671","0.0-349.0","34syh0hh","1920","1080","","","","","","","","","","","null","+","Fixation - short","","null","","","","","","","","","","","","",""
"","html-keyboard-response","221","366334","0.0-350.0","34syh0hh","1920","1080","","","","","","","","","","","661","fja","Diagnostic trial","","f","4","5","false","true","LEFT","f","1","","LEFT","true","","",""
"","html-keyboard-response","222","367088","0.0-353.0","34syh0hh","1920","1080","","","","","","","","","","","null","+","Fixation - short","","null","","","","","","","","","","","","",""
"","html-keyboard-response","223","367886","0.0-354.0","34syh0hh","1920","1080","","","","","","","","","","","797","fja","Diagnostic trial","","j","4","6","false","false","RIGHT","j","1","","LEFT","false","","",""
"","html-keyboard-response","224","368653","0.0-357.0","34syh0hh","1920","1080","","","","","","","","","","","null","+","Fixation - short","","null","","","","","","","","","","","","",""
"","html-keyboard-response","225","369212","0.0-358.0","34syh0hh","1920","1080","","","","","","","","","","","558","fja","Diagnostic trial","","f","4","7","false","true","LEFT","f","1","","LEFT","true","","",""
"","html-keyboard-response","226","369965","0.0-361.0","34syh0hh","1920","1080","","","","","","","","","","","null","+","Fixation - short","","null","","","","","","","","","","","","",""
"","html-keyboard-response","227","370442","0.0-362.0","34syh0hh","1920","1080","","","","","","","","","","","476","fja","Diagnostic trial","","j","4","8","false","false","RIGHT","j","1","","LEFT","false","","",""
"","html-keyboard-response","228","371206","0.0-365.0","34syh0hh","1920","1080","","","","","","","","","","","null","+","Fixation - short","","null","","","","","","","","","","","","",""
"","html-keyboard-response","229","371771","0.0-366.0","34syh0hh","1920","1080","","","","","","","","","","","564","jsf","Inducer trial","","f","4","","true","","","j","0","RIGHT","","","","",""
"","call-function","230","371772","0.0-368.0-0.0","34syh0hh","","","","","","","","","","","","","","","","","","","","","","","","","","","","","",""
"","html-keyboard-response","231","372079","0.0-368.0-1.0","34syh0hh","1920","1080","","","","","","","","","","","null","Wrong","Feedback","","null","","","","","","","","","","","","",""
"","call-function","232","372079","0.0-368.0-2.0","34syh0hh","","","","","","","","","","","","","","","","","","","","","","","","","","","","","",""
"","html-keyboard-response","233","373591","0.0-369.0","34syh0hh","1920","1080","","","","","","","","","","","null","+","Fixation - long","","null","","","","","","","","","","","","",""
"","html-keyboard-response","234","377638","0.0-370.0","34syh0hh","1920","1080","","","","","","","","","","","4046","If vpu press LEFT | If dnc press RIGHT","Inducer instructions",""," ","5","","","","","","","","","","","",""
"","html-keyboard-response","235","378403","0.0-371.0","34syh0hh","1920","1080","","","","","","","","","","","null","+","Fixation - short","","null","","","","","","","","","","","","",""
"","html-keyboard-response","236","379631","0.0-372.0","34syh0hh","1920","1080","","","","","","","","","","","1226","vpu","Diagnostic trial","","f","5","0","false","false","RIGHT","j","0","","LEFT","false","","",""
"","call-function","237","379632","0.0-374.0-0.0","34syh0hh","","","","","","","","","","","","","","","","","","","","","","","","","","","","","",""
"","html-keyboard-response","238","379935","0.0-374.0-1.0","34syh0hh","1920","1080","","","","","","","","","","","null","Wrong","Feedback","","null","","","","","","","","","","","","",""
"","call-function","239","379936","0.0-374.0-2.0","34syh0hh","","","","","","","","","","","","","","","","","","","","","","","","","","","","","",""
"","html-keyboard-response","240","380701","0.0-375.0","34syh0hh","1920","1080","","","","","","","","","","","null","+","Fixation - short","","null","","","","","","","","","","","","",""
"","html-keyboard-response","241","381497","0.0-376.0","34syh0hh","1920","1080","","","","","","","","","","","794","vpu","Diagnostic trial","","f","5","1","false","true","LEFT","f","1","","LEFT","true","","",""
"","html-keyboard-response","242","382257","0.0-379.0","34syh0hh","1920","1080","","","","","","","","","","","null","+","Fixation - short","","null","","","","","","","","","","","","",""
"","html-keyboard-response","243","382915","0.0-380.0","34syh0hh","1920","1080","","","","","","","","","","","656","vpu","Diagnostic trial","","f","5","2","false","true","LEFT","f","1","","LEFT","true","","",""
"","html-keyboard-response","244","383673","0.0-383.0","34syh0hh","1920","1080","","","","","","","","","","","null","+","Fixation - short","","null","","","","","","","","","","","","",""
"","html-keyboard-response","245","384221","0.0-384.0","34syh0hh","1920","1080","","","","","","","","","","","547","vpu","Diagnostic trial","","f","5","3","false","true","LEFT","f","1","","LEFT","true","","",""
"","html-keyboard-response","246","384984","0.0-387.0","34syh0hh","1920","1080","","","","","","","","","","","null","+","Fixation - short","","null","","","","","","","","","","","","",""
"","html-keyboard-response","247","385552","0.0-388.0","34syh0hh","1920","1080","","","","","","","","","","","566","dnc","Diagnostic trial","","f","5","4","false","true","LEFT","f","1","","RIGHT","false","","",""
"","html-keyboard-response","248","386313","0.0-391.0","34syh0hh","1920","1080","","","","","","","","","","","null","+","Fixation - short","","null","","","","","","","","","","","","",""
"","html-keyboard-response","249","386799","0.0-392.0","34syh0hh","1920","1080","","","","","","","","","","","484","vpu","Diagnostic trial","","f","5","5","false","true","LEFT","f","1","","LEFT","true","","",""
"","html-keyboard-response","250","387560","0.0-395.0","34syh0hh","1920","1080","","","","","","","","","","","null","+","Fixation - short","","null","","","","","","","","","","","","",""
"","html-keyboard-response","251","388352","0.0-396.0","34syh0hh","1920","1080","","","","","","","","","","","791","vpu","Diagnostic trial","","j","5","6","false","false","RIGHT","j","1","","LEFT","false","","",""
"","html-keyboard-response","252","389114","0.0-399.0","34syh0hh","1920","1080","","","","","","","","","","","null","+","Fixation - short","","null","","","","","","","","","","","","",""
"","html-keyboard-response","253","389636","0.0-400.0","34syh0hh","1920","1080","","","","","","","","","","","521","dnc","Diagnostic trial","","f","5","7","false","true","LEFT","f","1","","RIGHT","false","","",""
"","html-keyboard-response","254","390391","0.0-403.0","34syh0hh","1920","1080","","","","","","","","","","","null","+","Fixation - short","","null","","","","","","","","","","","","",""
"","html-keyboard-response","255","391143","0.0-404.0","34syh0hh","1920","1080","","","","","","","","","","","752","vpu","Diagnostic trial","","f","5","8","false","true","LEFT","f","1","","LEFT","true","","",""
"","html-keyboard-response","256","391896","0.0-407.0","34syh0hh","1920","1080","","","","","","","","","","","null","+","Fixation - short","","null","","","","","","","","","","","","",""
"","html-keyboard-response","257","392855","0.0-408.0","34syh0hh","1920","1080","","","","","","","","","","","958","vpu","Diagnostic trial","","j","5","9","false","false","RIGHT","j","1","","LEFT","false","","",""
"","html-keyboard-response","258","393609","0.0-411.0","34syh0hh","1920","1080","","","","","","","","","","","null","+","Fixation - short","","null","","","","","","","","","","","","",""
"","html-keyboard-response","259","394131","0.0-412.0","34syh0hh","1920","1080","","","","","","","","","","","520","vpu","Diagnostic trial","","j","5","10","false","false","RIGHT","j","1","","LEFT","false","","",""
"","html-keyboard-response","260","394891","0.0-415.0","34syh0hh","1920","1080","","","","","","","","","","","null","+","Fixation - short","","null","","","","","","","","","","","","",""
"","html-keyboard-response","261","395767","0.0-416.0","34syh0hh","1920","1080","","","","","","","","","","","874","vpu","Diagnostic trial","","f","5","11","false","true","LEFT","f","1","","LEFT","true","","",""
"","html-keyboard-response","262","396530","0.0-419.0","34syh0hh","1920","1080","","","","","","","","","","","null","+","Fixation - short","","null","","","","","","","","","","","","",""
"","html-keyboard-response","263","397413","0.0-420.0","34syh0hh","1920","1080","","","","","","","","","","","881","dnc","Diagnostic trial","","j","5","12","false","false","RIGHT","j","1","","RIGHT","true","","",""
"","html-keyboard-response","264","398171","0.0-423.0","34syh0hh","1920","1080","","","","","","","","","","","null","+","Fixation - short","","null","","","","","","","","","","","","",""
"","html-keyboard-response","265","398715","0.0-424.0","34syh0hh","1920","1080","","","","","","","","","","","542","dnc","Diagnostic trial","","j","5","13","false","false","RIGHT","j","1","","RIGHT","true","","",""
"","html-keyboard-response","266","399473","0.0-427.0","34syh0hh","1920","1080","","","","","","","","","","","null","+","Fixation - short","","null","","","","","","","","","","","","",""
"","html-keyboard-response","267","400017","0.0-428.0","34syh0hh","1920","1080","","","","","","","","","","","542","dnc","Diagnostic trial","","f","5","14","false","true","LEFT","f","1","","RIGHT","false","","",""
"","html-keyboard-response","268","400782","0.0-431.0","34syh0hh","1920","1080","","","","","","","","","","","null","+","Fixation - short","","null","","","","","","","","","","","","",""
"","html-keyboard-response","269","401540","0.0-432.0","34syh0hh","1920","1080","","","","","","","","","","","757","dnc","Diagnostic trial","","f","5","15","false","true","LEFT","f","1","","RIGHT","false","","",""
"","html-keyboard-response","270","402295","0.0-435.0","34syh0hh","1920","1080","","","","","","","","","","","null","+","Fixation - short","","null","","","","","","","","","","","","",""
"","html-keyboard-response","271","404310","0.0-436.0","34syh0hh","1920","1080","","","","","","","","","","","null","dnc","Inducer trial","","null","5","","true","","","j","NaN","RIGHT","","","","",""
"","call-function","272","404311","0.0-437.0-0.0","34syh0hh","","","","","","","","","","","","","","","","","","","","","","","","","","","","","",""
"","html-keyboard-response","273","404625","0.0-437.0-1.0","34syh0hh","1920","1080","","","","","","","","","","","null","Slow","Feedback","","null","","","","","","","","","","","","",""
"","call-function","274","404626","0.0-437.0-2.0","34syh0hh","","","","","","","","","","","","","","","","","","","","","","","","","","","","","",""
"","html-keyboard-response","275","406140","0.0-439.0","34syh0hh","1920","1080","","","","","","","","","","","null","+","Fixation - long","","null","","","","","","","","","","","","",""
"","html-keyboard-response","276","410225","0.0-440.0","34syh0hh","1920","1080","","","","","","","","","","","4084","If upf press LEFT | If ila press RIGHT","Inducer instructions",""," ","6","","","","","","","","","","","",""
"","html-keyboard-response","277","410983","0.0-441.0","34syh0hh","1920","1080","","","","","","","","","","","null","+","Fixation - short","","null","","","","","","","","","","","","",""
"","html-keyboard-response","278","411790","0.0-442.0","34syh0hh","1920","1080","","","","","","","","","","","806","ila","Diagnostic trial","","j","6","0","false","false","RIGHT","j","1","","RIGHT","true","","",""
"","html-keyboard-response","279","412551","0.0-445.0","34syh0hh","1920","1080","","","","","","","","","","","null","+","Fixation - short","","null","","","","","","","","","","","","",""
"","html-keyboard-response","280","413410","0.0-446.0","34syh0hh","1920","1080","","","","","","","","","","","858","upf","Diagnostic trial","","f","6","1","false","false","RIGHT","j","0","","LEFT","false","","",""
"","call-function","281","413411","0.0-448.0-0.0","34syh0hh","","","","","","","","","","","","","","","","","","","","","","","","","","","","","",""
"","html-keyboard-response","282","413728","0.0-448.0-1.0","34syh0hh","1920","1080","","","","","","","","","","","null","Wrong","Feedback","","null","","","","","","","","","","","","",""
"","call-function","283","413728","0.0-448.0-2.0","34syh0hh","","","","","","","","","","","","","","","","","","","","","","","","","","","","","",""
"","html-keyboard-response","284","414493","0.0-449.0","34syh0hh","1920","1080","","","","","","","","","","","null","+","Fixation - short","","null","","","","","","","","","","","","",""
"","html-keyboard-response","285","415377","0.0-450.0","34syh0hh","1920","1080","","","","","","","","","","","881","upf","Diagnostic trial","","f","6","2","false","true","LEFT","f","1","","LEFT","true","","",""
"","html-keyboard-response","286","416143","0.0-453.0","34syh0hh","1920","1080","","","","","","","","","","","null","+","Fixation - short","","null","","","","","","","","","","","","",""
"","html-keyboard-response","287","416907","0.0-454.0","34syh0hh","1920","1080","","","","","","","","","","","763","upf","Diagnostic trial","","j","6","3","false","false","RIGHT","j","1","","LEFT","false","","",""
"","html-keyboard-response","288","417671","0.0-457.0","34syh0hh","1920","1080","","","","","","","","","","","null","+","Fixation - short","","null","","","","","","","","","","","","",""
"","html-keyboard-response","289","418513","0.0-458.0","34syh0hh","1920","1080","","","","","","","","","","","841","ila","Inducer trial","","j","6","","true","","","j","1","RIGHT","","","","",""
"","html-keyboard-response","290","420018","0.0-461.0","34syh0hh","1920","1080","","","","","","","","","","","null","+","Fixation - long","","null","","","","","","","","","","","","",""
"","html-keyboard-response","291","425877","0.0-462.0","34syh0hh","1920","1080","","","","","","","","","","","5857","If bgi press LEFT | If pmf press RIGHT","Inducer instructions",""," ","7","","","","","","","","","","","",""
"","html-keyboard-response","292","426640","0.0-463.0","34syh0hh","1920","1080","","","","","","","","","","","null","+","Fixation - short","","null","","","","","","","","","","","","",""
"","html-keyboard-response","293","427444","0.0-464.0","34syh0hh","1920","1080","","","","","","","","","","","803","bgi","Diagnostic trial","","f","7","0","false","true","LEFT","f","1","","LEFT","true","","",""
"","html-keyboard-response","294","428200","0.0-467.0","34syh0hh","1920","1080","","","","","","","","","","","null","+","Fixation - short","","null","","","","","","","","","","","","",""
"","html-keyboard-response","295","429141","0.0-468.0","34syh0hh","1920","1080","","","","","","","","","","","940","bgi","Diagnostic trial","","j","7","1","false","false","RIGHT","j","1","","LEFT","false","","",""
"","html-keyboard-response","296","429903","0.0-471.0","34syh0hh","1920","1080","","","","","","","","","","","null","+","Fixation - short","","null","","","","","","","","","","","","",""
"","html-keyboard-response","297","430543","0.0-472.0","34syh0hh","1920","1080","","","","","","","","","","","639","bgi","Diagnostic trial","","j","7","2","false","false","RIGHT","j","1","","LEFT","false","","",""
"","html-keyboard-response","298","431298","0.0-475.0","34syh0hh","1920","1080","","","","","","","","","","","null","+","Fixation - short","","null","","","","","","","","","","","","",""
"","html-keyboard-response","299","432066","0.0-476.0","34syh0hh","1920","1080","","","","","","","","","","","767","pmf","Diagnostic trial","","j","7","3","false","false","RIGHT","j","1","","RIGHT","true","","",""
"","html-keyboard-response","300","432829","0.0-479.0","34syh0hh","1920","1080","","","","","","","","","","","null","+","Fixation - short","","null","","","","","","","","","","","","",""
"","html-keyboard-response","301","433686","0.0-480.0","34syh0hh","1920","1080","","","","","","","","","","","856","bgi","Diagnostic trial","","j","7","4","false","false","RIGHT","j","1","","LEFT","false","","",""
"","html-keyboard-response","302","434452","0.0-483.0","34syh0hh","1920","1080","","","","","","","","","","","null","+","Fixation - short","","null","","","","","","","","","","","","",""
"","html-keyboard-response","303","435147","0.0-484.0","34syh0hh","1920","1080","","","","","","","","","","","694","pmf","Diagnostic trial","","j","7","5","false","false","RIGHT","j","1","","RIGHT","true","","",""
"","html-keyboard-response","304","435907","0.0-487.0","34syh0hh","1920","1080","","","","","","","","","","","null","+","Fixation - short","","null","","","","","","","","","","","","",""
"","html-keyboard-response","305","436413","0.0-488.0","34syh0hh","1920","1080","","","","","","","","","","","504","pmf","Diagnostic trial","","j","7","6","false","false","RIGHT","j","1","","RIGHT","true","","",""
"","html-keyboard-response","306","437170","0.0-491.0","34syh0hh","1920","1080","","","","","","","","","","","null","+","Fixation - short","","null","","","","","","","","","","","","",""
"","html-keyboard-response","307","437736","0.0-492.0","34syh0hh","1920","1080","","","","","","","","","","","564","bgi","Diagnostic trial","","f","7","7","false","true","LEFT","f","1","","LEFT","true","","",""
"","html-keyboard-response","308","438494","0.0-495.0","34syh0hh","1920","1080","","","","","","","","","","","null","+","Fixation - short","","null","","","","","","","","","","","","",""
"","html-keyboard-response","309","439137","0.0-496.0","34syh0hh","1920","1080","","","","","","","","","","","642","bgi","Diagnostic trial","","j","7","8","false","false","RIGHT","j","1","","LEFT","false","","",""
"","html-keyboard-response","310","439895","0.0-499.0","34syh0hh","1920","1080","","","","","","","","","","","null","+","Fixation - short","","null","","","","","","","","","","","","",""
"","html-keyboard-response","311","440600","0.0-500.0","34syh0hh","1920","1080","","","","","","","","","","","704","bgi","Inducer trial","","j","7","","true","","","f","0","LEFT","","","","",""
"","call-function","312","440601","0.0-502.0-0.0","34syh0hh","","","","","","","","","","","","","","","","","","","","","","","","","","","","","",""
"","html-keyboard-response","313","440907","0.0-502.0-1.0","34syh0hh","1920","1080","","","","","","","","","","","null","Wrong","Feedback","","null","","","","","","","","","","","","",""
"","call-function","314","440908","0.0-502.0-2.0","34syh0hh","","","","","","","","","","","","","","","","","","","","","","","","","","","","","",""
"","html-keyboard-response","315","442415","0.0-503.0","34syh0hh","1920","1080","","","","","","","","","","","null","+","Fixation - long","","null","","","","","","","","","","","","",""
"","html-keyboard-response","316","446128","0.0-504.0","34syh0hh","1920","1080","","","","","","","","","","","3711","If byy press LEFT | If cer press RIGHT","Inducer instructions",""," ","8","","","","","","","","","","","",""
"","html-keyboard-response","317","446881","0.0-505.0","34syh0hh","1920","1080","","","","","","","","","","","null","+","Fixation - short","","null","","","","","","","","","","","","",""
"","html-keyboard-response","318","447909","0.0-506.0","34syh0hh","1920","1080","","","","","","","","","","","1026","cer","Diagnostic trial","","f","8","0","false","true","LEFT","f","1","","RIGHT","false","","",""
"","html-keyboard-response","319","448674","0.0-509.0","34syh0hh","1920","1080","","","","","","","","","","","null","+","Fixation - short","","null","","","","","","","","","","","","",""
"","html-keyboard-response","320","449234","0.0-510.0","34syh0hh","1920","1080","","","","","","","","","","","558","cer","Diagnostic trial","","j","8","1","false","false","RIGHT","j","1","","RIGHT","true","","",""
"","html-keyboard-response","321","449997","0.0-513.0","34syh0hh","1920","1080","","","","","","","","","","","null","+","Fixation - short","","null","","","","","","","","","","","","",""
"","html-keyboard-response","322","451016","0.0-514.0","34syh0hh","1920","1080","","","","","","","","","","","1017","byy","Diagnostic trial","","f","8","2","false","false","RIGHT","j","0","","LEFT","false","","",""
"","call-function","323","451016","0.0-516.0-0.0","34syh0hh","","","","","","","","","","","","","","","","","","","","","","","","","","","","","",""
"","html-keyboard-response","324","451330","0.0-516.0-1.0","34syh0hh","1920","1080","","","","","","","","","","","null","Wrong","Feedback","","null","","","","","","","","","","","","",""
"","call-function","325","451330","0.0-516.0-2.0","34syh0hh","","","","","","","","","","","","","","","","","","","","","","","","","","","","","",""
"","html-keyboard-response","326","452094","0.0-517.0","34syh0hh","1920","1080","","","","","","","","","","","null","+","Fixation - short","","null","","","","","","","","","","","","",""
"","html-keyboard-response","327","453128","0.0-518.0","34syh0hh","1920","1080","","","","","","","","","","","1032","cer","Diagnostic trial","","f","8","3","false","true","LEFT","f","1","","RIGHT","false","","",""
"","html-keyboard-response","328","453891","0.0-521.0","34syh0hh","1920","1080","","","","","","","","","","","null","+","Fixation - short","","null","","","","","","","","","","","","",""
"","html-keyboard-response","329","455416","0.0-522.0","34syh0hh","1920","1080","","","","","","","","","","","1524","cer","Diagnostic trial","","j","8","4","false","false","RIGHT","j","1","","RIGHT","true","","",""
"","html-keyboard-response","330","456170","0.0-525.0","34syh0hh","1920","1080","","","","","","","","","","","null","+","Fixation - short","","null","","","","","","","","","","","","",""
"","html-keyboard-response","331","457546","0.0-526.0","34syh0hh","1920","1080","","","","","","","","","","","1374","byy","Diagnostic trial","","j","8","5","false","false","RIGHT","j","1","","LEFT","false","","",""
"","html-keyboard-response","332","458310","0.0-529.0","34syh0hh","1920","1080","","","","","","","","","","","null","+","Fixation - short","","null","","","","","","","","","","","","",""
"","html-keyboard-response","333","459059","0.0-530.0","34syh0hh","1920","1080","","","","","","","","","","","748","byy","Diagnostic trial","","f","8","6","false","true","LEFT","f","1","","LEFT","true","","",""
"","html-keyboard-response","334","459812","0.0-533.0","34syh0hh","1920","1080","","","","","","","","","","","null","+","Fixation - short","","null","","","","","","","","","","","","",""
"","html-keyboard-response","335","460325","0.0-534.0","34syh0hh","1920","1080","","","","","","","","","","","512","byy","Diagnostic trial","","f","8","7","false","true","LEFT","f","1","","LEFT","true","","",""
"","html-keyboard-response","336","461091","0.0-537.0","34syh0hh","1920","1080","","","","","","","","","","","null","+","Fixation - short","","null","","","","","","","","","","","","",""
"","html-keyboard-response","337","461531","0.0-538.0","34syh0hh","1920","1080","","","","","","","","","","","439","byy","Diagnostic trial","","f","8","8","false","true","LEFT","f","1","","LEFT","true","","",""
"","html-keyboard-response","338","462295","0.0-541.0","34syh0hh","1920","1080","","","","","","","","","","","null","+","Fixation - short","","null","","","","","","","","","","","","",""
"","html-keyboard-response","339","462874","0.0-542.0","34syh0hh","1920","1080","","","","","","","","","","","577","cer","Inducer trial","","f","8","","true","","","j","0","RIGHT","","","","",""
"","call-function","340","462875","0.0-544.0-0.0","34syh0hh","","","","","","","","","","","","","","","","","","","","","","","","","","","","","",""
"","html-keyboard-response","341","463183","0.0-544.0-1.0","34syh0hh","1920","1080","","","","","","","","","","","null","Wrong","Feedback","","null","","","","","","","","","","","","",""
"","call-function","342","463184","0.0-544.0-2.0","34syh0hh","","","","","","","","","","","","","","","","","","","","","","","","","","","","","",""
"","html-keyboard-response","343","464696","0.0-545.0","34syh0hh","1920","1080","","","","","","","","","","","null","+","Fixation - long","","null","","","","","","","","","","","","",""
"","html-keyboard-response","344","467620","0.0-546.0","34syh0hh","1920","1080","","","","","","","","","","","2923","If cpt press LEFT | If jlm press RIGHT","Inducer instructions",""," ","9","","","","","","","","","","","",""
"","html-keyboard-response","345","468382","0.0-547.0","34syh0hh","1920","1080","","","","","","","","","","","null","+","Fixation - short","","null","","","","","","","","","","","","",""
"","html-keyboard-response","346","469260","0.0-548.0","34syh0hh","1920","1080","","","","","","","","","","","877","jlm","Diagnostic trial","","f","9","0","false","true","LEFT","f","1","","RIGHT","false","","",""
"","html-keyboard-response","347","470015","0.0-551.0","34syh0hh","1920","1080","","","","","","","","","","","null","+","Fixation - short","","null","","","","","","","","","","","","",""
"","html-keyboard-response","348","470580","0.0-552.0","34syh0hh","1920","1080","","","","","","","","","","","564","jlm","Diagnostic trial","","f","9","1","false","true","LEFT","f","1","","RIGHT","false","","",""
"","html-keyboard-response","349","471336","0.0-555.0","34syh0hh","1920","1080","","","","","","","","","","","null","+","Fixation - short","","null","","","","","","","","","","","","",""
"","html-keyboard-response","350","471888","0.0-556.0","34syh0hh","1920","1080","","","","","","","","","","","552","cpt","Diagnostic trial","","f","9","2","false","true","LEFT","f","1","","LEFT","true","","",""
"","html-keyboard-response","351","472650","0.0-559.0","34syh0hh","1920","1080","","","","","","","","","","","null","+","Fixation - short","","null","","","","","","","","","","","","",""
"","html-keyboard-response","352","473153","0.0-560.0","34syh0hh","1920","1080","","","","","","","","","","","503","cpt","Diagnostic trial","","j","9","3","false","false","RIGHT","j","1","","LEFT","false","","",""
"","html-keyboard-response","353","473907","0.0-563.0","34syh0hh","1920","1080","","","","","","","","","","","null","+","Fixation - short","","null","","","","","","","","","","","","",""
"","html-keyboard-response","354","474776","0.0-564.0","34syh0hh","1920","1080","","","","","","","","","","","868","cpt","Diagnostic trial","","j","9","4","false","false","RIGHT","j","1","","LEFT","false","","",""
"","html-keyboard-response","355","475535","0.0-567.0","34syh0hh","1920","1080","","","","","","","","","","","null","+","Fixation - short","","null","","","","","","","","","","","","",""
"","html-keyboard-response","356","476074","0.0-568.0","34syh0hh","1920","1080","","","","","","","","","","","538","cpt","Diagnostic trial","","j","9","5","false","false","RIGHT","j","1","","LEFT","false","","",""
"","html-keyboard-response","357","476828","0.0-571.0","34syh0hh","1920","1080","","","","","","","","","","","null","+","Fixation - short","","null","","","","","","","","","","","","",""
"","html-keyboard-response","358","477339","0.0-572.0","34syh0hh","1920","1080","","","","","","","","","","","510","cpt","Diagnostic trial","","j","9","6","false","false","RIGHT","j","1","","LEFT","false","","",""
"","html-keyboard-response","359","478094","0.0-575.0","34syh0hh","1920","1080","","","","","","","","","","","null","+","Fixation - short","","null","","","","","","","","","","","","",""
"","html-keyboard-response","360","478562","0.0-576.0","34syh0hh","1920","1080","","","","","","","","","","","468","cpt","Diagnostic trial","","j","9","7","false","false","RIGHT","j","1","","LEFT","false","","",""
"","html-keyboard-response","361","479322","0.0-579.0","34syh0hh","1920","1080","","","","","","","","","","","null","+","Fixation - short","","null","","","","","","","","","","","","",""
"","html-keyboard-response","362","480045","0.0-580.0","34syh0hh","1920","1080","","","","","","","","","","","722","cpt","Diagnostic trial","","f","9","8","false","true","LEFT","f","1","","LEFT","true","","",""
"","html-keyboard-response","363","480806","0.0-583.0","34syh0hh","1920","1080","","","","","","","","","","","null","+","Fixation - short","","null","","","","","","","","","","","","",""
"","html-keyboard-response","364","481529","0.0-584.0","34syh0hh","1920","1080","","","","","","","","","","","721","jlm","Diagnostic trial","","f","9","9","false","true","LEFT","f","1","","RIGHT","false","","",""
"","html-keyboard-response","365","482289","0.0-587.0","34syh0hh","1920","1080","","","","","","","","","","","null","+","Fixation - short","","null","","","","","","","","","","","","",""
"","html-keyboard-response","366","482950","0.0-588.0","34syh0hh","1920","1080","","","","","","","","","","","659","cpt","Diagnostic trial","","j","9","10","false","false","RIGHT","j","1","","LEFT","false","","",""
"","html-keyboard-response","367","483707","0.0-591.0","34syh0hh","1920","1080","","","","","","","","","","","null","+","Fixation - short","","null","","","","","","","","","","","","",""
"","html-keyboard-response","368","484910","0.0-592.0","34syh0hh","1920","1080","","","","","","","","","","","1202","jlm","Diagnostic trial","","j","9","11","false","false","RIGHT","j","1","","RIGHT","true","","",""
"","html-keyboard-response","369","485674","0.0-595.0","34syh0hh","1920","1080","","","","","","","","","","","null","+","Fixation - short","","null","","","","","","","","","","","","",""
"","html-keyboard-response","370","486242","0.0-596.0","34syh0hh","1920","1080","","","","","","","","","","","566","cpt","Inducer trial","","f","9","","true","","","f","1","LEFT","","","","",""
"","html-keyboard-response","371","487751","0.0-599.0","34syh0hh","1920","1080","","","","","","","","","","","null","+","Fixation - long","","null","","","","","","","","","","","","",""
"","html-keyboard-response","372","491206","0.0-600.0","34syh0hh","1920","1080","","","","","","","","","","","3453","If imm press LEFT | If yoy press RIGHT","Inducer instructions",""," ","10","","","","","","","","","","","",""
"","html-keyboard-response","373","491969","0.0-601.0","34syh0hh","1920","1080","","","","","","","","","","","null","+","Fixation - short","","null","","","","","","","","","","","","",""
"","html-keyboard-response","374","492708","0.0-602.0","34syh0hh","1920","1080","","","","","","","","","","","738","imm","Diagnostic trial","","f","10","0","false","false","RIGHT","j","0","","LEFT","false","","",""
"","call-function","375","492708","0.0-604.0-0.0","34syh0hh","","","","","","","","","","","","","","","","","","","","","","","","","","","","","",""
"","html-keyboard-response","376","493015","0.0-604.0-1.0","34syh0hh","1920","1080","","","","","","","","","","","null","Wrong","Feedback","","null","","","","","","","","","","","","",""
"","call-function","377","493015","0.0-604.0-2.0","34syh0hh","","","","","","","","","","","","","","","","","","","","","","","","","","","","","",""
"","html-keyboard-response","378","493781","0.0-605.0","34syh0hh","1920","1080","","","","","","","","","","","null","+","Fixation - short","","null","","","","","","","","","","","","",""
"","html-keyboard-response","379","494400","0.0-606.0","34syh0hh","1920","1080","","","","","","","","","","","618","imm","Diagnostic trial","","j","10","1","false","false","RIGHT","j","1","","LEFT","false","","",""
"","html-keyboard-response","380","495154","0.0-609.0","34syh0hh","1920","1080","","","","","","","","","","","null","+","Fixation - short","","null","","","","","","","","","","","","",""
"","html-keyboard-response","381","495581","0.0-610.0","34syh0hh","1920","1080","","","","","","","","","","","427","imm","Diagnostic trial","","j","10","2","false","false","RIGHT","j","1","","LEFT","false","","",""
"","html-keyboard-response","382","496336","0.0-613.0","34syh0hh","1920","1080","","","","","","","","","","","null","+","Fixation - short","","null","","","","","","","","","","","","",""
"","html-keyboard-response","383","496794","0.0-614.0","34syh0hh","1920","1080","","","","","","","","","","","457","imm","Diagnostic trial","","j","10","3","false","false","RIGHT","j","1","","LEFT","false","","",""
"","html-keyboard-response","384","497552","0.0-617.0","34syh0hh","1920","1080","","","","","","","","","","","null","+","Fixation - short","","null","","","","","","","","","","","","",""
"","html-keyboard-response","385","498667","0.0-618.0","34syh0hh","1920","1080","","","","","","","","","","","1114","yoy","Diagnostic trial","","j","10","4","false","false","RIGHT","j","1","","RIGHT","true","","",""
"","html-keyboard-response","386","499422","0.0-621.0","34syh0hh","1920","1080","","","","","","","","","","","null","+","Fixation - short","","null","","","","","","","","","","","","",""
"","html-keyboard-response","387","499847","0.0-622.0","34syh0hh","1920","1080","","","","","","","","","","","423","yoy","Diagnostic trial","","j","10","5","false","false","RIGHT","j","1","","RIGHT","true","","",""
"","html-keyboard-response","388","500610","0.0-625.0","34syh0hh","1920","1080","","","","","","","","","","","null","+","Fixation - short","","null","","","","","","","","","","","","",""
"","html-keyboard-response","389","501553","0.0-626.0","34syh0hh","1920","1080","","","","","","","","","","","942","yoy","Inducer trial","","j","10","","true","","","j","1","RIGHT","","","","",""
"","html-keyboard-response","390","503056","0.0-629.0","34syh0hh","1920","1080","","","","","","","","","","","null","+","Fixation - long","","null","","","","","","","","","","","","",""
"","html-keyboard-response","391","506497","0.0-630.0","34syh0hh","1920","1080","","","","","","","","","","","3440","If adj press LEFT | If jup press RIGHT","Inducer instructions",""," ","11","","","","","","","","","","","",""
"","html-keyboard-response","392","507250","0.0-631.0","34syh0hh","1920","1080","","","","","","","","","","","null","+","Fixation - short","","null","","","","","","","","","","","","",""
"","html-keyboard-response","393","507984","0.0-632.0","34syh0hh","1920","1080","","","","","","","","","","","733","jup","Diagnostic trial","","j","11","0","false","false","RIGHT","j","1","","RIGHT","true","","",""
"","html-keyboard-response","394","508747","0.0-635.0","34syh0hh","1920","1080","","","","","","","","","","","null","+","Fixation - short","","null","","","","","","","","","","","","",""
"","html-keyboard-response","395","509432","0.0-636.0","34syh0hh","1920","1080","","","","","","","","","","","683","jup","Diagnostic trial","","f","11","1","false","true","LEFT","f","1","","RIGHT","false","","",""
"","html-keyboard-response","396","510197","0.0-639.0","34syh0hh","1920","1080","","","","","","","","","","","null","+","Fixation - short","","null","","","","","","","","","","","","",""
"","html-keyboard-response","397","510850","0.0-640.0","34syh0hh","1920","1080","","","","","","","","","","","652","adj","Diagnostic trial","","f","11","2","false","true","LEFT","f","1","","LEFT","true","","",""
"","html-keyboard-response","398","511614","0.0-643.0","34syh0hh","1920","1080","","","","","","","","","","","null","+","Fixation - short","","null","","","","","","","","","","","","",""
"","html-keyboard-response","399","512114","0.0-644.0","34syh0hh","1920","1080","","","","","","","","","","","499","jup","Diagnostic trial","","f","11","3","false","true","LEFT","f","1","","RIGHT","false","","",""
"","html-keyboard-response","400","512877","0.0-647.0","34syh0hh","1920","1080","","","","","","","","","","","null","+","Fixation - short","","null","","","","","","","","","","","","",""
"","html-keyboard-response","401","513356","0.0-648.0","34syh0hh","1920","1080","","","","","","","","","","","478","jup","Diagnostic trial","","f","11","4","false","true","LEFT","f","1","","RIGHT","false","","",""
"","html-keyboard-response","402","514112","0.0-651.0","34syh0hh","1920","1080","","","","","","","","","","","null","+","Fixation - short","","null","","","","","","","","","","","","",""
"","html-keyboard-response","403","514716","0.0-652.0","34syh0hh","1920","1080","","","","","","","","","","","602","jup","Diagnostic trial","","j","11","5","false","false","RIGHT","j","1","","RIGHT","true","","",""
"","html-keyboard-response","404","515469","0.0-655.0","34syh0hh","1920","1080","","","","","","","","","","","null","+","Fixation - short","","null","","","","","","","","","","","","",""
"","html-keyboard-response","405","516094","0.0-656.0","34syh0hh","1920","1080","","","","","","","","","","","624","adj","Diagnostic trial","","f","11","6","false","true","LEFT","f","1","","LEFT","true","","",""
"","html-keyboard-response","406","516858","0.0-659.0","34syh0hh","1920","1080","","","","","","","","","","","null","+","Fixation - short","","null","","","","","","","","","","","","",""
"","html-keyboard-response","407","517364","0.0-660.0","34syh0hh","1920","1080","","","","","","","","","","","505","adj","Inducer trial","","f","11","","true","","","f","1","LEFT","","","","",""
"","html-keyboard-response","408","518874","0.0-663.0","34syh0hh","1920","1080","","","","","","","","","","","null","+","Fixation - long","","null","","","","","","","","","","","","",""
"","html-keyboard-response","409","523177","0.0-664.0","34syh0hh","1920","1080","","","","","","","","","","","4302","If bsh press LEFT | If asn press RIGHT","Inducer instructions",""," ","12","","","","","","","","","","","",""
"","html-keyboard-response","410","523938","0.0-665.0","34syh0hh","1920","1080","","","","","","","","","","","null","+","Fixation - short","","null","","","","","","","","","","","","",""
"","html-keyboard-response","411","524695","0.0-666.0","34syh0hh","1920","1080","","","","","","","","","","","756","bsh","Diagnostic trial","","f","12","0","false","true","LEFT","f","1","","LEFT","true","","",""
"","html-keyboard-response","412","525454","0.0-669.0","34syh0hh","1920","1080","","","","","","","","","","","null","+","Fixation - short","","null","","","","","","","","","","","","",""
"","html-keyboard-response","413","526200","0.0-670.0","34syh0hh","1920","1080","","","","","","","","","","","745","asn","Diagnostic trial","","j","12","1","false","false","RIGHT","j","1","","RIGHT","true","","",""
"","html-keyboard-response","414","526953","0.0-673.0","34syh0hh","1920","1080","","","","","","","","","","","null","+","Fixation - short","","null","","","","","","","","","","","","",""
"","html-keyboard-response","415","527542","0.0-674.0","34syh0hh","1920","1080","","","","","","","","","","","587","asn","Diagnostic trial","","j","12","2","false","false","RIGHT","j","1","","RIGHT","true","","",""
"","html-keyboard-response","416","528296","0.0-677.0","34syh0hh","1920","1080","","","","","","","","","","","null","+","Fixation - short","","null","","","","","","","","","","","","",""
"","html-keyboard-response","417","528900","0.0-678.0","34syh0hh","1920","1080","","","","","","","","","","","603","asn","Diagnostic trial","","j","12","3","false","false","RIGHT","j","1","","RIGHT","true","","",""
"","html-keyboard-response","418","529668","0.0-681.0","34syh0hh","1920","1080","","","","","","","","","","","null","+","Fixation - short","","null","","","","","","","","","","","","",""
"","html-keyboard-response","419","530297","0.0-682.0","34syh0hh","1920","1080","","","","","","","","","","","628","asn","Diagnostic trial","","j","12","4","false","false","RIGHT","j","1","","RIGHT","true","","",""
"","html-keyboard-response","420","531059","0.0-685.0","34syh0hh","1920","1080","","","","","","","","","","","null","+","Fixation - short","","null","","","","","","","","","","","","",""
"","html-keyboard-response","421","531865","0.0-686.0","34syh0hh","1920","1080","","","","","","","","","","","804","bsh","Diagnostic trial","","f","12","5","false","false","RIGHT","j","0","","LEFT","false","","",""
"","call-function","422","531866","0.0-688.0-0.0","34syh0hh","","","","","","","","","","","","","","","","","","","","","","","","","","","","","",""
"","html-keyboard-response","423","532181","0.0-688.0-1.0","34syh0hh","1920","1080","","","","","","","","","","","null","Wrong","Feedback","","null","","","","","","","","","","","","",""
"","call-function","424","532182","0.0-688.0-2.0","34syh0hh","","","","","","","","","","","","","","","","","","","","","","","","","","","","","",""
"","html-keyboard-response","425","532933","0.0-689.0","34syh0hh","1920","1080","","","","","","","","","","","null","+","Fixation - short","","null","","","","","","","","","","","","",""
"","html-keyboard-response","426","533868","0.0-690.0","34syh0hh","1920","1080","","","","","","","","","","","933","asn","Diagnostic trial","","f","12","6","false","true","LEFT","f","1","","RIGHT","false","","",""
"","html-keyboard-response","427","534623","0.0-693.0","34syh0hh","1920","1080","","","","","","","","","","","null","+","Fixation - short","","null","","","","","","","","","","","","",""
"","html-keyboard-response","428","535443","0.0-694.0","34syh0hh","1920","1080","","","","","","","","","","","819","bsh","Diagnostic trial","","f","12","7","false","true","LEFT","f","1","","LEFT","true","","",""
"","html-keyboard-response","429","536210","0.0-697.0","34syh0hh","1920","1080","","","","","","","","","","","null","+","Fixation - short","","null","","","","","","","","","","","","",""
"","html-keyboard-response","430","536792","0.0-698.0","34syh0hh","1920","1080","","","","","","","","","","","581","bsh","Inducer trial","","f","12","","true","","","f","1","LEFT","","","","",""
"","html-keyboard-response","431","538305","0.0-701.0","34syh0hh","1920","1080","","","","","","","","","","","null","+","Fixation - long","","null","","","","","","","","","","","","",""
"","html-keyboard-response","432","542165","0.0-702.0","34syh0hh","1920","1080","","","","","","","","","","","3858","If ebe press LEFT | If ufc press RIGHT","Inducer instructions",""," ","13","","","","","","","","","","","",""
"","html-keyboard-response","433","542925","0.0-703.0","34syh0hh","1920","1080","","","","","","","","","","","null","+","Fixation - short","","null","","","","","","","","","","","","",""
"","html-keyboard-response","434","543616","0.0-704.0","34syh0hh","1920","1080","","","","","","","","","","","690","ufc","Diagnostic trial","","f","13","0","false","true","LEFT","f","1","","RIGHT","false","","",""
"","html-keyboard-response","435","544376","0.0-707.0","34syh0hh","1920","1080","","","","","","","","","","","null","+","Fixation - short","","null","","","","","","","","","","","","",""
"","html-keyboard-response","436","545300","0.0-708.0","34syh0hh","1920","1080","","","","","","","","","","","923","ebe","Diagnostic trial","","j","13","1","false","false","RIGHT","j","1","","LEFT","false","","",""
"","html-keyboard-response","437","546058","0.0-711.0","34syh0hh","1920","1080","","","","","","","","","","","null","+","Fixation - short","","null","","","","","","","","","","","","",""
"","html-keyboard-response","438","546812","0.0-712.0","34syh0hh","1920","1080","","","","","","","","","","","753","ufc","Diagnostic trial","","f","13","2","false","true","LEFT","f","1","","RIGHT","false","","",""
"","html-keyboard-response","439","547578","0.0-715.0","34syh0hh","1920","1080","","","","","","","","","","","null","+","Fixation - short","","null","","","","","","","","","","","","",""
"","html-keyboard-response","440","548390","0.0-716.0","34syh0hh","1920","1080","","","","","","","","","","","811","ebe","Diagnostic trial","","j","13","3","false","false","RIGHT","j","1","","LEFT","false","","",""
"","html-keyboard-response","441","549141","0.0-719.0","34syh0hh","1920","1080","","","","","","","","","","","null","+","Fixation - short","","null","","","","","","","","","","","","",""
"","html-keyboard-response","442","549718","0.0-720.0","34syh0hh","1920","1080","","","","","","","","","","","576","ufc","Diagnostic trial","","f","13","4","false","true","LEFT","f","1","","RIGHT","false","","",""
"","html-keyboard-response","443","550469","0.0-723.0","34syh0hh","1920","1080","","","","","","","","","","","null","+","Fixation - short","","null","","","","","","","","","","","","",""
"","html-keyboard-response","444","551090","0.0-724.0","34syh0hh","1920","1080","","","","","","","","","","","619","ufc","Diagnostic trial","","f","13","5","false","true","LEFT","f","1","","RIGHT","false","","",""
"","html-keyboard-response","445","551854","0.0-727.0","34syh0hh","1920","1080","","","","","","","","","","","null","+","Fixation - short","","null","","","","","","","","","","","","",""
"","html-keyboard-response","446","552473","0.0-728.0","34syh0hh","1920","1080","","","","","","","","","","","617","ebe","Diagnostic trial","","j","13","6","false","false","RIGHT","j","1","","LEFT","false","","",""
"","html-keyboard-response","447","553225","0.0-731.0","34syh0hh","1920","1080","","","","","","","","","","","null","+","Fixation - short","","null","","","","","","","","","","","","",""
"","html-keyboard-response","448","554036","0.0-732.0","34syh0hh","1920","1080","","","","","","","","","","","810","ebe","Diagnostic trial","","j","13","7","false","false","RIGHT","j","1","","LEFT","false","","",""
"","html-keyboard-response","449","554797","0.0-735.0","34syh0hh","1920","1080","","","","","","","","","","","null","+","Fixation - short","","null","","","","","","","","","","","","",""
"","html-keyboard-response","450","555528","0.0-736.0","34syh0hh","1920","1080","","","","","","","","","","","730","ufc","Diagnostic trial","","f","13","8","false","true","LEFT","f","1","","RIGHT","false","","",""
"","html-keyboard-response","451","556283","0.0-739.0","34syh0hh","1920","1080","","","","","","","","","","","null","+","Fixation - short","","null","","","","","","","","","","","","",""
"","html-keyboard-response","452","556914","0.0-740.0","34syh0hh","1920","1080","","","","","","","","","","","630","ebe","Diagnostic trial","","j","13","9","false","false","RIGHT","j","1","","LEFT","false","","",""
"","html-keyboard-response","453","557674","0.0-743.0","34syh0hh","1920","1080","","","","","","","","","","","null","+","Fixation - short","","null","","","","","","","","","","","","",""
"","html-keyboard-response","454","558273","0.0-744.0","34syh0hh","1920","1080","","","","","","","","","","","598","ebe","Diagnostic trial","","f","13","10","false","true","LEFT","f","1","","LEFT","true","","",""
"","html-keyboard-response","455","559030","0.0-747.0","34syh0hh","1920","1080","","","","","","","","","","","null","+","Fixation - short","","null","","","","","","","","","","","","",""
"","html-keyboard-response","456","559534","0.0-748.0","34syh0hh","1920","1080","","","","","","","","","","","502","ufc","Diagnostic trial","","j","13","11","false","false","RIGHT","j","1","","RIGHT","true","","",""
"","html-keyboard-response","457","560292","0.0-751.0","34syh0hh","1920","1080","","","","","","","","","","","null","+","Fixation - short","","null","","","","","","","","","","","","",""
"","html-keyboard-response","458","560854","0.0-752.0","34syh0hh","1920","1080","","","","","","","","","","","561","ebe","Diagnostic trial","","j","13","12","false","false","RIGHT","j","1","","LEFT","false","","",""
"","html-keyboard-response","459","561619","0.0-755.0","34syh0hh","1920","1080","","","","","","","","","","","null","+","Fixation - short","","null","","","","","","","","","","","","",""
"","html-keyboard-response","460","562869","0.0-756.0","34syh0hh","1920","1080","","","","","","","","","","","1248","ufc","Inducer trial","","f","13","","true","","","j","0","RIGHT","","","","",""
"","call-function","461","562870","0.0-758.0-0.0","34syh0hh","","","","","","","","","","","","","","","","","","","","","","","","","","","","","",""
"","html-keyboard-response","462","563185","0.0-758.0-1.0","34syh0hh","1920","1080","","","","","","","","","","","null","Wrong","Feedback","","null","","","","","","","","","","","","",""
"","call-function","463","563186","0.0-758.0-2.0","34syh0hh","","","","","","","","","","","","","","","","","","","","","","","","","","","","","",""
"","html-keyboard-response","464","564688","0.0-759.0","34syh0hh","1920","1080","","","","","","","","","","","null","+","Fixation - long","","null","","","","","","","","","","","","",""
"","html-keyboard-response","465","567378","0.0-760.0","34syh0hh","1920","1080","","","","","","","","","","","2688","If dlg press LEFT | If kmh press RIGHT","Inducer instructions",""," ","14","","","","","","","","","","","",""
"","html-keyboard-response","466","568130","0.0-761.0","34syh0hh","1920","1080","","","","","","","","","","","null","+","Fixation - short","","null","","","","","","","","","","","","",""
"","html-keyboard-response","467","568935","0.0-762.0","34syh0hh","1920","1080","","","","","","","","","","","804","kmh","Diagnostic trial","","f","14","0","false","true","LEFT","f","1","","RIGHT","false","","",""
"","html-keyboard-response","468","569689","0.0-765.0","34syh0hh","1920","1080","","","","","","","","","","","null","+","Fixation - short","","null","","","","","","","","","","","","",""
"","html-keyboard-response","469","570427","0.0-766.0","34syh0hh","1920","1080","","","","","","","","","","","737","kmh","Diagnostic trial","","j","14","1","false","false","RIGHT","j","1","","RIGHT","true","","",""
"","html-keyboard-response","470","571183","0.0-769.0","34syh0hh","1920","1080","","","","","","","","","","","null","+","Fixation - short","","null","","","","","","","","","","","","",""
"","html-keyboard-response","471","571868","0.0-770.0","34syh0hh","1920","1080","","","","","","","","","","","684","kmh","Diagnostic trial","","f","14","2","false","true","LEFT","f","1","","RIGHT","false","","",""
"","html-keyboard-response","472","572626","0.0-773.0","34syh0hh","1920","1080","","","","","","","","","","","null","+","Fixation - short","","null","","","","","","","","","","","","",""
"","html-keyboard-response","473","573761","0.0-774.0","34syh0hh","1920","1080","","","","","","","","","","","1135","dlg","Diagnostic trial","","j","14","3","false","false","RIGHT","j","1","","LEFT","false","","",""
"","html-keyboard-response","474","574518","0.0-777.0","34syh0hh","1920","1080","","","","","","","","","","","null","+","Fixation - short","","null","","","","","","","","","","","","",""
"","html-keyboard-response","475","575688","0.0-778.0","34syh0hh","1920","1080","","","","","","","","","","","1169","kmh","Diagnostic trial","","j","14","4","false","false","RIGHT","j","1","","RIGHT","true","","",""
"","html-keyboard-response","476","576440","0.0-781.0","34syh0hh","1920","1080","","","","","","","","","","","null","+","Fixation - short","","null","","","","","","","","","","","","",""
"","html-keyboard-response","477","577189","0.0-782.0","34syh0hh","1920","1080","","","","","","","","","","","748","dlg","Inducer trial","","f","14","","true","","","f","1","LEFT","","","","",""
"","html-keyboard-response","478","578697","0.0-785.0","34syh0hh","1920","1080","","","","","","","","","","","null","+","Fixation - long","","null","","","","","","","","","","","","",""
"","html-keyboard-response","479","583984","0.0-786.0","34syh0hh","1920","1080","","","","","","","","","","","5284","If gfm press LEFT | If snx press RIGHT","Inducer instructions",""," ","15","","","","","","","","","","","",""
"","html-keyboard-response","480","584743","0.0-787.0","34syh0hh","1920","1080","","","","","","","","","","","null","+","Fixation - short","","null","","","","","","","","","","","","",""
"","html-keyboard-response","481","585482","0.0-788.0","34syh0hh","1920","1080","","","","","","","","","","","738","snx","Diagnostic trial","","f","15","0","false","true","LEFT","f","1","","RIGHT","false","","",""
"","html-keyboard-response","482","586235","0.0-791.0","34syh0hh","1920","1080","","","","","","","","","","","null","+","Fixation - short","","null","","","","","","","","","","","","",""
"","html-keyboard-response","483","586840","0.0-792.0","34syh0hh","1920","1080","","","","","","","","","","","605","gfm","Diagnostic trial","","f","15","1","false","true","LEFT","f","1","","LEFT","true","","",""
"","html-keyboard-response","484","587605","0.0-795.0","34syh0hh","1920","1080","","","","","","","","","","","null","+","Fixation - short","","null","","","","","","","","","","","","",""
"","html-keyboard-response","485","588281","0.0-796.0","34syh0hh","1920","1080","","","","","","","","","","","675","gfm","Diagnostic trial","","j","15","2","false","false","RIGHT","j","1","","LEFT","false","","",""
"","html-keyboard-response","486","589038","0.0-799.0","34syh0hh","1920","1080","","","","","","","","","","","null","+","Fixation - short","","null","","","","","","","","","","","","",""
"","html-keyboard-response","487","589990","0.0-800.0","34syh0hh","1920","1080","","","","","","","","","","","951","snx","Diagnostic trial","","f","15","3","false","true","LEFT","f","1","","RIGHT","false","","",""
"","html-keyboard-response","488","590754","0.0-803.0","34syh0hh","1920","1080","","","","","","","","","","","null","+","Fixation - short","","null","","","","","","","","","","","","",""
"","html-keyboard-response","489","591818","0.0-804.0","34syh0hh","1920","1080","","","","","","","","","","","1064","gfm","Inducer trial","","f","15","","true","","","f","1","LEFT","","","","",""
"","html-keyboard-response","490","593324","0.0-807.0","34syh0hh","1920","1080","","","","","","","","","","","null","+","Fixation - long","","null","","","","","","","","","","","","",""
"","html-keyboard-response","491","595473","0.0-808.0","34syh0hh","1920","1080","","","","","","","","","","","2147","If pph press LEFT | If slu press RIGHT","Inducer instructions",""," ","16","","","","","","","","","","","",""
"","html-keyboard-response","492","596233","0.0-809.0","34syh0hh","1920","1080","","","","","","","","","","","null","+","Fixation - short","","null","","","","","","","","","","","","",""
"","html-keyboard-response","493","597158","0.0-810.0","34syh0hh","1920","1080","","","","","","","","","","","924","slu","Diagnostic trial","","j","16","0","false","false","RIGHT","j","1","","RIGHT","true","","",""
"","html-keyboard-response","494","597918","0.0-813.0","34syh0hh","1920","1080","","","","","","","","","","","null","+","Fixation - short","","null","","","","","","","","","","","","",""
"","html-keyboard-response","495","598631","0.0-814.0","34syh0hh","1920","1080","","","","","","","","","","","712","pph","Diagnostic trial","","j","16","1","false","false","RIGHT","j","1","","LEFT","false","","",""
"","html-keyboard-response","496","599386","0.0-817.0","34syh0hh","1920","1080","","","","","","","","","","","null","+","Fixation - short","","null","","","","","","","","","","","","",""
"","html-keyboard-response","497","600073","0.0-818.0","34syh0hh","1920","1080","","","","","","","","","","","686","slu","Diagnostic trial","","f","16","2","false","true","LEFT","f","1","","RIGHT","false","","",""
"","html-keyboard-response","498","600827","0.0-821.0","34syh0hh","1920","1080","","","","","","","","","","","null","+","Fixation - short","","null","","","","","","","","","","","","",""
"","html-keyboard-response","499","601363","0.0-822.0","34syh0hh","1920","1080","","","","","","","","","","","535","slu","Diagnostic trial","","f","16","3","false","true","LEFT","f","1","","RIGHT","false","","",""
"","html-keyboard-response","500","602117","0.0-825.0","34syh0hh","1920","1080","","","","","","","","","","","null","+","Fixation - short","","null","","","","","","","","","","","","",""
"","html-keyboard-response","501","602725","0.0-826.0","34syh0hh","1920","1080","","","","","","","","","","","606","slu","Diagnostic trial","","j","16","4","false","false","RIGHT","j","1","","RIGHT","true","","",""
"","html-keyboard-response","502","603487","0.0-829.0","34syh0hh","1920","1080","","","","","","","","","","","null","+","Fixation - short","","null","","","","","","","","","","","","",""
