"value","trial_type","trial_index","time_elapsed","internal_node_id","id","width","height","webaudio","browser","browser_version","mobile","os","fullscreen","vsync_rate","webcam","microphone","view_history","rt","stimulus","trial_info","success","response","inducer_run","diagnostic_run","inducer_trial","italic","correct_diag_response_side","correct_response_key","correct_response","correct_indu_response_side","correct_inducer_response_side","congruent","accuracy","open_feedback","interactive"
"","call-function","0","3","0.0-0.0","qc7hu5kt","","","","","","","","","","","","","","","","","","","","","","","","","","","","","",""
"","browser-check","1","1018","0.0-1.0","qc7hu5kt","1280","569","true","chrome","121.0.0","false","Windows 10","true","59.54","true","true","","","","","","","","","","","","","","","","","","",""
"","instructions","2","128178","0.0-2.0","qc7hu5kt","","","","","","","","","","","","[{""page_index"":0,""viewing_time"":32601},{""page_index"":1,""viewing_time"":81417},{""page_index"":2,""viewing_time"":13138}]","127157","The experiment and consent","The experiment and consent","","","","","","","","","","","","","","",""
"","fullscreen","3","153704","0.0-3.0","qc7hu5kt","1280","720","","","","","","","","","","","24512","","Full screen","true","","","","","","","","","","","","","",""
"","instructions","4","254460","0.0-4.0","qc7hu5kt","1280","720","","","","","","","","","","[{""page_index"":0,""viewing_time"":59577},{""page_index"":1,""viewing_time"":41173}]","100750","Instructions","Basic overview explanation","","","","","","","","","","","","","","",""
"","html-keyboard-response","5","275976","0.0-5.0","qc7hu5kt","1280","720","","","","","","","","","","","null","If italic press RIGHT | If upright press LEFT","Diagnostic instructions","","null","","","","","","","","","","","","",""
"","html-keyboard-response","6","276736","0.0-6.0","qc7hu5kt","1280","720","","","","","","","","","","","null","+","Fixation - short","","null","","","","","","","","","","","","",""
"","html-keyboard-response","7","278311","0.0-7.0","qc7hu5kt","1280","720","","","","","","","","","","","1574","mda","Practice diganostic trial","","j","practice","0","false","1","RIGHT","j","1","","","","","",""
"","html-keyboard-response","8","279069","0.0-10.0","qc7hu5kt","1280","720","","","","","","","","","","","null","+","Fixation - short","","null","","","","","","","","","","","","",""
"","html-keyboard-response","9","280087","0.0-11.0","qc7hu5kt","1280","720","","","","","","","","","","","1016","mda","Practice diganostic trial","","f","practice","1","false","0","LEFT","f","1","","","","","",""
"","html-keyboard-response","10","280852","0.0-14.0","qc7hu5kt","1280","720","","","","","","","","","","","null","+","Fixation - short","","null","","","","","","","","","","","","",""
"","html-keyboard-response","11","281928","0.0-15.0","qc7hu5kt","1280","720","","","","","","","","","","","1075","afp","Practice diganostic trial","","f","practice","2","false","0","LEFT","f","1","","","","","",""
"","html-keyboard-response","12","282685","0.0-18.0","qc7hu5kt","1280","720","","","","","","","","","","","null","+","Fixation - short","","null","","","","","","","","","","","","",""
"","html-keyboard-response","13","283750","0.0-19.0","qc7hu5kt","1280","720","","","","","","","","","","","1064","mda","Practice diganostic trial","","j","practice","3","false","1","RIGHT","j","1","","","","","",""
"","html-keyboard-response","14","284515","0.0-22.0","qc7hu5kt","1280","720","","","","","","","","","","","null","+","Fixation - short","","null","","","","","","","","","","","","",""
"","html-keyboard-response","15","285430","0.0-23.0","qc7hu5kt","1280","720","","","","","","","","","","","913","mda","Practice diganostic trial","","f","practice","4","false","0","LEFT","f","1","","","","","",""
"","html-keyboard-response","16","286191","0.0-26.0","qc7hu5kt","1280","720","","","","","","","","","","","null","+","Fixation - short","","null","","","","","","","","","","","","",""
"","html-keyboard-response","17","287247","0.0-27.0","qc7hu5kt","1280","720","","","","","","","","","","","1054","mda","Practice diganostic trial","","j","practice","5","false","1","RIGHT","j","1","","","","","",""
"","html-keyboard-response","18","288008","0.0-30.0","qc7hu5kt","1280","720","","","","","","","","","","","null","+","Fixation - short","","null","","","","","","","","","","","","",""
"","html-keyboard-response","19","288831","0.0-31.0","qc7hu5kt","1280","720","","","","","","","","","","","822","mda","Practice diganostic trial","","j","practice","6","false","1","RIGHT","j","1","","","","","",""
"","html-keyboard-response","20","289596","0.0-34.0","qc7hu5kt","1280","720","","","","","","","","","","","null","+","Fixation - short","","null","","","","","","","","","","","","",""
"","html-keyboard-response","21","290226","0.0-35.0","qc7hu5kt","1280","720","","","","","","","","","","","628","mda","Practice diganostic trial","","f","practice","7","false","0","LEFT","f","1","","","","","",""
"","html-keyboard-response","22","290981","0.0-38.0","qc7hu5kt","1280","720","","","","","","","","","","","null","+","Fixation - short","","null","","","","","","","","","","","","",""
"","html-keyboard-response","23","291760","0.0-39.0","qc7hu5kt","1280","720","","","","","","","","","","","778","mda","Practice diganostic trial","","f","practice","8","false","0","LEFT","f","1","","","","","",""
"","html-keyboard-response","24","292518","0.0-42.0","qc7hu5kt","1280","720","","","","","","","","","","","null","+","Fixation - short","","null","","","","","","","","","","","","",""
"","html-keyboard-response","25","293401","0.0-43.0","qc7hu5kt","1280","720","","","","","","","","","","","881","afp","Practice diganostic trial","","f","practice","9","false","0","LEFT","f","1","","","","","",""
"","html-keyboard-response","26","294154","0.0-46.0","qc7hu5kt","1280","720","","","","","","","","","","","null","+","Fixation - short","","null","","","","","","","","","","","","",""
"","html-keyboard-response","27","294752","0.0-47.0","qc7hu5kt","1280","720","","","","","","","","","","","597","afp","Practice diganostic trial","","j","practice","10","false","1","RIGHT","j","1","","","","","",""
"","html-keyboard-response","28","295516","0.0-50.0","qc7hu5kt","1280","720","","","","","","","","","","","null","+","Fixation - short","","null","","","","","","","","","","","","",""
"","html-keyboard-response","29","296164","0.0-51.0","qc7hu5kt","1280","720","","","","","","","","","","","647","mda","Practice diganostic trial","","j","practice","11","false","1","RIGHT","j","1","","","","","",""
"","html-keyboard-response","30","296918","0.0-54.0","qc7hu5kt","1280","720","","","","","","","","","","","null","+","Fixation - short","","null","","","","","","","","","","","","",""
"","html-keyboard-response","31","297702","0.0-55.0","qc7hu5kt","1280","720","","","","","","","","","","","783","afp","Practice diganostic trial","","f","practice","12","false","0","LEFT","f","1","","","","","",""
"","html-keyboard-response","32","298466","0.0-58.0","qc7hu5kt","1280","720","","","","","","","","","","","null","+","Fixation - short","","null","","","","","","","","","","","","",""
"","html-keyboard-response","33","299122","0.0-59.0","qc7hu5kt","1280","720","","","","","","","","","","","654","afp","Practice diganostic trial","","f","practice","13","false","0","LEFT","f","1","","","","","",""
"","html-keyboard-response","34","299879","0.0-62.0","qc7hu5kt","1280","720","","","","","","","","","","","null","+","Fixation - short","","null","","","","","","","","","","","","",""
"","html-keyboard-response","35","300507","0.0-63.0","qc7hu5kt","1280","720","","","","","","","","","","","627","afp","Practice diganostic trial","","j","practice","14","false","1","RIGHT","j","1","","","","","",""
"","html-keyboard-response","36","301262","0.0-66.0","qc7hu5kt","1280","720","","","","","","","","","","","null","+","Fixation - short","","null","","","","","","","","","","","","",""
"","html-keyboard-response","37","301804","0.0-67.0","qc7hu5kt","1280","720","","","","","","","","","","","540","afp","Practice diganostic trial","","j","practice","15","false","1","RIGHT","j","1","","","","","",""
"","html-keyboard-response","38","302560","0.0-70.0","qc7hu5kt","1280","720","","","","","","","","","","","null","+","Fixation - short","","null","","","","","","","","","","","","",""
"","instructions","39","350698","0.0-71.0","qc7hu5kt","1280","720","","","","","","","","","","[{""page_index"":0,""viewing_time"":48137}]","48137","Instructions","Final experiment explanation","","","","","","","","","","","","","","",""
"","html-keyboard-response","40","369423","0.0-72.0","qc7hu5kt","1280","720","","","","","","","","","","","17217","If vbt press RIGHT | If pbz press LEFT","Practice inducer instructions",""," ","practice","","","","","","","","","","","",""
"","html-keyboard-response","41","370571","0.0-73.0","qc7hu5kt","1280","720","","","","","","","","","","","1146","","Practice inducer trial","","j","practice","","true","","","j","1","RIGHT","","","","",""
"","html-keyboard-response","42","371324","0.0-76.0","qc7hu5kt","1280","720","","","","","","","","","","","null","+","Fixation - short","","null","","","","","","","","","","","","",""
"","html-keyboard-response","43","381731","0.0-77.0","qc7hu5kt","1280","720","","","","","","","","","","","10405","If oez press RIGHT | If gso press LEFT","Practice inducer instructions",""," ","practice","","","","","","","","","","","",""
"","html-keyboard-response","44","382641","0.0-78.0","qc7hu5kt","1280","720","","","","","","","","","","","909","","Practice inducer trial","","j","practice","","true","","","j","1","RIGHT","","","","",""
"","html-keyboard-response","45","383409","0.0-81.0","qc7hu5kt","1280","720","","","","","","","","","","","null","+","Fixation - short","","null","","","","","","","","","","","","",""
"","html-keyboard-response","46","388822","0.0-82.0","qc7hu5kt","1280","720","","","","","","","","","","","5411","If jup press RIGHT | If vnn press LEFT","Practice inducer instructions",""," ","practice","","","","","","","","","","","",""
"","html-keyboard-response","47","389924","0.0-83.0","qc7hu5kt","1280","720","","","","","","","","","","","1101","","Practice inducer trial","","j","practice","","true","","","j","1","RIGHT","","","","",""
"","html-keyboard-response","48","390688","0.0-86.0","qc7hu5kt","1280","720","","","","","","","","","","","null","+","Fixation - short","","null","","","","","","","","","","","","",""
"","html-keyboard-response","49","397806","0.0-87.0","qc7hu5kt","1280","720","","","","","","","","","","","7117","If ttm press RIGHT | If glp press LEFT","Practice inducer instructions",""," ","practice","","","","","","","","","","","",""
"","html-keyboard-response","50","398534","0.0-88.0","qc7hu5kt","1280","720","","","","","","","","","","","727","","Practice inducer trial","","f","practice","","true","","","f","1","LEFT","","","","",""
"","html-keyboard-response","51","399299","0.0-91.0","qc7hu5kt","1280","720","","","","","","","","","","","null","+","Fixation - short","","null","","","","","","","","","","","","",""
"","html-keyboard-response","52","403592","0.0-92.0","qc7hu5kt","1280","720","","","","","","","","","","","4292","If hfs press RIGHT | If amb press LEFT","Practice inducer instructions",""," ","practice","","","","","","","","","","","",""
"","html-keyboard-response","53","404423","0.0-93.0","qc7hu5kt","1280","720","","","","","","","","","","","830","","Practice inducer trial","","f","practice","","true","","","f","1","LEFT","","","","",""
"","html-keyboard-response","54","405190","0.0-96.0","qc7hu5kt","1280","720","","","","","","","","","","","null","+","Fixation - short","","null","","","","","","","","","","","","",""
"","html-keyboard-response","55","410470","0.0-97.0","qc7hu5kt","1280","720","","","","","","","","","","","5279","If vsc press RIGHT | If ila press LEFT","Practice inducer instructions",""," ","practice","","","","","","","","","","","",""
"","html-keyboard-response","56","411304","0.0-98.0","qc7hu5kt","1280","720","","","","","","","","","","","832","","Practice inducer trial","","f","practice","","true","","","f","1","LEFT","","","","",""
"","html-keyboard-response","57","412065","0.0-101.0","qc7hu5kt","1280","720","","","","","","","","","","","null","+","Fixation - short","","null","","","","","","","","","","","","",""
"","html-keyboard-response","58","442806","0.0-102.0","qc7hu5kt","1280","720","","","","","","","","","","","30738","End practice","End of practice",""," ","","","","","","","","","","","","",""
"","html-keyboard-response","59","444324","0.0-103.0","qc7hu5kt","1280","720","","","","","","","","","","","null","+","Fixation - long","","null","","","","","","","","","","","","",""
"","html-keyboard-response","60","447568","0.0-104.0","qc7hu5kt","1280","720","","","","","","","","","","","3242","If xet press RIGHT | If jlm press LEFT","Inducer instructions",""," ","0","","","","","","","","","","","",""
"","html-keyboard-response","61","448326","0.0-105.0","qc7hu5kt","1280","720","","","","","","","","","","","null","+","Fixation - short","","null","","","","","","","","","","","","",""
"","html-keyboard-response","62","449440","0.0-106.0","qc7hu5kt","1280","720","","","","","","","","","","","1112","xet","Diagnostic trial","","j","0","0","false","true","RIGHT","j","1","","LEFT","false","","",""
"","html-keyboard-response","63","450204","0.0-109.0","qc7hu5kt","1280","720","","","","","","","","","","","null","+","Fixation - short","","null","","","","","","","","","","","","",""
"","html-keyboard-response","64","452123","0.0-110.0","qc7hu5kt","1280","720","","","","","","","","","","","1917","jlm","Diagnostic trial","","f","0","1","false","false","LEFT","f","1","","RIGHT","false","","",""
"","html-keyboard-response","65","452880","0.0-113.0","qc7hu5kt","1280","720","","","","","","","","","","","null","+","Fixation - short","","null","","","","","","","","","","","","",""
"","html-keyboard-response","66","453560","0.0-114.0","qc7hu5kt","1280","720","","","","","","","","","","","678","jlm","Diagnostic trial","","f","0","2","false","false","LEFT","f","1","","RIGHT","false","","",""
"","html-keyboard-response","67","454317","0.0-117.0","qc7hu5kt","1280","720","","","","","","","","","","","null","+","Fixation - short","","null","","","","","","","","","","","","",""
"","html-keyboard-response","68","454876","0.0-118.0","qc7hu5kt","1280","720","","","","","","","","","","","558","jlm","Diagnostic trial","","f","0","3","false","true","RIGHT","j","0","","RIGHT","true","","",""
"","call-function","69","454877","0.0-120.0-0.0","qc7hu5kt","","","","","","","","","","","","","","","","","","","","","","","","","","","","","",""
"","html-keyboard-response","70","455186","0.0-120.0-1.0","qc7hu5kt","1280","720","","","","","","","","","","","null","Wrong","Feedback","","null","","","","","","","","","","","","",""
"","call-function","71","455186","0.0-120.0-2.0","qc7hu5kt","","","","","","","","","","","","","","","","","","","","","","","","","","","","","",""
"","html-keyboard-response","72","455952","0.0-121.0","qc7hu5kt","1280","720","","","","","","","","","","","null","+","Fixation - short","","null","","","","","","","","","","","","",""
"","html-keyboard-response","73","457007","0.0-122.0","qc7hu5kt","1280","720","","","","","","","","","","","1053","jlm","Diagnostic trial","","f","0","4","false","true","RIGHT","j","0","","RIGHT","true","","",""
"","call-function","74","457007","0.0-124.0-0.0","qc7hu5kt","","","","","","","","","","","","","","","","","","","","","","","","","","","","","",""
"","html-keyboard-response","75","457319","0.0-124.0-1.0","qc7hu5kt","1280","720","","","","","","","","","","","null","Wrong","Feedback","","null","","","","","","","","","","","","",""
"","call-function","76","457320","0.0-124.0-2.0","qc7hu5kt","","","","","","","","","","","","","","","","","","","","","","","","","","","","","",""
"","html-keyboard-response","77","458079","0.0-125.0","qc7hu5kt","1280","720","","","","","","","","","","","null","+","Fixation - short","","null","","","","","","","","","","","","",""
"","html-keyboard-response","78","459163","0.0-126.0","qc7hu5kt","1280","720","","","","","","","","","","","1083","jlm","Diagnostic trial","","j","0","5","false","true","RIGHT","j","1","","RIGHT","true","","",""
"","html-keyboard-response","79","459923","0.0-129.0","qc7hu5kt","1280","720","","","","","","","","","","","null","+","Fixation - short","","null","","","","","","","","","","","","",""
"","html-keyboard-response","80","460700","0.0-130.0","qc7hu5kt","1280","720","","","","","","","","","","","776","jlm","Diagnostic trial","","j","0","6","false","true","RIGHT","j","1","","RIGHT","true","","",""
"","html-keyboard-response","81","461456","0.0-133.0","qc7hu5kt","1280","720","","","","","","","","","","","null","+","Fixation - short","","null","","","","","","","","","","","","",""
"","html-keyboard-response","82","462556","0.0-134.0","qc7hu5kt","1280","720","","","","","","","","","","","1098","xet","Diagnostic trial","","j","0","7","false","true","RIGHT","j","1","","LEFT","false","","",""
"","html-keyboard-response","83","463320","0.0-137.0","qc7hu5kt","1280","720","","","","","","","","","","","null","+","Fixation - short","","null","","","","","","","","","","","","",""
"","html-keyboard-response","84","464165","0.0-138.0","qc7hu5kt","1280","720","","","","","","","","","","","843","xet","Diagnostic trial","","j","0","8","false","true","RIGHT","j","1","","LEFT","false","","",""
"","html-keyboard-response","85","464922","0.0-141.0","qc7hu5kt","1280","720","","","","","","","","","","","null","+","Fixation - short","","null","","","","","","","","","","","","",""
"","html-keyboard-response","86","465861","0.0-142.0","qc7hu5kt","1280","720","","","","","","","","","","","938","jlm","Diagnostic trial","","f","0","9","false","false","LEFT","f","1","","RIGHT","false","","",""
"","html-keyboard-response","87","466621","0.0-145.0","qc7hu5kt","1280","720","","","","","","","","","","","null","+","Fixation - short","","null","","","","","","","","","","","","",""
"","html-keyboard-response","88","467551","0.0-146.0","qc7hu5kt","1280","720","","","","","","","","","","","928","xet","Diagnostic trial","","j","0","10","false","true","RIGHT","j","1","","LEFT","false","","",""
"","html-keyboard-response","89","468307","0.0-149.0","qc7hu5kt","1280","720","","","","","","","","","","","null","+","Fixation - short","","null","","","","","","","","","","","","",""
"","html-keyboard-response","90","469189","0.0-150.0","qc7hu5kt","1280","720","","","","","","","","","","","880","xet","Diagnostic trial","","j","0","11","false","true","RIGHT","j","1","","LEFT","false","","",""
"","html-keyboard-response","91","469946","0.0-153.0","qc7hu5kt","1280","720","","","","","","","","","","","null","+","Fixation - short","","null","","","","","","","","","","","","",""
"","html-keyboard-response","92","470666","0.0-154.0","qc7hu5kt","1280","720","","","","","","","","","","","718","xet","Diagnostic trial","","j","0","12","false","true","RIGHT","j","1","","LEFT","false","","",""
"","html-keyboard-response","93","471430","0.0-157.0","qc7hu5kt","1280","720","","","","","","","","","","","null","+","Fixation - short","","null","","","","","","","","","","","","",""
"","html-keyboard-response","94","472671","0.0-158.0","qc7hu5kt","1280","720","","","","","","","","","","","1239","jlm","Diagnostic trial","","j","0","13","false","true","RIGHT","j","1","","RIGHT","true","","",""
"","html-keyboard-response","95","473427","0.0-161.0","qc7hu5kt","1280","720","","","","","","","","","","","null","+","Fixation - short","","null","","","","","","","","","","","","",""
"","html-keyboard-response","96","474625","0.0-162.0","qc7hu5kt","1280","720","","","","","","","","","","","1197","xet","Diagnostic trial","","j","0","14","false","false","LEFT","f","0","","LEFT","true","","",""
"","call-function","97","474626","0.0-164.0-0.0","qc7hu5kt","","","","","","","","","","","","","","","","","","","","","","","","","","","","","",""
"","html-keyboard-response","98","474937","0.0-164.0-1.0","qc7hu5kt","1280","720","","","","","","","","","","","null","Wrong","Feedback","","null","","","","","","","","","","","","",""
"","call-function","99","474938","0.0-164.0-2.0","qc7hu5kt","","","","","","","","","","","","","","","","","","","","","","","","","","","","","",""
"","html-keyboard-response","100","475690","0.0-165.0","qc7hu5kt","1280","720","","","","","","","","","","","null","+","Fixation - short","","null","","","","","","","","","","","","",""
"","html-keyboard-response","101","476743","0.0-166.0","qc7hu5kt","1280","720","","","","","","","","","","","1051","xet","Inducer trial","","f","0","","true","","","j","0","RIGHT","","","","",""
"","call-function","102","476744","0.0-168.0-0.0","qc7hu5kt","","","","","","","","","","","","","","","","","","","","","","","","","","","","","",""
"","html-keyboard-response","103","477046","0.0-168.0-1.0","qc7hu5kt","1280","720","","","","","","","","","","","null","Wrong","Feedback","","null","","","","","","","","","","","","",""
"","call-function","104","477047","0.0-168.0-2.0","qc7hu5kt","","","","","","","","","","","","","","","","","","","","","","","","","","","","","",""
"","html-keyboard-response","105","478564","0.0-169.0","qc7hu5kt","1280","720","","","","","","","","","","","null","+","Fixation - long","","null","","","","","","","","","","","","",""
"","html-keyboard-response","106","488074","0.0-170.0","qc7hu5kt","1280","720","","","","","","","","","","","9509","If epy press RIGHT | If flh press LEFT","Inducer instructions",""," ","1","","","","","","","","","","","",""
"","html-keyboard-response","107","488833","0.0-171.0","qc7hu5kt","1280","720","","","","","","","","","","","null","+","Fixation - short","","null","","","","","","","","","","","","",""
"","html-keyboard-response","108","489838","0.0-172.0","qc7hu5kt","1280","720","","","","","","","","","","","1004","flh","Diagnostic trial","","f","1","0","false","false","LEFT","f","1","","RIGHT","false","","",""
"","html-keyboard-response","109","490595","0.0-175.0","qc7hu5kt","1280","720","","","","","","","","","","","null","+","Fixation - short","","null","","","","","","","","","","","","",""
"","html-keyboard-response","110","492193","0.0-176.0","qc7hu5kt","1280","720","","","","","","","","","","","1597","flh","Diagnostic trial","","j","1","1","false","true","RIGHT","j","1","","RIGHT","true","","",""
"","html-keyboard-response","111","492950","0.0-179.0","qc7hu5kt","1280","720","","","","","","","","","","","null","+","Fixation - short","","null","","","","","","","","","","","","",""
"","html-keyboard-response","112","494700","0.0-180.0","qc7hu5kt","1280","720","","","","","","","","","","","1750","epy","Diagnostic trial","","j","1","2","false","true","RIGHT","j","1","","LEFT","false","","",""
"","html-keyboard-response","113","495454","0.0-183.0","qc7hu5kt","1280","720","","","","","","","","","","","null","+","Fixation - short","","null","","","","","","","","","","","","",""
"","html-keyboard-response","114","496494","0.0-184.0","qc7hu5kt","1280","720","","","","","","","","","","","1038","epy","Diagnostic trial","","j","1","3","false","true","RIGHT","j","1","","LEFT","false","","",""
"","html-keyboard-response","115","497254","0.0-187.0","qc7hu5kt","1280","720","","","","","","","","","","","null","+","Fixation - short","","null","","","","","","","","","","","","",""
"","html-keyboard-response","116","498123","0.0-188.0","qc7hu5kt","1280","720","","","","","","","","","","","868","epy","Diagnostic trial","","j","1","4","false","true","RIGHT","j","1","","LEFT","false","","",""
"","html-keyboard-response","117","498888","0.0-191.0","qc7hu5kt","1280","720","","","","","","","","","","","null","+","Fixation - short","","null","","","","","","","","","","","","",""
"","html-keyboard-response","118","499601","0.0-192.0","qc7hu5kt","1280","720","","","","","","","","","","","713","epy","Diagnostic trial","","j","1","5","false","true","RIGHT","j","1","","LEFT","false","","",""
"","html-keyboard-response","119","500358","0.0-195.0","qc7hu5kt","1280","720","","","","","","","","","","","null","+","Fixation - short","","null","","","","","","","","","","","","",""
"","html-keyboard-response","120","501868","0.0-196.0","qc7hu5kt","1280","720","","","","","","","","","","","1508","flh","Inducer trial","","f","1","","true","","","f","1","LEFT","","","","",""
"","html-keyboard-response","121","503375","0.0-199.0","qc7hu5kt","1280","720","","","","","","","","","","","null","+","Fixation - long","","null","","","","","","","","","","","","",""
"","html-keyboard-response","122","517336","0.0-200.0","qc7hu5kt","1280","720","","","","","","","","","","","13960","If aor press RIGHT | If vpu press LEFT","Inducer instructions",""," ","2","","","","","","","","","","","",""
"","html-keyboard-response","123","518103","0.0-201.0","qc7hu5kt","1280","720","","","","","","","","","","","null","+","Fixation - short","","null","","","","","","","","","","","","",""
"","html-keyboard-response","124","520115","0.0-202.0","qc7hu5kt","1280","720","","","","","","","","","","","null","vpu","Diagnostic trial","","null","2","0","false","false","LEFT","f","NaN","","RIGHT","false","","",""
"","call-function","125","520116","0.0-203.0-0.0","qc7hu5kt","","","","","","","","","","","","","","","","","","","","","","","","","","","","","",""
"","html-keyboard-response","126","520418","0.0-203.0-1.0","qc7hu5kt","1280","720","","","","","","","","","","","null","Slow","Feedback","","null","","","","","","","","","","","","",""
"","call-function","127","520419","0.0-203.0-2.0","qc7hu5kt","","","","","","","","","","","","","","","","","","","","","","","","","","","","","",""
"","html-keyboard-response","128","521184","0.0-205.0","qc7hu5kt","1280","720","","","","","","","","","","","null","+","Fixation - short","","null","","","","","","","","","","","","",""
"","html-keyboard-response","129","522081","0.0-206.0","qc7hu5kt","1280","720","","","","","","","","","","","896","vpu","Diagnostic trial","","f","2","1","false","false","LEFT","f","1","","RIGHT","false","","",""
"","html-keyboard-response","130","522838","0.0-209.0","qc7hu5kt","1280","720","","","","","","","","","","","null","+","Fixation - short","","null","","","","","","","","","","","","",""
"","html-keyboard-response","131","523591","0.0-210.0","qc7hu5kt","1280","720","","","","","","","","","","","752","vpu","Diagnostic trial","","f","2","2","false","false","LEFT","f","1","","RIGHT","false","","",""
"","html-keyboard-response","132","524354","0.0-213.0","qc7hu5kt","1280","720","","","","","","","","","","","null","+","Fixation - short","","null","","","","","","","","","","","","",""
"","html-keyboard-response","133","524869","0.0-214.0","qc7hu5kt","1280","720","","","","","","","","","","","514","vpu","Diagnostic trial","","f","2","3","false","false","LEFT","f","1","","RIGHT","false","","",""
"","html-keyboard-response","134","525626","0.0-217.0","qc7hu5kt","1280","720","","","","","","","","","","","null","+","Fixation - short","","null","","","","","","","","","","","","",""
"","html-keyboard-response","135","526595","0.0-218.0","qc7hu5kt","1280","720","","","","","","","","","","","968","vpu","Diagnostic trial","","j","2","4","false","true","RIGHT","j","1","","RIGHT","true","","",""
"","html-keyboard-response","136","527360","0.0-221.0","qc7hu5kt","1280","720","","","","","","","","","","","null","+","Fixation - short","","null","","","","","","","","","","","","",""
"","html-keyboard-response","137","528205","0.0-222.0","qc7hu5kt","1280","720","","","","","","","","","","","843","vpu","Diagnostic trial","","f","2","5","false","false","LEFT","f","1","","RIGHT","false","","",""
"","html-keyboard-response","138","528969","0.0-225.0","qc7hu5kt","1280","720","","","","","","","","","","","null","+","Fixation - short","","null","","","","","","","","","","","","",""
"","html-keyboard-response","139","530071","0.0-226.0","qc7hu5kt","1280","720","","","","","","","","","","","1101","aor","Diagnostic trial","","j","2","6","false","false","LEFT","f","0","","LEFT","true","","",""
"","call-function","140","530072","0.0-228.0-0.0","qc7hu5kt","","","","","","","","","","","","","","","","","","","","","","","","","","","","","",""
"","html-keyboard-response","141","530375","0.0-228.0-1.0","qc7hu5kt","1280","720","","","","","","","","","","","null","Wrong","Feedback","","null","","","","","","","","","","","","",""
"","call-function","142","530376","0.0-228.0-2.0","qc7hu5kt","","","","","","","","","","","","","","","","","","","","","","","","","","","","","",""
"","html-keyboard-response","143","531138","0.0-229.0","qc7hu5kt","1280","720","","","","","","","","","","","null","+","Fixation - short","","null","","","","","","","","","","","","",""
"","html-keyboard-response","144","532376","0.0-230.0","qc7hu5kt","1280","720","","","","","","","","","","","1237","vpu","Diagnostic trial","","f","2","7","false","true","RIGHT","j","0","","RIGHT","true","","",""
"","call-function","145","532377","0.0-232.0-0.0","qc7hu5kt","","","","","","","","","","","","","","","","","","","","","","","","","","","","","",""
"","html-keyboard-response","146","532693","0.0-232.0-1.0","qc7hu5kt","1280","720","","","","","","","","","","","null","Wrong","Feedback","","null","","","","","","","","","","","","",""
"","call-function","147","532694","0.0-232.0-2.0","qc7hu5kt","","","","","","","","","","","","","","","","","","","","","","","","","","","","","",""
"","html-keyboard-response","148","533456","0.0-233.0","qc7hu5kt","1280","720","","","","","","","","","","","null","+","Fixation - short","","null","","","","","","","","","","","","",""
"","html-keyboard-response","149","535089","0.0-234.0","qc7hu5kt","1280","720","","","","","","","","","","","1631","aor","Inducer trial","","j","2","","true","","","j","1","RIGHT","","","","",""
"","html-keyboard-response","150","536602","0.0-237.0","qc7hu5kt","1280","720","","","","","","","","","","","null","+","Fixation - long","","null","","","","","","","","","","","","",""
"","html-keyboard-response","151","545216","0.0-238.0","qc7hu5kt","1280","720","","","","","","","","","","","8613","If kmh press RIGHT | If upf press LEFT","Inducer instructions",""," ","3","","","","","","","","","","","",""
"","html-keyboard-response","152","545975","0.0-239.0","qc7hu5kt","1280","720","","","","","","","","","","","null","+","Fixation - short","","null","","","","","","","","","","","","",""
"","html-keyboard-response","153","547084","0.0-240.0","qc7hu5kt","1280","720","","","","","","","","","","","1108","upf","Diagnostic trial","","f","3","0","false","false","LEFT","f","1","","RIGHT","false","","",""
"","html-keyboard-response","154","547840","0.0-243.0","qc7hu5kt","1280","720","","","","","","","","","","","null","+","Fixation - short","","null","","","","","","","","","","","","",""
"","html-keyboard-response","155","548628","0.0-244.0","qc7hu5kt","1280","720","","","","","","","","","","","787","kmh","Diagnostic trial","","j","3","1","false","false","LEFT","f","0","","LEFT","true","","",""
"","call-function","156","548629","0.0-246.0-0.0","qc7hu5kt","","","","","","","","","","","","","","","","","","","","","","","","","","","","","",""
"","html-keyboard-response","157","548933","0.0-246.0-1.0","qc7hu5kt","1280","720","","","","","","","","","","","null","Wrong","Feedback","","null","","","","","","","","","","","","",""
"","call-function","158","548934","0.0-246.0-2.0","qc7hu5kt","","","","","","","","","","","","","","","","","","","","","","","","","","","","","",""
"","html-keyboard-response","159","549692","0.0-247.0","qc7hu5kt","1280","720","","","","","","","","","","","null","+","Fixation - short","","null","","","","","","","","","","","","",""
"","html-keyboard-response","160","550653","0.0-248.0","qc7hu5kt","1280","720","","","","","","","","","","","960","kmh","Diagnostic trial","","f","3","2","false","false","LEFT","f","1","","LEFT","true","","",""
"","html-keyboard-response","161","551413","0.0-251.0","qc7hu5kt","1280","720","","","","","","","","","","","null","+","Fixation - short","","null","","","","","","","","","","","","",""
"","html-keyboard-response","162","552246","0.0-252.0","qc7hu5kt","1280","720","","","","","","","","","","","832","kmh","Diagnostic trial","","f","3","3","false","false","LEFT","f","1","","LEFT","true","","",""
"","html-keyboard-response","163","553010","0.0-255.0","qc7hu5kt","1280","720","","","","","","","","","","","null","+","Fixation - short","","null","","","","","","","","","","","","",""
"","html-keyboard-response","164","553881","0.0-256.0","qc7hu5kt","1280","720","","","","","","","","","","","870","upf","Diagnostic trial","","j","3","4","false","false","LEFT","f","0","","RIGHT","false","","",""
"","call-function","165","553882","0.0-258.0-0.0","qc7hu5kt","","","","","","","","","","","","","","","","","","","","","","","","","","","","","",""
"","html-keyboard-response","166","554187","0.0-258.0-1.0","qc7hu5kt","1280","720","","","","","","","","","","","null","Wrong","Feedback","","null","","","","","","","","","","","","",""
"","call-function","167","554188","0.0-258.0-2.0","qc7hu5kt","","","","","","","","","","","","","","","","","","","","","","","","","","","","","",""
"","html-keyboard-response","168","554943","0.0-259.0","qc7hu5kt","1280","720","","","","","","","","","","","null","+","Fixation - short","","null","","","","","","","","","","","","",""
"","html-keyboard-response","169","555995","0.0-260.0","qc7hu5kt","1280","720","","","","","","","","","","","1051","kmh","Diagnostic trial","","j","3","5","false","true","RIGHT","j","1","","LEFT","false","","",""
"","html-keyboard-response","170","556760","0.0-263.0","qc7hu5kt","1280","720","","","","","","","","","","","null","+","Fixation - short","","null","","","","","","","","","","","","",""
"","html-keyboard-response","171","557871","0.0-264.0","qc7hu5kt","1280","720","","","","","","","","","","","1110","kmh","Diagnostic trial","","f","3","6","false","false","LEFT","f","1","","LEFT","true","","",""
"","html-keyboard-response","172","558629","0.0-267.0","qc7hu5kt","1280","720","","","","","","","","","","","null","+","Fixation - short","","null","","","","","","","","","","","","",""
"","html-keyboard-response","173","559685","0.0-268.0","qc7hu5kt","1280","720","","","","","","","","","","","1055","upf","Diagnostic trial","","j","3","7","false","true","RIGHT","j","1","","RIGHT","true","","",""
"","html-keyboard-response","174","560439","0.0-271.0","qc7hu5kt","1280","720","","","","","","","","","","","null","+","Fixation - short","","null","","","","","","","","","","","","",""
"","html-keyboard-response","175","561542","0.0-272.0","qc7hu5kt","1280","720","","","","","","","","","","","1101","kmh","Inducer trial","","f","3","","true","","","j","0","RIGHT","","","","",""
"","call-function","176","561542","0.0-274.0-0.0","qc7hu5kt","","","","","","","","","","","","","","","","","","","","","","","","","","","","","",""
"","html-keyboard-response","177","561854","0.0-274.0-1.0","qc7hu5kt","1280","720","","","","","","","","","","","null","Wrong","Feedback","","null","","","","","","","","","","","","",""
"","call-function","178","561854","0.0-274.0-2.0","qc7hu5kt","","","","","","","","","","","","","","","","","","","","","","","","","","","","","",""
"","html-keyboard-response","179","563369","0.0-275.0","qc7hu5kt","1280","720","","","","","","","","","","","null","+","Fixation - long","","null","","","","","","","","","","","","",""
"","html-keyboard-response","180","583384","0.0-276.0","qc7hu5kt","1280","720","","","","","","","","","","","null","If otr press RIGHT | If edc press LEFT","Inducer instructions","","null","4","","","","","","","","","","","",""
"","html-keyboard-response","181","584145","0.0-277.0","qc7hu5kt","1280","720","","","","","","","","","","","null","+","Fixation - short","","null","","","","","","","","","","","","",""
"","html-keyboard-response","182","585740","0.0-278.0","qc7hu5kt","1280","720","","","","","","","","","","","1593","otr","Diagnostic trial","","j","4","0","false","false","LEFT","f","0","","LEFT","true","","",""
"","call-function","183","585741","0.0-280.0-0.0","qc7hu5kt","","","","","","","","","","","","","","","","","","","","","","","","","","","","","",""
"","html-keyboard-response","184","586050","0.0-280.0-1.0","qc7hu5kt","1280","720","","","","","","","","","","","null","Wrong","Feedback","","null","","","","","","","","","","","","",""
"","call-function","185","586051","0.0-280.0-2.0","qc7hu5kt","","","","","","","","","","","","","","","","","","","","","","","","","","","","","",""
"","html-keyboard-response","186","586813","0.0-281.0","qc7hu5kt","1280","720","","","","","","","","","","","null","+","Fixation - short","","null","","","","","","","","","","","","",""
"","html-keyboard-response","187","587810","0.0-282.0","qc7hu5kt","1280","720","","","","","","","","","","","997","edc","Diagnostic trial","","j","4","1","false","true","RIGHT","j","1","","RIGHT","true","","",""
"","html-keyboard-response","188","588566","0.0-285.0","qc7hu5kt","1280","720","","","","","","","","","","","null","+","Fixation - short","","null","","","","","","","","","","","","",""
"","html-keyboard-response","189","589597","0.0-286.0","qc7hu5kt","1280","720","","","","","","","","","","","1030","edc","Diagnostic trial","","f","4","2","false","false","LEFT","f","1","","RIGHT","false","","",""
"","html-keyboard-response","190","590353","0.0-289.0","qc7hu5kt","1280","720","","","","","","","","","","","null","+","Fixation - short","","null","","","","","","","","","","","","",""
"","html-keyboard-response","191","591515","0.0-290.0","qc7hu5kt","1280","720","","","","","","","","","","","1161","otr","Diagnostic trial","","j","4","3","false","true","RIGHT","j","1","","LEFT","false","","",""
"","html-keyboard-response","192","592270","0.0-293.0","qc7hu5kt","1280","720","","","","","","","","","","","null","+","Fixation - short","","null","","","","","","","","","","","","",""
"","html-keyboard-response","193","593157","0.0-294.0","qc7hu5kt","1280","720","","","","","","","","","","","886","edc","Diagnostic trial","","f","4","4","false","true","RIGHT","j","0","","RIGHT","true","","",""
"","call-function","194","593158","0.0-296.0-0.0","qc7hu5kt","","","","","","","","","","","","","","","","","","","","","","","","","","","","","",""
"","html-keyboard-response","195","593465","0.0-296.0-1.0","qc7hu5kt","1280","720","","","","","","","","","","","null","Wrong","Feedback","","null","","","","","","","","","","","","",""
"","call-function","196","593466","0.0-296.0-2.0","qc7hu5kt","","","","","","","","","","","","","","","","","","","","","","","","","","","","","",""
"","html-keyboard-response","197","594221","0.0-297.0","qc7hu5kt","1280","720","","","","","","","","","","","null","+","Fixation - short","","null","","","","","","","","","","","","",""
"","html-keyboard-response","198","595134","0.0-298.0","qc7hu5kt","1280","720","","","","","","","","","","","913","otr","Diagnostic trial","","j","4","5","false","true","RIGHT","j","1","","LEFT","false","","",""
"","html-keyboard-response","199","595892","0.0-301.0","qc7hu5kt","1280","720","","","","","","","","","","","null","+","Fixation - short","","null","","","","","","","","","","","","",""
"","html-keyboard-response","200","596877","0.0-302.0","qc7hu5kt","1280","720","","","","","","","","","","","983","edc","Inducer trial","","f","4","","true","","","f","1","LEFT","","","","",""
"","html-keyboard-response","201","598391","0.0-305.0","qc7hu5kt","1280","720","","","","","","","","","","","null","+","Fixation - long","","null","","","","","","","","","","","","",""
"","html-keyboard-response","202","609708","0.0-306.0","qc7hu5kt","1280","720","","","","","","","","","","","11316","If ivr press RIGHT | If mik press LEFT","Inducer instructions",""," ","5","","","","","","","","","","","",""
"","html-keyboard-response","203","610468","0.0-307.0","qc7hu5kt","1280","720","","","","","","","","","","","null","+","Fixation - short","","null","","","","","","","","","","","","",""
"","html-keyboard-response","204","611893","0.0-308.0","qc7hu5kt","1280","720","","","","","","","","","","","1424","mik","Diagnostic trial","","f","5","0","false","false","LEFT","f","1","","RIGHT","false","","",""
"","html-keyboard-response","205","612653","0.0-311.0","qc7hu5kt","1280","720","","","","","","","","","","","null","+","Fixation - short","","null","","","","","","","","","","","","",""
"","html-keyboard-response","206","613566","0.0-312.0","qc7hu5kt","1280","720","","","","","","","","","","","912","mik","Diagnostic trial","","j","5","1","false","true","RIGHT","j","1","","RIGHT","true","","",""
"","html-keyboard-response","207","614328","0.0-315.0","qc7hu5kt","1280","720","","","","","","","","","","","null","+","Fixation - short","","null","","","","","","","","","","","","",""
"","html-keyboard-response","208","616004","0.0-316.0","qc7hu5kt","1280","720","","","","","","","","","","","1674","ivr","Diagnostic trial","","j","5","2","false","false","LEFT","f","0","","LEFT","true","","",""
"","call-function","209","616004","0.0-318.0-0.0","qc7hu5kt","","","","","","","","","","","","","","","","","","","","","","","","","","","","","",""
"","html-keyboard-response","210","616306","0.0-318.0-1.0","qc7hu5kt","1280","720","","","","","","","","","","","null","Wrong","Feedback","","null","","","","","","","","","","","","",""
"","call-function","211","616307","0.0-318.0-2.0","qc7hu5kt","","","","","","","","","","","","","","","","","","","","","","","","","","","","","",""
"","html-keyboard-response","212","617063","0.0-319.0","qc7hu5kt","1280","720","","","","","","","","","","","null","+","Fixation - short","","null","","","","","","","","","","","","",""
"","html-keyboard-response","213","617916","0.0-320.0","qc7hu5kt","1280","720","","","","","","","","","","","852","ivr","Diagnostic trial","","f","5","3","false","false","LEFT","f","1","","LEFT","true","","",""
"","html-keyboard-response","214","618673","0.0-323.0","qc7hu5kt","1280","720","","","","","","","","","","","null","+","Fixation - short","","null","","","","","","","","","","","","",""
"","html-keyboard-response","215","619683","0.0-324.0","qc7hu5kt","1280","720","","","","","","","","","","","1009","ivr","Diagnostic trial","","j","5","4","false","true","RIGHT","j","1","","LEFT","false","","",""
"","html-keyboard-response","216","620439","0.0-327.0","qc7hu5kt","1280","720","","","","","","","","","","","null","+","Fixation - short","","null","","","","","","","","","","","","",""
"","html-keyboard-response","217","621605","0.0-328.0","qc7hu5kt","1280","720","","","","","","","","","","","1164","mik","Diagnostic trial","","f","5","5","false","false","LEFT","f","1","","RIGHT","false","","",""
"","html-keyboard-response","218","622369","0.0-331.0","qc7hu5kt","1280","720","","","","","","","","","","","null","+","Fixation - short","","null","","","","","","","","","","","","",""
"","html-keyboard-response","219","623604","0.0-332.0","qc7hu5kt","1280","720","","","","","","","","","","","1234","mik","Diagnostic trial","","j","5","6","false","true","RIGHT","j","1","","RIGHT","true","","",""
"","html-keyboard-response","220","624361","0.0-335.0","qc7hu5kt","1280","720","","","","","","","","","","","null","+","Fixation - short","","null","","","","","","","","","","","","",""
"","html-keyboard-response","221","625541","0.0-336.0","qc7hu5kt","1280","720","","","","","","","","","","","1179","ivr","Diagnostic trial","","j","5","7","false","false","LEFT","f","0","","LEFT","true","","",""
"","call-function","222","625542","0.0-338.0-0.0","qc7hu5kt","","","","","","","","","","","","","","","","","","","","","","","","","","","","","",""
"","html-keyboard-response","223","625851","0.0-338.0-1.0","qc7hu5kt","1280","720","","","","","","","","","","","null","Wrong","Feedback","","null","","","","","","","","","","","","",""
"","call-function","224","625852","0.0-338.0-2.0","qc7hu5kt","","","","","","","","","","","","","","","","","","","","","","","","","","","","","",""
"","html-keyboard-response","225","626611","0.0-339.0","qc7hu5kt","1280","720","","","","","","","","","","","null","+","Fixation - short","","null","","","","","","","","","","","","",""
"","html-keyboard-response","226","627557","0.0-340.0","qc7hu5kt","1280","720","","","","","","","","","","","945","ivr","Inducer trial","","j","5","","true","","","j","1","RIGHT","","","","",""
"","html-keyboard-response","227","629061","0.0-343.0","qc7hu5kt","1280","720","","","","","","","","","","","null","+","Fixation - long","","null","","","","","","","","","","","","",""
"","html-keyboard-response","228","649076","0.0-344.0","qc7hu5kt","1280","720","","","","","","","","","","","null","If kho press RIGHT | If adj press LEFT","Inducer instructions","","null","6","","","","","","","","","","","",""
"","html-keyboard-response","229","649828","0.0-345.0","qc7hu5kt","1280","720","","","","","","","","","","","null","+","Fixation - short","","null","","","","","","","","","","","","",""
"","html-keyboard-response","230","651835","0.0-346.0","qc7hu5kt","1280","720","","","","","","","","","","","null","kho","Diagnostic trial","","null","6","0","false","true","RIGHT","j","NaN","","LEFT","false","","",""
"","call-function","231","651836","0.0-347.0-0.0","qc7hu5kt","","","","","","","","","","","","","","","","","","","","","","","","","","","","","",""
"","html-keyboard-response","232","652140","0.0-347.0-1.0","qc7hu5kt","1280","720","","","","","","","","","","","null","Slow","Feedback","","null","","","","","","","","","","","","",""
"","call-function","233","652140","0.0-347.0-2.0","qc7hu5kt","","","","","","","","","","","","","","","","","","","","","","","","","","","","","",""
"","html-keyboard-response","234","652903","0.0-349.0","qc7hu5kt","1280","720","","","","","","","","","","","null","+","Fixation - short","","null","","","","","","","","","","","","",""
"","html-keyboard-response","235","653554","0.0-350.0","qc7hu5kt","1280","720","","","","","","","","","","","650","kho","Diagnostic trial","","j","6","1","false","false","LEFT","f","0","","LEFT","true","","",""
"","call-function","236","653554","0.0-352.0-0.0","qc7hu5kt","","","","","","","","","","","","","","","","","","","","","","","","","","","","","",""
"","html-keyboard-response","237","653863","0.0-352.0-1.0","qc7hu5kt","1280","720","","","","","","","","","","","null","Wrong","Feedback","","null","","","","","","","","","","","","",""
"","call-function","238","653863","0.0-352.0-2.0","qc7hu5kt","","","","","","","","","","","","","","","","","","","","","","","","","","","","","",""
"","html-keyboard-response","239","654628","0.0-353.0","qc7hu5kt","1280","720","","","","","","","","","","","null","+","Fixation - short","","null","","","","","","","","","","","","",""
"","html-keyboard-response","240","656400","0.0-354.0","qc7hu5kt","1280","720","","","","","","","","","","","1771","adj","Diagnostic trial","","j","6","2","false","false","LEFT","f","0","","RIGHT","false","","",""
"","call-function","241","656400","0.0-356.0-0.0","qc7hu5kt","","","","","","","","","","","","","","","","","","","","","","","","","","","","","",""
"","html-keyboard-response","242","656716","0.0-356.0-1.0","qc7hu5kt","1280","720","","","","","","","","","","","null","Wrong","Feedback","","null","","","","","","","","","","","","",""
"","call-function","243","656717","0.0-356.0-2.0","qc7hu5kt","","","","","","","","","","","","","","","","","","","","","","","","","","","","","",""
"","html-keyboard-response","244","657476","0.0-357.0","qc7hu5kt","1280","720","","","","","","","","","","","null","+","Fixation - short","","null","","","","","","","","","","","","",""
"","html-keyboard-response","245","658161","0.0-358.0","qc7hu5kt","1280","720","","","","","","","","","","","684","adj","Diagnostic trial","","f","6","3","false","false","LEFT","f","1","","RIGHT","false","","",""
"","html-keyboard-response","246","658927","0.0-361.0","qc7hu5kt","1280","720","","","","","","","","","","","null","+","Fixation - short","","null","","","","","","","","","","","","",""
"","html-keyboard-response","247","659788","0.0-362.0","qc7hu5kt","1280","720","","","","","","","","","","","860","kho","Diagnostic trial","","j","6","4","false","true","RIGHT","j","1","","LEFT","false","","",""
"","html-keyboard-response","248","660547","0.0-365.0","qc7hu5kt","1280","720","","","","","","","","","","","null","+","Fixation - short","","null","","","","","","","","","","","","",""
"","html-keyboard-response","249","661708","0.0-366.0","qc7hu5kt","1280","720","","","","","","","","","","","1160","adj","Diagnostic trial","","f","6","5","false","false","LEFT","f","1","","RIGHT","false","","",""
"","html-keyboard-response","250","662465","0.0-369.0","qc7hu5kt","1280","720","","","","","","","","","","","null","+","Fixation - short","","null","","","","","","","","","","","","",""
"","html-keyboard-response","251","663251","0.0-370.0","qc7hu5kt","1280","720","","","","","","","","","","","785","adj","Diagnostic trial","","f","6","6","false","false","LEFT","f","1","","RIGHT","false","","",""
"","html-keyboard-response","252","664008","0.0-373.0","qc7hu5kt","1280","720","","","","","","","","","","","null","+","Fixation - short","","null","","","","","","","","","","","","",""
"","html-keyboard-response","253","665517","0.0-374.0","qc7hu5kt","1280","720","","","","","","","","","","","1508","adj","Inducer trial","","j","6","","true","","","f","0","LEFT","","","","",""
"","call-function","254","665518","0.0-376.0-0.0","qc7hu5kt","","","","","","","","","","","","","","","","","","","","","","","","","","","","","",""
"","html-keyboard-response","255","665824","0.0-376.0-1.0","qc7hu5kt","1280","720","","","","","","","","","","","null","Wrong","Feedback","","null","","","","","","","","","","","","",""
"","call-function","256","665825","0.0-376.0-2.0","qc7hu5kt","","","","","","","","","","","","","","","","","","","","","","","","","","","","","",""
"","html-keyboard-response","257","667329","0.0-377.0","qc7hu5kt","1280","720","","","","","","","","","","","null","+","Fixation - long","","null","","","","","","","","","","","","",""
"","html-keyboard-response","258","680230","0.0-378.0","qc7hu5kt","1280","720","","","","","","","","","","","12900","If wrz press RIGHT | If goj press LEFT","Inducer instructions",""," ","7","","","","","","","","","","","",""
"","html-keyboard-response","259","680991","0.0-379.0","qc7hu5kt","1280","720","","","","","","","","","","","null","+","Fixation - short","","null","","","","","","","","","","","","",""
"","html-keyboard-response","260","681794","0.0-380.0","qc7hu5kt","1280","720","","","","","","","","","","","801","wrz","Diagnostic trial","","j","7","0","false","false","LEFT","f","0","","LEFT","true","","",""
"","call-function","261","681794","0.0-382.0-0.0","qc7hu5kt","","","","","","","","","","","","","","","","","","","","","","","","","","","","","",""
"","html-keyboard-response","262","682099","0.0-382.0-1.0","qc7hu5kt","1280","720","","","","","","","","","","","null","Wrong","Feedback","","null","","","","","","","","","","","","",""
"","call-function","263","682099","0.0-382.0-2.0","qc7hu5kt","","","","","","","","","","","","","","","","","","","","","","","","","","","","","",""
"","html-keyboard-response","264","682854","0.0-383.0","qc7hu5kt","1280","720","","","","","","","","","","","null","+","Fixation - short","","null","","","","","","","","","","","","",""
"","html-keyboard-response","265","684085","0.0-384.0","qc7hu5kt","1280","720","","","","","","","","","","","1230","goj","Diagnostic trial","","j","7","1","false","false","LEFT","f","0","","RIGHT","false","","",""
"","call-function","266","684085","0.0-386.0-0.0","qc7hu5kt","","","","","","","","","","","","","","","","","","","","","","","","","","","","","",""
"","html-keyboard-response","267","684391","0.0-386.0-1.0","qc7hu5kt","1280","720","","","","","","","","","","","null","Wrong","Feedback","","null","","","","","","","","","","","","",""
"","call-function","268","684392","0.0-386.0-2.0","qc7hu5kt","","","","","","","","","","","","","","","","","","","","","","","","","","","","","",""
"","html-keyboard-response","269","685144","0.0-387.0","qc7hu5kt","1280","720","","","","","","","","","","","null","+","Fixation - short","","null","","","","","","","","","","","","",""
"","html-keyboard-response","270","686360","0.0-388.0","qc7hu5kt","1280","720","","","","","","","","","","","1215","wrz","Diagnostic trial","","j","7","2","false","true","RIGHT","j","1","","LEFT","false","","",""
"","html-keyboard-response","271","687127","0.0-391.0","qc7hu5kt","1280","720","","","","","","","","","","","null","+","Fixation - short","","null","","","","","","","","","","","","",""
"","html-keyboard-response","272","688299","0.0-392.0","qc7hu5kt","1280","720","","","","","","","","","","","1171","goj","Diagnostic trial","","f","7","3","false","false","LEFT","f","1","","RIGHT","false","","",""
"","html-keyboard-response","273","689056","0.0-395.0","qc7hu5kt","1280","720","","","","","","","","","","","null","+","Fixation - short","","null","","","","","","","","","","","","",""
"","html-keyboard-response","274","690185","0.0-396.0","qc7hu5kt","1280","720","","","","","","","","","","","1128","goj","Diagnostic trial","","j","7","4","false","true","RIGHT","j","1","","RIGHT","true","","",""
"","html-keyboard-response","275","690942","0.0-399.0","qc7hu5kt","1280","720","","","","","","","","","","","null","+","Fixation - short","","null","","","","","","","","","","","","",""
"","html-keyboard-response","276","692259","0.0-400.0","qc7hu5kt","1280","720","","","","","","","","","","","1315","wrz","Diagnostic trial","","j","7","5","false","false","LEFT","f","0","","LEFT","true","","",""
"","call-function","277","692259","0.0-402.0-0.0","qc7hu5kt","","","","","","","","","","","","","","","","","","","","","","","","","","","","","",""
"","html-keyboard-response","278","692575","0.0-402.0-1.0","qc7hu5kt","1280","720","","","","","","","","","","","null","Wrong","Feedback","","null","","","","","","","","","","","","",""
"","call-function","279","692576","0.0-402.0-2.0","qc7hu5kt","","","","","","","","","","","","","","","","","","","","","","","","","","","","","",""
"","html-keyboard-response","280","693335","0.0-403.0","qc7hu5kt","1280","720","","","","","","","","","","","null","+","Fixation - short","","null","","","","","","","","","","","","",""
"","html-keyboard-response","281","694691","0.0-404.0","qc7hu5kt","1280","720","","","","","","","","","","","1355","goj","Diagnostic trial","","j","7","6","false","false","LEFT","f","0","","RIGHT","false","","",""
"","call-function","282","694691","0.0-406.0-0.0","qc7hu5kt","","","","","","","","","","","","","","","","","","","","","","","","","","","","","",""
"","html-keyboard-response","283","695007","0.0-406.0-1.0","qc7hu5kt","1280","720","","","","","","","","","","","null","Wrong","Feedback","","null","","","","","","","","","","","","",""
"","call-function","284","695008","0.0-406.0-2.0","qc7hu5kt","","","","","","","","","","","","","","","","","","","","","","","","","","","","","",""
"","html-keyboard-response","285","695761","0.0-407.0","qc7hu5kt","1280","720","","","","","","","","","","","null","+","Fixation - short","","null","","","","","","","","","","","","",""
"","html-keyboard-response","286","696492","0.0-408.0","qc7hu5kt","1280","720","","","","","","","","","","","730","goj","Diagnostic trial","","f","7","7","false","false","LEFT","f","1","","RIGHT","false","","",""
"","html-keyboard-response","287","697249","0.0-411.0","qc7hu5kt","1280","720","","","","","","","","","","","null","+","Fixation - short","","null","","","","","","","","","","","","",""
"","html-keyboard-response","288","698321","0.0-412.0","qc7hu5kt","1280","720","","","","","","","","","","","1070","wrz","Diagnostic trial","","j","7","8","false","true","RIGHT","j","1","","LEFT","false","","",""
"","html-keyboard-response","289","699088","0.0-415.0","qc7hu5kt","1280","720","","","","","","","","","","","null","+","Fixation - short","","null","","","","","","","","","","","","",""
"","html-keyboard-response","290","700166","0.0-416.0","qc7hu5kt","1280","720","","","","","","","","","","","1077","wrz","Diagnostic trial","","f","7","9","false","true","RIGHT","j","0","","LEFT","false","","",""
"","call-function","291","700167","0.0-418.0-0.0","qc7hu5kt","","","","","","","","","","","","","","","","","","","","","","","","","","","","","",""
"","html-keyboard-response","292","700475","0.0-418.0-1.0","qc7hu5kt","1280","720","","","","","","","","","","","null","Wrong","Feedback","","null","","","","","","","","","","","","",""
"","call-function","293","700476","0.0-418.0-2.0","qc7hu5kt","","","","","","","","","","","","","","","","","","","","","","","","","","","","","",""
"","html-keyboard-response","294","701242","0.0-419.0","qc7hu5kt","1280","720","","","","","","","","","","","null","+","Fixation - short","","null","","","","","","","","","","","","",""
"","html-keyboard-response","295","702003","0.0-420.0","qc7hu5kt","1280","720","","","","","","","","","","","761","wrz","Diagnostic trial","","j","7","10","false","true","RIGHT","j","1","","LEFT","false","","",""
"","html-keyboard-response","296","702760","0.0-423.0","qc7hu5kt","1280","720","","","","","","","","","","","null","+","Fixation - short","","null","","","","","","","","","","","","",""
"","html-keyboard-response","297","703719","0.0-424.0","qc7hu5kt","1280","720","","","","","","","","","","","958","wrz","Diagnostic trial","","f","7","11","false","false","LEFT","f","1","","LEFT","true","","",""
"","html-keyboard-response","298","704475","0.0-427.0","qc7hu5kt","1280","720","","","","","","","","","","","null","+","Fixation - short","","null","","","","","","","","","","","","",""
"","html-keyboard-response","299","705396","0.0-428.0","qc7hu5kt","1280","720","","","","","","","","","","","920","wrz","Diagnostic trial","","f","7","12","false","false","LEFT","f","1","","LEFT","true","","",""
"","html-keyboard-response","300","706153","0.0-431.0","qc7hu5kt","1280","720","","","","","","","","","","","null","+","Fixation - short","","null","","","","","","","","","","","","",""
"","html-keyboard-response","301","707704","0.0-432.0","qc7hu5kt","1280","720","","","","","","","","","","","1550","goj","Diagnostic trial","","f","7","13","false","true","RIGHT","j","0","","RIGHT","true","","",""
"","call-function","302","707705","0.0-434.0-0.0","qc7hu5kt","","","","","","","","","","","","","","","","","","","","","","","","","","","","","",""
"","html-keyboard-response","303","708009","0.0-434.0-1.0","qc7hu5kt","1280","720","","","","","","","","","","","null","Wrong","Feedback","","null","","","","","","","","","","","","",""
"","call-function","304","708010","0.0-434.0-2.0","qc7hu5kt","","","","","","","","","","","","","","","","","","","","","","","","","","","","","",""
"","html-keyboard-response","305","708770","0.0-435.0","qc7hu5kt","1280","720","","","","","","","","","","","null","+","Fixation - short","","null","","","","","","","","","","","","",""
"","html-keyboard-response","306","709606","0.0-436.0","qc7hu5kt","1280","720","","","","","","","","","","","834","goj","Diagnostic trial","","j","7","14","false","true","RIGHT","j","1","","RIGHT","true","","",""
"","html-keyboard-response","307","710368","0.0-439.0","qc7hu5kt","1280","720","","","","","","","","","","","null","+","Fixation - short","","null","","","","","","","","","","","","",""
"","html-keyboard-response","308","711734","0.0-440.0","qc7hu5kt","1280","720","","","","","","","","","","","1365","wrz","Inducer trial","","j","7","","true","","","j","1","RIGHT","","","","",""
"","html-keyboard-response","309","713240","0.0-443.0","qc7hu5kt","1280","720","","","","","","","","","","","null","+","Fixation - long","","null","","","","","","","","","","","","",""
"","html-keyboard-response","310","726732","0.0-444.0","qc7hu5kt","1280","720","","","","","","","","","","","13490","If gfm press RIGHT | If yoy press LEFT","Inducer instructions",""," ","8","","","","","","","","","","","",""
"","html-keyboard-response","311","727491","0.0-445.0","qc7hu5kt","1280","720","","","","","","","","","","","null","+","Fixation - short","","null","","","","","","","","","","","","",""
"","html-keyboard-response","312","729310","0.0-446.0","qc7hu5kt","1280","720","","","","","","","","","","","1818","yoy","Diagnostic trial","","f","8","0","false","false","LEFT","f","1","","RIGHT","false","","",""
"","html-keyboard-response","313","730067","0.0-449.0","qc7hu5kt","1280","720","","","","","","","","","","","null","+","Fixation - short","","null","","","","","","","","","","","","",""
"","html-keyboard-response","314","732081","0.0-450.0","qc7hu5kt","1280","720","","","","","","","","","","","null","gfm","Diagnostic trial","","null","8","1","false","true","RIGHT","j","NaN","","LEFT","false","","",""
"","call-function","315","732082","0.0-451.0-0.0","qc7hu5kt","","","","","","","","","","","","","","","","","","","","","","","","","","","","","",""
"","html-keyboard-response","316","732395","0.0-451.0-1.0","qc7hu5kt","1280","720","","","","","","","","","","","null","Slow","Feedback","","null","","","","","","","","","","","","",""
"","call-function","317","732396","0.0-451.0-2.0","qc7hu5kt","","","","","","","","","","","","","","","","","","","","","","","","","","","","","",""
"","html-keyboard-response","318","733152","0.0-453.0","qc7hu5kt","1280","720","","","","","","","","","","","null","+","Fixation - short","","null","","","","","","","","","","","","",""
"","html-keyboard-response","319","733840","0.0-454.0","qc7hu5kt","1280","720","","","","","","","","","","","687","gfm","Diagnostic trial","","j","8","2","false","true","RIGHT","j","1","","LEFT","false","","",""
"","html-keyboard-response","320","734592","0.0-457.0","qc7hu5kt","1280","720","","","","","","","","","","","null","+","Fixation - short","","null","","","","","","","","","","","","",""
"","html-keyboard-response","321","735300","0.0-458.0","qc7hu5kt","1280","720","","","","","","","","","","","707","gfm","Diagnostic trial","","j","8","3","false","true","RIGHT","j","1","","LEFT","false","","",""
"","html-keyboard-response","322","736056","0.0-461.0","qc7hu5kt","1280","720","","","","","","","","","","","null","+","Fixation - short","","null","","","","","","","","","","","","",""
"","html-keyboard-response","323","737230","0.0-462.0","qc7hu5kt","1280","720","","","","","","","","","","","1173","yoy","Diagnostic trial","","f","8","4","false","true","RIGHT","j","0","","RIGHT","true","","",""
"","call-function","324","737231","0.0-464.0-0.0","qc7hu5kt","","","","","","","","","","","","","","","","","","","","","","","","","","","","","",""
"","html-keyboard-response","325","737534","0.0-464.0-1.0","qc7hu5kt","1280","720","","","","","","","","","","","null","Wrong","Feedback","","null","","","","","","","","","","","","",""
"","call-function","326","737534","0.0-464.0-2.0","qc7hu5kt","","","","","","","","","","","","","","","","","","","","","","","","","","","","","",""
"","html-keyboard-response","327","738300","0.0-465.0","qc7hu5kt","1280","720","","","","","","","","","","","null","+","Fixation - short","","null","","","","","","","","","","","","",""
"","html-keyboard-response","328","739083","0.0-466.0","qc7hu5kt","1280","720","","","","","","","","","","","782","gfm","Diagnostic trial","","j","8","5","false","true","RIGHT","j","1","","LEFT","false","","",""
"","html-keyboard-response","329","739843","0.0-469.0","qc7hu5kt","1280","720","","","","","","","","","","","null","+","Fixation - short","","null","","","","","","","","","","","","",""
"","html-keyboard-response","330","740595","0.0-470.0","qc7hu5kt","1280","720","","","","","","","","","","","751","gfm","Diagnostic trial","","j","8","6","false","true","RIGHT","j","1","","LEFT","false","","",""
"","html-keyboard-response","331","741359","0.0-473.0","qc7hu5kt","1280","720","","","","","","","","","","","null","+","Fixation - short","","null","","","","","","","","","","","","",""
"","html-keyboard-response","332","742073","0.0-474.0","qc7hu5kt","1280","720","","","","","","","","","","","713","yoy","Diagnostic trial","","j","8","7","false","true","RIGHT","j","1","","RIGHT","true","","",""
"","html-keyboard-response","333","742830","0.0-477.0","qc7hu5kt","1280","720","","","","","","","","","","","null","+","Fixation - short","","null","","","","","","","","","","","","",""
"","html-keyboard-response","334","744314","0.0-478.0","qc7hu5kt","1280","720","","","","","","","","","","","1483","yoy","Diagnostic trial","","f","8","8","false","false","LEFT","f","1","","RIGHT","false","","",""
"","html-keyboard-response","335","745069","0.0-481.0","qc7hu5kt","1280","720","","","","","","","","","","","null","+","Fixation - short","","null","","","","","","","","","","","","",""
"","html-keyboard-response","336","746103","0.0-482.0","qc7hu5kt","1280","720","","","","","","","","","","","1032","gfm","Diagnostic trial","","j","8","9","false","true","RIGHT","j","1","","LEFT","false","","",""
"","html-keyboard-response","337","746859","0.0-485.0","qc7hu5kt","1280","720","","","","","","","","","","","null","+","Fixation - short","","null","","","","","","","","","","","","",""
"","html-keyboard-response","338","748868","0.0-486.0","qc7hu5kt","1280","720","","","","","","","","","","","null","gfm","Diagnostic trial","","null","8","10","false","false","LEFT","f","NaN","","LEFT","true","","",""
"","call-function","339","748869","0.0-487.0-0.0","qc7hu5kt","","","","","","","","","","","","","","","","","","","","","","","","","","","","","",""
"","html-keyboard-response","340","749181","0.0-487.0-1.0","qc7hu5kt","1280","720","","","","","","","","","","","null","Slow","Feedback","","null","","","","","","","","","","","","",""
"","call-function","341","749181","0.0-487.0-2.0","qc7hu5kt","","","","","","","","","","","","","","","","","","","","","","","","","","","","","",""
"","html-keyboard-response","342","749940","0.0-489.0","qc7hu5kt","1280","720","","","","","","","","","","","null","+","Fixation - short","","null","","","","","","","","","","","","",""
"","html-keyboard-response","343","751035","0.0-490.0","qc7hu5kt","1280","720","","","","","","","","","","","1094","gfm","Inducer trial","","f","8","","true","","","j","0","RIGHT","","","","",""
"","call-function","344","751036","0.0-492.0-0.0","qc7hu5kt","","","","","","","","","","","","","","","","","","","","","","","","","","","","","",""
"","html-keyboard-response","345","751340","0.0-492.0-1.0","qc7hu5kt","1280","720","","","","","","","","","","","null","Wrong","Feedback","","null","","","","","","","","","","","","",""
"","call-function","346","751341","0.0-492.0-2.0","qc7hu5kt","","","","","","","","","","","","","","","","","","","","","","","","","","","","","",""
"","html-keyboard-response","347","752843","0.0-493.0","qc7hu5kt","1280","720","","","","","","","","","","","null","+","Fixation - long","","null","","","","","","","","","","","","",""
"","html-keyboard-response","348","765944","0.0-494.0","qc7hu5kt","1280","720","","","","","","","","","","","13100","If kue press RIGHT | If pph press LEFT","Inducer instructions",""," ","9","","","","","","","","","","","",""
"","html-keyboard-response","349","766708","0.0-495.0","qc7hu5kt","1280","720","","","","","","","","","","","null","+","Fixation - short","","null","","","","","","","","","","","","",""
"","html-keyboard-response","350","767642","0.0-496.0","qc7hu5kt","1280","720","","","","","","","","","","","933","kue","Diagnostic trial","","j","9","0","false","true","RIGHT","j","1","","LEFT","false","","",""
"","html-keyboard-response","351","768398","0.0-499.0","qc7hu5kt","1280","720","","","","","","","","","","","null","+","Fixation - short","","null","","","","","","","","","","","","",""
"","html-keyboard-response","352","770406","0.0-500.0","qc7hu5kt","1280","720","","","","","","","","","","","null","pph","Diagnostic trial","","null","9","1","false","true","RIGHT","j","NaN","","RIGHT","true","","",""
"","call-function","353","770407","0.0-501.0-0.0","qc7hu5kt","","","","","","","","","","","","","","","","","","","","","","","","","","","","","",""
"","html-keyboard-response","354","770723","0.0-501.0-1.0","qc7hu5kt","1280","720","","","","","","","","","","","null","Slow","Feedback","","null","","","","","","","","","","","","",""
"","call-function","355","770723","0.0-501.0-2.0","qc7hu5kt","","","","","","","","","","","","","","","","","","","","","","","","","","","","","",""
"","html-keyboard-response","356","771485","0.0-503.0","qc7hu5kt","1280","720","","","","","","","","","","","null","+","Fixation - short","","null","","","","","","","","","","","","",""
"","html-keyboard-response","357","772513","0.0-504.0","qc7hu5kt","1280","720","","","","","","","","","","","1027","kue","Diagnostic trial","","f","9","2","false","false","LEFT","f","1","","LEFT","true","","",""
"","html-keyboard-response","358","773276","0.0-507.0","qc7hu5kt","1280","720","","","","","","","","","","","null","+","Fixation - short","","null","","","","","","","","","","","","",""
"","html-keyboard-response","359","774027","0.0-508.0","qc7hu5kt","1280","720","","","","","","","","","","","750","kue","Diagnostic trial","","f","9","3","false","false","LEFT","f","1","","LEFT","true","","",""
"","html-keyboard-response","360","774784","0.0-511.0","qc7hu5kt","1280","720","","","","","","","","","","","null","+","Fixation - short","","null","","","","","","","","","","","","",""
"","html-keyboard-response","361","776538","0.0-512.0","qc7hu5kt","1280","720","","","","","","","","","","","1753","pph","Diagnostic trial","","j","9","4","false","false","LEFT","f","0","","RIGHT","false","","",""
"","call-function","362","776538","0.0-514.0-0.0","qc7hu5kt","","","","","","","","","","","","","","","","","","","","","","","","","","","","","",""
"","html-keyboard-response","363","776841","0.0-514.0-1.0","qc7hu5kt","1280","720","","","","","","","","","","","null","Wrong","Feedback","","null","","","","","","","","","","","","",""
"","call-function","364","776842","0.0-514.0-2.0","qc7hu5kt","","","","","","","","","","","","","","","","","","","","","","","","","","","","","",""
"","html-keyboard-response","365","777602","0.0-515.0","qc7hu5kt","1280","720","","","","","","","","","","","null","+","Fixation - short","","null","","","","","","","","","","","","",""
"","html-keyboard-response","366","778225","0.0-516.0","qc7hu5kt","1280","720","","","","","","","","","","","623","kue","Diagnostic trial","","j","9","5","false","true","RIGHT","j","1","","LEFT","false","","",""
"","html-keyboard-response","367","778982","0.0-519.0","qc7hu5kt","1280","720","","","","","","","","","","","null","+","Fixation - short","","null","","","","","","","","","","","","",""
"","html-keyboard-response","368","780816","0.0-520.0","qc7hu5kt","1280","720","","","","","","","","","","","1832","pph","Inducer trial","","f","9","","true","","","f","1","LEFT","","","","",""
"","html-keyboard-response","369","782318","0.0-523.0","qc7hu5kt","1280","720","","","","","","","","","","","null","+","Fixation - long","","null","","","","","","","","","","","","",""
"","html-keyboard-response","370","788689","0.0-524.0","qc7hu5kt","1280","720","","","","","","","","","","","6370","If ecl press RIGHT | If feg press LEFT","Inducer instructions",""," ","10","","","","","","","","","","","",""
"","html-keyboard-response","371","789449","0.0-525.0","qc7hu5kt","1280","720","","","","","","","","","","","null","+","Fixation - short","","null","","","","","","","","","","","","",""
"","html-keyboard-response","372","790486","0.0-526.0","qc7hu5kt","1280","720","","","","","","","","","","","1036","ecl","Diagnostic trial","","j","10","0","false","false","LEFT","f","0","","LEFT","true","","",""
"","call-function","373","790486","0.0-528.0-0.0","qc7hu5kt","","","","","","","","","","","","","","","","","","","","","","","","","","","","","",""
"","html-keyboard-response","374","790800","0.0-528.0-1.0","qc7hu5kt","1280","720","","","","","","","","","","","null","Wrong","Feedback","","null","","","","","","","","","","","","",""
"","call-function","375","790800","0.0-528.0-2.0","qc7hu5kt","","","","","","","","","","","","","","","","","","","","","","","","","","","","","",""
"","html-keyboard-response","376","791555","0.0-529.0","qc7hu5kt","1280","720","","","","","","","","","","","null","+","Fixation - short","","null","","","","","","","","","","","","",""
"","html-keyboard-response","377","792571","0.0-530.0","qc7hu5kt","1280","720","","","","","","","","","","","1014","ecl","Diagnostic trial","","j","10","1","false","true","RIGHT","j","1","","LEFT","false","","",""
"","html-keyboard-response","378","793326","0.0-533.0","qc7hu5kt","1280","720","","","","","","","","","","","null","+","Fixation - short","","null","","","","","","","","","","","","",""
"","html-keyboard-response","379","794511","0.0-534.0","qc7hu5kt","1280","720","","","","","","","","","","","1183","ecl","Diagnostic trial","","f","10","2","false","false","LEFT","f","1","","LEFT","true","","",""
"","html-keyboard-response","380","795275","0.0-537.0","qc7hu5kt","1280","720","","","","","","","","","","","null","+","Fixation - short","","null","","","","","","","","","","","","",""
"","html-keyboard-response","381","796051","0.0-538.0","qc7hu5kt","1280","720","","","","","","","","","","","775","ecl","Diagnostic trial","","j","10","3","false","true","RIGHT","j","1","","LEFT","false","","",""
"","html-keyboard-response","382","796809","0.0-541.0","qc7hu5kt","1280","720","","","","","","","","","","","null","+","Fixation - short","","null","","","","","","","","","","","","",""
"","html-keyboard-response","383","797468","0.0-542.0","qc7hu5kt","1280","720","","","","","","","","","","","658","ecl","Diagnostic trial","","j","10","4","false","true","RIGHT","j","1","","LEFT","false","","",""
"","html-keyboard-response","384","798226","0.0-545.0","qc7hu5kt","1280","720","","","","","","","","","","","null","+","Fixation - short","","null","","","","","","","","","","","","",""
"","html-keyboard-response","385","799730","0.0-546.0","qc7hu5kt","1280","720","","","","","","","","","","","1503","feg","Diagnostic trial","","f","10","5","false","false","LEFT","f","1","","RIGHT","false","","",""
"","html-keyboard-response","386","800483","0.0-549.0","qc7hu5kt","1280","720","","","","","","","","","","","null","+","Fixation - short","","null","","","","","","","","","","","","",""
"","html-keyboard-response","387","802348","0.0-550.0","qc7hu5kt","1280","720","","","","","","","","","","","1864","ecl","Diagnostic trial","","j","10","6","false","false","LEFT","f","0","","LEFT","true","","",""
"","call-function","388","802349","0.0-552.0-0.0","qc7hu5kt","","","","","","","","","","","","","","","","","","","","","","","","","","","","","",""
"","html-keyboard-response","389","802665","0.0-552.0-1.0","qc7hu5kt","1280","720","","","","","","","","","","","null","Wrong","Feedback","","null","","","","","","","","","","","","",""
"","call-function","390","802666","0.0-552.0-2.0","qc7hu5kt","","","","","","","","","","","","","","","","","","","","","","","","","","","","","",""
"","html-keyboard-response","391","803425","0.0-553.0","qc7hu5kt","1280","720","","","","","","","","","","","null","+","Fixation - short","","null","","","","","","","","","","","","",""
"","html-keyboard-response","392","804887","0.0-554.0","qc7hu5kt","1280","720","","","","","","","","","","","1461","feg","Diagnostic trial","","f","10","7","false","true","RIGHT","j","0","","RIGHT","true","","",""
"","call-function","393","804887","0.0-556.0-0.0","qc7hu5kt","","","","","","","","","","","","","","","","","","","","","","","","","","","","","",""
"","html-keyboard-response","394","805198","0.0-556.0-1.0","qc7hu5kt","1280","720","","","","","","","","","","","null","Wrong","Feedback","","null","","","","","","","","","","","","",""
"","call-function","395","805198","0.0-556.0-2.0","qc7hu5kt","","","","","","","","","","","","","","","","","","","","","","","","","","","","","",""
"","html-keyboard-response","396","805956","0.0-557.0","qc7hu5kt","1280","720","","","","","","","","","","","null","+","Fixation - short","","null","","","","","","","","","","","","",""
"","html-keyboard-response","397","807960","0.0-558.0","qc7hu5kt","1280","720","","","","","","","","","","","null","ecl","Diagnostic trial","","null","10","8","false","false","LEFT","f","NaN","","LEFT","true","","",""
"","call-function","398","807960","0.0-559.0-0.0","qc7hu5kt","","","","","","","","","","","","","","","","","","","","","","","","","","","","","",""
"","html-keyboard-response","399","808266","0.0-559.0-1.0","qc7hu5kt","1280","720","","","","","","","","","","","null","Slow","Feedback","","null","","","","","","","","","","","","",""
"","call-function","400","808266","0.0-559.0-2.0","qc7hu5kt","","","","","","","","","","","","","","","","","","","","","","","","","","","","","",""
"","html-keyboard-response","401","809019","0.0-561.0","qc7hu5kt","1280","720","","","","","","","","","","","null","+","Fixation - short","","null","","","","","","","","","","","","",""
"","html-keyboard-response","402","809964","0.0-562.0","qc7hu5kt","1280","720","","","","","","","","","","","944","ecl","Inducer trial","","f","10","","true","","","j","0","RIGHT","","","","",""
"","call-function","403","809965","0.0-564.0-0.0","qc7hu5kt","","","","","","","","","","","","","","","","","","","","","","","","","","","","","",""
"","html-keyboard-response","404","810270","0.0-564.0-1.0","qc7hu5kt","1280","720","","","","","","","","","","","null","Wrong","Feedback","","null","","","","","","","","","","","","",""
"","call-function","405","810271","0.0-564.0-2.0","qc7hu5kt","","","","","","","","","","","","","","","","","","","","","","","","","","","","","",""
"","html-keyboard-response","406","811785","0.0-565.0","qc7hu5kt","1280","720","","","","","","","","","","","null","+","Fixation - long","","null","","","","","","","","","","","","",""
"","html-keyboard-response","407","829273","0.0-566.0","qc7hu5kt","1280","720","","","","","","","","","","","17487","If mts press RIGHT | If vrm press LEFT","Inducer instructions",""," ","11","","","","","","","","","","","",""
"","html-keyboard-response","408","830025","0.0-567.0","qc7hu5kt","1280","720","","","","","","","","","","","null","+","Fixation - short","","null","","","","","","","","","","","","",""
"","html-keyboard-response","409","831251","0.0-568.0","qc7hu5kt","1280","720","","","","","","","","","","","1224","vrm","Diagnostic trial","","f","11","0","false","true","RIGHT","j","0","","RIGHT","true","","",""
"","call-function","410","831251","0.0-570.0-0.0","qc7hu5kt","","","","","","","","","","","","","","","","","","","","","","","","","","","","","",""
"","html-keyboard-response","411","831558","0.0-570.0-1.0","qc7hu5kt","1280","720","","","","","","","","","","","null","Wrong","Feedback","","null","","","","","","","","","","","","",""
"","call-function","412","831558","0.0-570.0-2.0","qc7hu5kt","","","","","","","","","","","","","","","","","","","","","","","","","","","","","",""
"","html-keyboard-response","413","832318","0.0-571.0","qc7hu5kt","1280","720","","","","","","","","","","","null","+","Fixation - short","","null","","","","","","","","","","","","",""
"","html-keyboard-response","414","833033","0.0-572.0","qc7hu5kt","1280","720","","","","","","","","","","","714","vrm","Diagnostic trial","","j","11","1","false","true","RIGHT","j","1","","RIGHT","true","","",""
"","html-keyboard-response","415","833790","0.0-575.0","qc7hu5kt","1280","720","","","","","","","","","","","null","+","Fixation - short","","null","","","","","","","","","","","","",""
"","html-keyboard-response","416","835799","0.0-576.0","qc7hu5kt","1280","720","","","","","","","","","","","null","mts","Diagnostic trial","","null","11","2","false","false","LEFT","f","NaN","","LEFT","true","","",""
"","call-function","417","835799","0.0-577.0-0.0","qc7hu5kt","","","","","","","","","","","","","","","","","","","","","","","","","","","","","",""
"","html-keyboard-response","418","836114","0.0-577.0-1.0","qc7hu5kt","1280","720","","","","","","","","","","","null","Slow","Feedback","","null","","","","","","","","","","","","",""
"","call-function","419","836115","0.0-577.0-2.0","qc7hu5kt","","","","","","","","","","","","","","","","","","","","","","","","","","","","","",""
"","html-keyboard-response","420","836881","0.0-579.0","qc7hu5kt","1280","720","","","","","","","","","","","null","+","Fixation - short","","null","","","","","","","","","","","","",""
"","html-keyboard-response","421","838778","0.0-580.0","qc7hu5kt","1280","720","","","","","","","","","","","1897","vrm","Diagnostic trial","","j","11","3","false","true","RIGHT","j","1","","RIGHT","true","","",""
"","html-keyboard-response","422","839536","0.0-583.0","qc7hu5kt","1280","720","","","","","","","","","","","null","+","Fixation - short","","null","","","","","","","","","","","","",""
"","html-keyboard-response","423","840396","0.0-584.0","qc7hu5kt","1280","720","","","","","","","","","","","859","vrm","Diagnostic trial","","j","11","4","false","true","RIGHT","j","1","","RIGHT","true","","",""
"","html-keyboard-response","424","841159","0.0-587.0","qc7hu5kt","1280","720","","","","","","","","","","","null","+","Fixation - short","","null","","","","","","","","","","","","",""
"","html-keyboard-response","425","842313","0.0-588.0","qc7hu5kt","1280","720","","","","","","","","","","","1153","mts","Diagnostic trial","","j","11","5","false","true","RIGHT","j","1","","LEFT","false","","",""
"","html-keyboard-response","426","843073","0.0-591.0","qc7hu5kt","1280","720","","","","","","","","","","","null","+","Fixation - short","","null","","","","","","","","","","","","",""
"","html-keyboard-response","427","844530","0.0-592.0","qc7hu5kt","1280","720","","","","","","","","","","","1456","vrm","Inducer trial","","f","11","","true","","","f","1","LEFT","","","","",""
"","html-keyboard-response","428","846045","0.0-595.0","qc7hu5kt","1280","720","","","","","","","","","","","null","+","Fixation - long","","null","","","","","","","","","","","","",""
"","html-keyboard-response","429","853089","0.0-596.0","qc7hu5kt","1280","720","","","","","","","","","","","7043","If pmf press RIGHT | If rif press LEFT","Inducer instructions",""," ","12","","","","","","","","","","","",""
"","html-keyboard-response","430","853847","0.0-597.0","qc7hu5kt","1280","720","","","","","","","","","","","null","+","Fixation - short","","null","","","","","","","","","","","","",""
"","html-keyboard-response","431","855362","0.0-598.0","qc7hu5kt","1280","720","","","","","","","","","","","1514","rif","Diagnostic trial","","f","12","0","false","true","RIGHT","j","0","","RIGHT","true","","",""
"","call-function","432","855363","0.0-600.0-0.0","qc7hu5kt","","","","","","","","","","","","","","","","","","","","","","","","","","","","","",""
"","html-keyboard-response","433","855672","0.0-600.0-1.0","qc7hu5kt","1280","720","","","","","","","","","","","null","Wrong","Feedback","","null","","","","","","","","","","","","",""
"","call-function","434","855672","0.0-600.0-2.0","qc7hu5kt","","","","","","","","","","","","","","","","","","","","","","","","","","","","","",""
"","html-keyboard-response","435","856427","0.0-601.0","qc7hu5kt","1280","720","","","","","","","","","","","null","+","Fixation - short","","null","","","","","","","","","","","","",""
"","html-keyboard-response","436","858027","0.0-602.0","qc7hu5kt","1280","720","","","","","","","","","","","1599","pmf","Diagnostic trial","","f","12","1","false","false","LEFT","f","1","","LEFT","true","","",""
"","html-keyboard-response","437","858793","0.0-605.0","qc7hu5kt","1280","720","","","","","","","","","","","null","+","Fixation - short","","null","","","","","","","","","","","","",""
"","html-keyboard-response","438","860105","0.0-606.0","qc7hu5kt","1280","720","","","","","","","","","","","1311","rif","Diagnostic trial","","f","12","2","false","false","LEFT","f","1","","RIGHT","false","","",""
"","html-keyboard-response","439","860860","0.0-609.0","qc7hu5kt","1280","720","","","","","","","","","","","null","+","Fixation - short","","null","","","","","","","","","","","","",""
"","html-keyboard-response","440","861609","0.0-610.0","qc7hu5kt","1280","720","","","","","","","","","","","748","pmf","Diagnostic trial","","j","12","3","false","true","RIGHT","j","1","","LEFT","false","","",""
"","html-keyboard-response","441","862373","0.0-613.0","qc7hu5kt","1280","720","","","","","","","","","","","null","+","Fixation - short","","null","","","","","","","","","","","","",""
"","html-keyboard-response","442","863334","0.0-614.0","qc7hu5kt","1280","720","","","","","","","","","","","960","rif","Diagnostic trial","","f","12","4","false","false","LEFT","f","1","","RIGHT","false","","",""
"","html-keyboard-response","443","864095","0.0-617.0","qc7hu5kt","1280","720","","","","","","","","","","","null","+","Fixation - short","","null","","","","","","","","","","","","",""
"","html-keyboard-response","444","864781","0.0-618.0","qc7hu5kt","1280","720","","","","","","","","","","","684","pmf","Diagnostic trial","","j","12","5","false","true","RIGHT","j","1","","LEFT","false","","",""
"","html-keyboard-response","445","865538","0.0-621.0","qc7hu5kt","1280","720","","","","","","","","","","","null","+","Fixation - short","","null","","","","","","","","","","","","",""
"","html-keyboard-response","446","866087","0.0-622.0","qc7hu5kt","1280","720","","","","","","","","","","","548","pmf","Diagnostic trial","","j","12","6","false","true","RIGHT","j","1","","LEFT","false","","",""
"","html-keyboard-response","447","866852","0.0-625.0","qc7hu5kt","1280","720","","","","","","","","","","","null","+","Fixation - short","","null","","","","","","","","","","","","",""
"","html-keyboard-response","448","867494","0.0-626.0","qc7hu5kt","1280","720","","","","","","","","","","","641","pmf","Diagnostic trial","","f","12","7","false","false","LEFT","f","1","","LEFT","true","","",""
"","html-keyboard-response","449","868251","0.0-629.0","qc7hu5kt","1280","720","","","","","","","","","","","null","+","Fixation - short","","null","","","","","","","","","","","","",""
"","html-keyboard-response","450","868745","0.0-630.0","qc7hu5kt","1280","720","","","","","","","","","","","493","pmf","Diagnostic trial","","j","12","8","false","true","RIGHT","j","1","","LEFT","false","","",""
"","html-keyboard-response","451","869511","0.0-633.0","qc7hu5kt","1280","720","","","","","","","","","","","null","+","Fixation - short","","null","","","","","","","","","","","","",""
"","html-keyboard-response","452","870139","0.0-634.0","qc7hu5kt","1280","720","","","","","","","","","","","627","rif","Diagnostic trial","","f","12","9","false","false","LEFT","f","1","","RIGHT","false","","",""
"","html-keyboard-response","453","870899","0.0-637.0","qc7hu5kt","1280","720","","","","","","","","","","","null","+","Fixation - short","","null","","","","","","","","","","","","",""
"","html-keyboard-response","454","871472","0.0-638.0","qc7hu5kt","1280","720","","","","","","","","","","","572","pmf","Diagnostic trial","","f","12","10","false","false","LEFT","f","1","","LEFT","true","","",""
"","html-keyboard-response","455","872235","0.0-641.0","qc7hu5kt","1280","720","","","","","","","","","","","null","+","Fixation - short","","null","","","","","","","","","","","","",""
"","html-keyboard-response","456","872849","0.0-642.0","qc7hu5kt","1280","720","","","","","","","","","","","613","rif","Diagnostic trial","","f","12","11","false","false","LEFT","f","1","","RIGHT","false","","",""
"","html-keyboard-response","457","873606","0.0-645.0","qc7hu5kt","1280","720","","","","","","","","","","","null","+","Fixation - short","","null","","","","","","","","","","","","",""
"","html-keyboard-response","458","874082","0.0-646.0","qc7hu5kt","1280","720","","","","","","","","","","","474","pmf","Diagnostic trial","","f","12","12","false","false","LEFT","f","1","","LEFT","true","","",""
"","html-keyboard-response","459","874849","0.0-649.0","qc7hu5kt","1280","720","","","","","","","","","","","null","+","Fixation - short","","null","","","","","","","","","","","","",""
"","html-keyboard-response","460","875421","0.0-650.0","qc7hu5kt","1280","720","","","","","","","","","","","571","rif","Diagnostic trial","","j","12","13","false","true","RIGHT","j","1","","RIGHT","true","","",""
"","html-keyboard-response","461","876185","0.0-653.0","qc7hu5kt","1280","720","","","","","","","","","","","null","+","Fixation - short","","null","","","","","","","","","","","","",""
"","html-keyboard-response","462","876792","0.0-654.0","qc7hu5kt","1280","720","","","","","","","","","","","605","rif","Diagnostic trial","","j","12","14","false","true","RIGHT","j","1","","RIGHT","true","","",""
"","html-keyboard-response","463","877549","0.0-657.0","qc7hu5kt","1280","720","","","","","","","","","","","null","+","Fixation - short","","null","","","","","","","","","","","","",""
"","html-keyboard-response","464","879039","0.0-658.0","qc7hu5kt","1280","720","","","","","","","","","","","1488","pmf","Inducer trial","","j","12","","true","","","j","1","RIGHT","","","","",""
"","html-keyboard-response","465","880549","0.0-661.0","qc7hu5kt","1280","720","","","","","","","","","","","null","+","Fixation - long","","null","","","","","","","","","","","","",""
"","html-keyboard-response","466","887782","0.0-662.0","qc7hu5kt","1280","720","","","","","","","","","","","7231","If dpa press RIGHT | If mvv press LEFT","Inducer instructions",""," ","13","","","","","","","","","","","",""
"","html-keyboard-response","467","888541","0.0-663.0","qc7hu5kt","1280","720","","","","","","","","","","","null","+","Fixation - short","","null","","","","","","","","","","","","",""
"","html-keyboard-response","468","890429","0.0-664.0","qc7hu5kt","1280","720","","","","","","","","","","","1887","dpa","Diagnostic trial","","f","13","0","false","false","LEFT","f","1","","LEFT","true","","",""
"","html-keyboard-response","469","891190","0.0-667.0","qc7hu5kt","1280","720","","","","","","","","","","","null","+","Fixation - short","","null","","","","","","","","","","","","",""
"","html-keyboard-response","470","892163","0.0-668.0","qc7hu5kt","1280","720","","","","","","","","","","","972","mvv","Diagnostic trial","","f","13","1","false","false","LEFT","f","1","","RIGHT","false","","",""
"","html-keyboard-response","471","892928","0.0-671.0","qc7hu5kt","1280","720","","","","","","","","","","","null","+","Fixation - short","","null","","","","","","","","","","","","",""
"","html-keyboard-response","472","893663","0.0-672.0","qc7hu5kt","1280","720","","","","","","","","","","","733","dpa","Diagnostic trial","","j","13","2","false","true","RIGHT","j","1","","LEFT","false","","",""
"","html-keyboard-response","473","894429","0.0-675.0","qc7hu5kt","1280","720","","","","","","","","","","","null","+","Fixation - short","","null","","","","","","","","","","","","",""
"","html-keyboard-response","474","895786","0.0-676.0","qc7hu5kt","1280","720","","","","","","","","","","","1356","mvv","Diagnostic trial","","j","13","3","false","true","RIGHT","j","1","","RIGHT","true","","",""
"","html-keyboard-response","475","896543","0.0-679.0","qc7hu5kt","1280","720","","","","","","","","","","","null","+","Fixation - short","","null","","","","","","","","","","","","",""
"","html-keyboard-response","476","897145","0.0-680.0","qc7hu5kt","1280","720","","","","","","","","","","","601","dpa","Diagnostic trial","","j","13","4","false","true","RIGHT","j","1","","LEFT","false","","",""
"","html-keyboard-response","477","897906","0.0-683.0","qc7hu5kt","1280","720","","","","","","","","","","","null","+","Fixation - short","","null","","","","","","","","","","","","",""
"","html-keyboard-response","478","898373","0.0-684.0","qc7hu5kt","1280","720","","","","","","","","","","","466","dpa","Diagnostic trial","","j","13","5","false","true","RIGHT","j","1","","LEFT","false","","",""
"","html-keyboard-response","479","899140","0.0-687.0","qc7hu5kt","1280","720","","","","","","","","","","","null","+","Fixation - short","","null","","","","","","","","","","","","",""
"","html-keyboard-response","480","899597","0.0-688.0","qc7hu5kt","1280","720","","","","","","","","","","","455","dpa","Diagnostic trial","","j","13","6","false","true","RIGHT","j","1","","LEFT","false","","",""
"","html-keyboard-response","481","900354","0.0-691.0","qc7hu5kt","1280","720","","","","","","","","","","","null","+","Fixation - short","","null","","","","","","","","","","","","",""
"","html-keyboard-response","482","900994","0.0-692.0","qc7hu5kt","1280","720","","","","","","","","","","","639","dpa","Diagnostic trial","","f","13","7","false","false","LEFT","f","1","","LEFT","true","","",""
"","html-keyboard-response","483","901757","0.0-695.0","qc7hu5kt","1280","720","","","","","","","","","","","null","+","Fixation - short","","null","","","","","","","","","","","","",""
"","html-keyboard-response","484","902297","0.0-696.0","qc7hu5kt","1280","720","","","","","","","","","","","540","mvv","Diagnostic trial","","j","13","8","false","true","RIGHT","j","1","","RIGHT","true","","",""
"","html-keyboard-response","485","903057","0.0-699.0","qc7hu5kt","1280","720","","","","","","","","","","","null","+","Fixation - short","","null","","","","","","","","","","","","",""
"","html-keyboard-response","486","903533","0.0-700.0","qc7hu5kt","1280","720","","","","","","","","","","","475","dpa","Diagnostic trial","","j","13","9","false","true","RIGHT","j","1","","LEFT","false","","",""
"","html-keyboard-response","487","904289","0.0-703.0","qc7hu5kt","1280","720","","","","","","","","","","","null","+","Fixation - short","","null","","","","","","","","","","","","",""
"","html-keyboard-response","488","904825","0.0-704.0","qc7hu5kt","1280","720","","","","","","","","","","","535","mvv","Diagnostic trial","","j","13","10","false","true","RIGHT","j","1","","RIGHT","true","","",""
"","html-keyboard-response","489","905588","0.0-707.0","qc7hu5kt","1280","720","","","","","","","","","","","null","+","Fixation - short","","null","","","","","","","","","","","","",""
"","html-keyboard-response","490","906041","0.0-708.0","qc7hu5kt","1280","720","","","","","","","","","","","452","mvv","Diagnostic trial","","j","13","11","false","true","RIGHT","j","1","","RIGHT","true","","",""
"","html-keyboard-response","491","906799","0.0-711.0","qc7hu5kt","1280","720","","","","","","","","","","","null","+","Fixation - short","","null","","","","","","","","","","","","",""
"","html-keyboard-response","492","907455","0.0-712.0","qc7hu5kt","1280","720","","","","","","","","","","","655","mvv","Diagnostic trial","","f","13","12","false","false","LEFT","f","1","","RIGHT","false","","",""
"","html-keyboard-response","493","908212","0.0-715.0","qc7hu5kt","1280","720","","","","","","","","","","","null","+","Fixation - short","","null","","","","","","","","","","","","",""
"","html-keyboard-response","494","908719","0.0-716.0","qc7hu5kt","1280","720","","","","","","","","","","","506","dpa","Diagnostic trial","","j","13","13","false","true","RIGHT","j","1","","LEFT","false","","",""
"","html-keyboard-response","495","909486","0.0-719.0","qc7hu5kt","1280","720","","","","","","","","","","","null","+","Fixation - short","","null","","","","","","","","","","","","",""
"","html-keyboard-response","496","910221","0.0-720.0","qc7hu5kt","1280","720","","","","","","","","","","","734","mvv","Diagnostic trial","","f","13","14","false","false","LEFT","f","1","","RIGHT","false","","",""
"","html-keyboard-response","497","910979","0.0-723.0","qc7hu5kt","1280","720","","","","","","","","","","","null","+","Fixation - short","","null","","","","","","","","","","","","",""
"","html-keyboard-response","498","911626","0.0-724.0","qc7hu5kt","1280","720","","","","","","","","","","","645","dpa","Diagnostic trial","","j","13","15","false","true","RIGHT","j","1","","LEFT","false","","",""
"","html-keyboard-response","499","912378","0.0-727.0","qc7hu5kt","1280","720","","","","","","","","","","","null","+","Fixation - short","","null","","","","","","","","","","","","",""
"","html-keyboard-response","500","913391","0.0-728.0","qc7hu5kt","1280","720","","","","","","","","","","","1012","dpa","Inducer trial","","j","13","","true","","","j","1","RIGHT","","","","",""
"","html-keyboard-response","501","914908","0.0-731.0","qc7hu5kt","1280","720","","","","","","","","","","","null","+","Fixation - long","","null","","","","","","","","","","","","",""
"","html-keyboard-response","502","922238","0.0-732.0","qc7hu5kt","1280","720","","","","","","","","","","","7329","If anz press RIGHT | If vle press LEFT","Inducer instructions",""," ","14","","","","","","","","","","","",""
"","html-keyboard-response","503","922998","0.0-733.0","qc7hu5kt","1280","720","","","","","","","","","","","null","+","Fixation - short","","null","","","","","","","","","","","","",""
"","html-keyboard-response","504","924078","0.0-734.0","qc7hu5kt","1280","720","","","","","","","","","","","1078","anz","Diagnostic trial","","j","14","0","false","true","RIGHT","j","1","","LEFT","false","","",""
"","html-keyboard-response","505","924835","0.0-737.0","qc7hu5kt","1280","720","","","","","","","","","","","null","+","Fixation - short","","null","","","","","","","","","","","","",""
"","html-keyboard-response","506","925506","0.0-738.0","qc7hu5kt","1280","720","","","","","","","","","","","670","anz","Diagnostic trial","","f","14","1","false","false","LEFT","f","1","","LEFT","true","","",""
"","html-keyboard-response","507","926262","0.0-741.0","qc7hu5kt","1280","720","","","","","","","","","","","null","+","Fixation - short","","null","","","","","","","","","","","","",""
"","html-keyboard-response","508","927002","0.0-742.0","qc7hu5kt","1280","720","","","","","","","","","","","739","anz","Diagnostic trial","","f","14","2","false","false","LEFT","f","1","","LEFT","true","","",""
"","html-keyboard-response","509","927764","0.0-745.0","qc7hu5kt","1280","720","","","","","","","","","","","null","+","Fixation - short","","null","","","","","","","","","","","","",""
"","html-keyboard-response","510","928324","0.0-746.0","qc7hu5kt","1280","720","","","","","","","","","","","559","anz","Diagnostic trial","","f","14","3","false","false","LEFT","f","1","","LEFT","true","","",""
"","html-keyboard-response","511","929080","0.0-749.0","qc7hu5kt","1280","720","","","","","","","","","","","null","+","Fixation - short","","null","","","","","","","","","","","","",""
"","html-keyboard-response","512","929591","0.0-750.0","qc7hu5kt","1280","720","","","","","","","","","","","509","anz","Diagnostic trial","","f","14","4","false","false","LEFT","f","1","","LEFT","true","","",""
"","html-keyboard-response","513","930348","0.0-753.0","qc7hu5kt","1280","720","","","","","","","","","","","null","+","Fixation - short","","null","","","","","","","","","","","","",""
"","html-keyboard-response","514","931350","0.0-754.0","qc7hu5kt","1280","720","","","","","","","","","","","1001","vle","Diagnostic trial","","j","14","5","false","true","RIGHT","j","1","","RIGHT","true","","",""
