"value","trial_type","trial_index","time_elapsed","internal_node_id","id","width","height","webaudio","browser","browser_version","mobile","os","fullscreen","vsync_rate","webcam","microphone","view_history","rt","stimulus","trial_info","success","response","inducer_run","diagnostic_run","inducer_trial","italic","correct_diag_response_side","correct_response_key","correct_response","correct_indu_response_side","correct_inducer_response_side","congruent","accuracy","open_feedback","interactive"
"","call-function","0","3","0.0-0.0","7h089edp","","","","","","","","","","","","","","","","","","","","","","","","","","","","","",""
"","browser-check","1","1005","0.0-1.0","7h089edp","1920","919","true","chrome","121.0.0","false","Windows 10","true","60.24","true","true","","","","","","","","","","","","","","","","","","",""
"","instructions","2","47385","0.0-2.0","7h089edp","","","","","","","","","","","","[{""page_index"":0,""viewing_time"":16564},{""page_index"":1,""viewing_time"":22471},{""page_index"":2,""viewing_time"":7343}]","46379","The experiment and consent","The experiment and consent","","","","","","","","","","","","","","",""
"","fullscreen","3","56663","0.0-3.0","7h089edp","1920","1080","","","","","","","","","","","8264","","Full screen","true","","","","","","","","","","","","","",""
"","instructions","4","92835","0.0-4.0","7h089edp","1920","1080","","","","","","","","","","[{""page_index"":0,""viewing_time"":27906},{""page_index"":1,""viewing_time"":8265}]","36171","Instructions","Basic overview explanation","","","","","","","","","","","","","","",""
"","html-keyboard-response","5","105084","0.0-5.0","7h089edp","1920","1080","","","","","","","","","","","10738","If italic press RIGHT | If upright press LEFT","Diagnostic instructions",""," ","","","","","","","","","","","","",""
"","html-keyboard-response","6","105850","0.0-6.0","7h089edp","1920","1080","","","","","","","","","","","null","+","Fixation - short","","null","","","","","","","","","","","","",""
"","html-keyboard-response","7","106353","0.0-7.0","7h089edp","1920","1080","","","","","","","","","","","502","rif","Practice diganostic trial","","j","practice","0","false","1","RIGHT","j","1","","","","","",""
"","html-keyboard-response","8","107120","0.0-10.0","7h089edp","1920","1080","","","","","","","","","","","null","+","Fixation - short","","null","","","","","","","","","","","","",""
"","html-keyboard-response","9","107655","0.0-11.0","7h089edp","1920","1080","","","","","","","","","","","534","efg","Practice diganostic trial","","f","practice","1","false","0","LEFT","f","1","","","","","",""
"","html-keyboard-response","10","108417","0.0-14.0","7h089edp","1920","1080","","","","","","","","","","","null","+","Fixation - short","","null","","","","","","","","","","","","",""
"","html-keyboard-response","11","108872","0.0-15.0","7h089edp","1920","1080","","","","","","","","","","","454","rif","Practice diganostic trial","","f","practice","2","false","0","LEFT","f","1","","","","","",""
"","html-keyboard-response","12","109632","0.0-18.0","7h089edp","1920","1080","","","","","","","","","","","null","+","Fixation - short","","null","","","","","","","","","","","","",""
"","html-keyboard-response","13","110015","0.0-19.0","7h089edp","1920","1080","","","","","","","","","","","381","efg","Practice diganostic trial","","j","practice","3","false","1","RIGHT","j","1","","","","","",""
"","html-keyboard-response","14","110781","0.0-22.0","7h089edp","1920","1080","","","","","","","","","","","null","+","Fixation - short","","null","","","","","","","","","","","","",""
"","html-keyboard-response","15","111258","0.0-23.0","7h089edp","1920","1080","","","","","","","","","","","475","rif","Practice diganostic trial","","j","practice","4","false","1","RIGHT","j","1","","","","","",""
"","html-keyboard-response","16","112021","0.0-26.0","7h089edp","1920","1080","","","","","","","","","","","null","+","Fixation - short","","null","","","","","","","","","","","","",""
"","html-keyboard-response","17","112499","0.0-27.0","7h089edp","1920","1080","","","","","","","","","","","477","rif","Practice diganostic trial","","f","practice","5","false","0","LEFT","f","1","","","","","",""
"","html-keyboard-response","18","113259","0.0-30.0","7h089edp","1920","1080","","","","","","","","","","","null","+","Fixation - short","","null","","","","","","","","","","","","",""
"","html-keyboard-response","19","113737","0.0-31.0","7h089edp","1920","1080","","","","","","","","","","","478","efg","Practice diganostic trial","","j","practice","6","false","1","RIGHT","j","1","","","","","",""
"","html-keyboard-response","20","114498","0.0-34.0","7h089edp","1920","1080","","","","","","","","","","","null","+","Fixation - short","","null","","","","","","","","","","","","",""
"","html-keyboard-response","21","114914","0.0-35.0","7h089edp","1920","1080","","","","","","","","","","","414","efg","Practice diganostic trial","","j","practice","7","false","1","RIGHT","j","1","","","","","",""
"","html-keyboard-response","22","115676","0.0-38.0","7h089edp","1920","1080","","","","","","","","","","","null","+","Fixation - short","","null","","","","","","","","","","","","",""
"","html-keyboard-response","23","116138","0.0-39.0","7h089edp","1920","1080","","","","","","","","","","","460","efg","Practice diganostic trial","","f","practice","8","false","0","LEFT","f","1","","","","","",""
"","html-keyboard-response","24","116892","0.0-42.0","7h089edp","1920","1080","","","","","","","","","","","null","+","Fixation - short","","null","","","","","","","","","","","","",""
"","html-keyboard-response","25","117314","0.0-43.0","7h089edp","1920","1080","","","","","","","","","","","421","rif","Practice diganostic trial","","f","practice","9","false","0","LEFT","f","1","","","","","",""
"","html-keyboard-response","26","118077","0.0-46.0","7h089edp","1920","1080","","","","","","","","","","","null","+","Fixation - short","","null","","","","","","","","","","","","",""
"","html-keyboard-response","27","118503","0.0-47.0","7h089edp","1920","1080","","","","","","","","","","","424","rif","Practice diganostic trial","","j","practice","10","false","1","RIGHT","j","1","","","","","",""
"","html-keyboard-response","28","119267","0.0-50.0","7h089edp","1920","1080","","","","","","","","","","","null","+","Fixation - short","","null","","","","","","","","","","","","",""
"","html-keyboard-response","29","119743","0.0-51.0","7h089edp","1920","1080","","","","","","","","","","","475","rif","Practice diganostic trial","","j","practice","11","false","1","RIGHT","j","1","","","","","",""
"","html-keyboard-response","30","120497","0.0-54.0","7h089edp","1920","1080","","","","","","","","","","","null","+","Fixation - short","","null","","","","","","","","","","","","",""
"","html-keyboard-response","31","120972","0.0-55.0","7h089edp","1920","1080","","","","","","","","","","","473","efg","Practice diganostic trial","","j","practice","12","false","1","RIGHT","j","1","","","","","",""
"","html-keyboard-response","32","121733","0.0-58.0","7h089edp","1920","1080","","","","","","","","","","","null","+","Fixation - short","","null","","","","","","","","","","","","",""
"","html-keyboard-response","33","122239","0.0-59.0","7h089edp","1920","1080","","","","","","","","","","","504","efg","Practice diganostic trial","","f","practice","13","false","0","LEFT","f","1","","","","","",""
"","html-keyboard-response","34","122994","0.0-62.0","7h089edp","1920","1080","","","","","","","","","","","null","+","Fixation - short","","null","","","","","","","","","","","","",""
"","html-keyboard-response","35","123444","0.0-63.0","7h089edp","1920","1080","","","","","","","","","","","448","rif","Practice diganostic trial","","f","practice","14","false","0","LEFT","f","1","","","","","",""
"","html-keyboard-response","36","124196","0.0-66.0","7h089edp","1920","1080","","","","","","","","","","","null","+","Fixation - short","","null","","","","","","","","","","","","",""
"","html-keyboard-response","37","124672","0.0-67.0","7h089edp","1920","1080","","","","","","","","","","","475","rif","Practice diganostic trial","","f","practice","15","false","0","LEFT","f","1","","","","","",""
"","html-keyboard-response","38","125426","0.0-70.0","7h089edp","1920","1080","","","","","","","","","","","null","+","Fixation - short","","null","","","","","","","","","","","","",""
"","instructions","39","139682","0.0-71.0","7h089edp","1920","1080","","","","","","","","","","[{""page_index"":0,""viewing_time"":14254}]","14255","Instructions","Final experiment explanation","","","","","","","","","","","","","","",""
"","html-keyboard-response","40","147870","0.0-72.0","7h089edp","1920","1080","","","","","","","","","","","6683","If mik press RIGHT | If otr press LEFT","Practice inducer instructions",""," ","practice","","","","","","","","","","","",""
"","html-keyboard-response","41","148801","0.0-73.0","7h089edp","1920","1080","","","","","","","","","","","929","","Practice inducer trial","","f","practice","","true","","","f","1","LEFT","","","","",""
"","html-keyboard-response","42","149559","0.0-76.0","7h089edp","1920","1080","","","","","","","","","","","null","+","Fixation - short","","null","","","","","","","","","","","","",""
"","html-keyboard-response","43","153904","0.0-77.0","7h089edp","1920","1080","","","","","","","","","","","4343","If ila press RIGHT | If wwt press LEFT","Practice inducer instructions",""," ","practice","","","","","","","","","","","",""
"","html-keyboard-response","44","154867","0.0-78.0","7h089edp","1920","1080","","","","","","","","","","","961","","Practice inducer trial","","j","practice","","true","","","j","1","RIGHT","","","","",""
"","html-keyboard-response","45","155632","0.0-81.0","7h089edp","1920","1080","","","","","","","","","","","null","+","Fixation - short","","null","","","","","","","","","","","","",""
"","html-keyboard-response","46","157466","0.0-82.0","7h089edp","1920","1080","","","","","","","","","","","1832","If jsf press RIGHT | If kho press LEFT","Practice inducer instructions",""," ","practice","","","","","","","","","","","",""
"","html-keyboard-response","47","158251","0.0-83.0","7h089edp","1920","1080","","","","","","","","","","","785","","Practice inducer trial","","f","practice","","true","","","f","1","LEFT","","","","",""
"","html-keyboard-response","48","159009","0.0-86.0","7h089edp","1920","1080","","","","","","","","","","","null","+","Fixation - short","","null","","","","","","","","","","","","",""
"","html-keyboard-response","49","160475","0.0-87.0","7h089edp","1920","1080","","","","","","","","","","","1465","If cpt press RIGHT | If pbz press LEFT","Practice inducer instructions",""," ","practice","","","","","","","","","","","",""
"","html-keyboard-response","50","161058","0.0-88.0","7h089edp","1920","1080","","","","","","","","","","","583","","Practice inducer trial","","j","practice","","true","","","j","1","RIGHT","","","","",""
"","html-keyboard-response","51","161825","0.0-91.0","7h089edp","1920","1080","","","","","","","","","","","null","+","Fixation - short","","null","","","","","","","","","","","","",""
"","html-keyboard-response","52","163184","0.0-92.0","7h089edp","1920","1080","","","","","","","","","","","1358","If dlg press RIGHT | If lpn press LEFT","Practice inducer instructions",""," ","practice","","","","","","","","","","","",""
"","html-keyboard-response","53","163636","0.0-93.0","7h089edp","1920","1080","","","","","","","","","","","451","","Practice inducer trial","","j","practice","","true","","","j","1","RIGHT","","","","",""
"","html-keyboard-response","54","164389","0.0-96.0","7h089edp","1920","1080","","","","","","","","","","","null","+","Fixation - short","","null","","","","","","","","","","","","",""
"","html-keyboard-response","55","165575","0.0-97.0","7h089edp","1920","1080","","","","","","","","","","","1186","If ois press RIGHT | If anz press LEFT","Practice inducer instructions",""," ","practice","","","","","","","","","","","",""
"","html-keyboard-response","56","166124","0.0-98.0","7h089edp","1920","1080","","","","","","","","","","","547","","Practice inducer trial","","f","practice","","true","","","f","1","LEFT","","","","",""
"","html-keyboard-response","57","166889","0.0-101.0","7h089edp","1920","1080","","","","","","","","","","","null","+","Fixation - short","","null","","","","","","","","","","","","",""
"","html-keyboard-response","58","192400","0.0-102.0","7h089edp","1920","1080","","","","","","","","","","","25509","End practice","End of practice",""," ","","","","","","","","","","","","",""
"","html-keyboard-response","59","193903","0.0-103.0","7h089edp","1920","1080","","","","","","","","","","","null","+","Fixation - long","","null","","","","","","","","","","","","",""
"","html-keyboard-response","60","198484","0.0-104.0","7h089edp","1920","1080","","","","","","","","","","","4579","If eeu press RIGHT | If faq press LEFT","Inducer instructions",""," ","0","","","","","","","","","","","",""
"","html-keyboard-response","61","199243","0.0-105.0","7h089edp","1920","1080","","","","","","","","","","","null","+","Fixation - short","","null","","","","","","","","","","","","",""
"","html-keyboard-response","62","199978","0.0-106.0","7h089edp","1920","1080","","","","","","","","","","","734","eeu","Diagnostic trial","","j","0","0","false","true","RIGHT","j","1","","LEFT","false","","",""
"","html-keyboard-response","63","200737","0.0-109.0","7h089edp","1920","1080","","","","","","","","","","","null","+","Fixation - short","","null","","","","","","","","","","","","",""
"","html-keyboard-response","64","202748","0.0-110.0","7h089edp","1920","1080","","","","","","","","","","","2010","eeu","Diagnostic trial","","f","0","1","false","false","LEFT","f","1","","LEFT","true","","",""
"","html-keyboard-response","65","203501","0.0-113.0","7h089edp","1920","1080","","","","","","","","","","","null","+","Fixation - short","","null","","","","","","","","","","","","",""
"","html-keyboard-response","66","204122","0.0-114.0","7h089edp","1920","1080","","","","","","","","","","","620","faq","Diagnostic trial","","f","0","2","false","false","LEFT","f","1","","RIGHT","false","","",""
"","html-keyboard-response","67","204875","0.0-117.0","7h089edp","1920","1080","","","","","","","","","","","null","+","Fixation - short","","null","","","","","","","","","","","","",""
"","html-keyboard-response","68","205877","0.0-118.0","7h089edp","1920","1080","","","","","","","","","","","1000","eeu","Diagnostic trial","","f","0","3","false","false","LEFT","f","1","","LEFT","true","","",""
"","html-keyboard-response","69","206629","0.0-121.0","7h089edp","1920","1080","","","","","","","","","","","null","+","Fixation - short","","null","","","","","","","","","","","","",""
"","html-keyboard-response","70","207295","0.0-122.0","7h089edp","1920","1080","","","","","","","","","","","664","eeu","Diagnostic trial","","j","0","4","false","true","RIGHT","j","1","","LEFT","false","","",""
"","html-keyboard-response","71","208058","0.0-125.0","7h089edp","1920","1080","","","","","","","","","","","null","+","Fixation - short","","null","","","","","","","","","","","","",""
"","html-keyboard-response","72","208804","0.0-126.0","7h089edp","1920","1080","","","","","","","","","","","744","faq","Diagnostic trial","","f","0","5","false","false","LEFT","f","1","","RIGHT","false","","",""
"","html-keyboard-response","73","209566","0.0-129.0","7h089edp","1920","1080","","","","","","","","","","","null","+","Fixation - short","","null","","","","","","","","","","","","",""
"","html-keyboard-response","74","210183","0.0-130.0","7h089edp","1920","1080","","","","","","","","","","","615","eeu","Diagnostic trial","","j","0","6","false","true","RIGHT","j","1","","LEFT","false","","",""
"","html-keyboard-response","75","210936","0.0-133.0","7h089edp","1920","1080","","","","","","","","","","","null","+","Fixation - short","","null","","","","","","","","","","","","",""
"","html-keyboard-response","76","211608","0.0-134.0","7h089edp","1920","1080","","","","","","","","","","","671","eeu","Diagnostic trial","","j","0","7","false","true","RIGHT","j","1","","LEFT","false","","",""
"","html-keyboard-response","77","212370","0.0-137.0","7h089edp","1920","1080","","","","","","","","","","","null","+","Fixation - short","","null","","","","","","","","","","","","",""
"","html-keyboard-response","78","212962","0.0-138.0","7h089edp","1920","1080","","","","","","","","","","","591","faq","Diagnostic trial","","j","0","8","false","true","RIGHT","j","1","","RIGHT","true","","",""
"","html-keyboard-response","79","213722","0.0-141.0","7h089edp","1920","1080","","","","","","","","","","","null","+","Fixation - short","","null","","","","","","","","","","","","",""
"","html-keyboard-response","80","214248","0.0-142.0","7h089edp","1920","1080","","","","","","","","","","","525","faq","Diagnostic trial","","j","0","9","false","true","RIGHT","j","1","","RIGHT","true","","",""
"","html-keyboard-response","81","215006","0.0-145.0","7h089edp","1920","1080","","","","","","","","","","","null","+","Fixation - short","","null","","","","","","","","","","","","",""
"","html-keyboard-response","82","215737","0.0-146.0","7h089edp","1920","1080","","","","","","","","","","","730","eeu","Diagnostic trial","","f","0","10","false","false","LEFT","f","1","","LEFT","true","","",""
"","html-keyboard-response","83","216494","0.0-149.0","7h089edp","1920","1080","","","","","","","","","","","null","+","Fixation - short","","null","","","","","","","","","","","","",""
"","html-keyboard-response","84","217845","0.0-150.0","7h089edp","1920","1080","","","","","","","","","","","1349","faq","Inducer trial","","f","0","","true","","","f","1","LEFT","","","","",""
"","html-keyboard-response","85","219356","0.0-153.0","7h089edp","1920","1080","","","","","","","","","","","null","+","Fixation - long","","null","","","","","","","","","","","","",""
"","html-keyboard-response","86","223075","0.0-154.0","7h089edp","1920","1080","","","","","","","","","","","3718","If ndm press RIGHT | If jil press LEFT","Inducer instructions",""," ","1","","","","","","","","","","","",""
"","html-keyboard-response","87","223837","0.0-155.0","7h089edp","1920","1080","","","","","","","","","","","null","+","Fixation - short","","null","","","","","","","","","","","","",""
"","html-keyboard-response","88","224639","0.0-156.0","7h089edp","1920","1080","","","","","","","","","","","801","jil","Diagnostic trial","","f","1","0","false","false","LEFT","f","1","","RIGHT","false","","",""
"","html-keyboard-response","89","225404","0.0-159.0","7h089edp","1920","1080","","","","","","","","","","","null","+","Fixation - short","","null","","","","","","","","","","","","",""
"","html-keyboard-response","90","225997","0.0-160.0","7h089edp","1920","1080","","","","","","","","","","","592","ndm","Diagnostic trial","","f","1","1","false","false","LEFT","f","1","","LEFT","true","","",""
"","html-keyboard-response","91","226751","0.0-163.0","7h089edp","1920","1080","","","","","","","","","","","null","+","Fixation - short","","null","","","","","","","","","","","","",""
"","html-keyboard-response","92","227289","0.0-164.0","7h089edp","1920","1080","","","","","","","","","","","538","jil","Diagnostic trial","","j","1","2","false","true","RIGHT","j","1","","RIGHT","true","","",""
"","html-keyboard-response","93","228043","0.0-167.0","7h089edp","1920","1080","","","","","","","","","","","null","+","Fixation - short","","null","","","","","","","","","","","","",""
"","html-keyboard-response","94","228613","0.0-168.0","7h089edp","1920","1080","","","","","","","","","","","569","jil","Diagnostic trial","","f","1","3","false","false","LEFT","f","1","","RIGHT","false","","",""
"","html-keyboard-response","95","229374","0.0-171.0","7h089edp","1920","1080","","","","","","","","","","","null","+","Fixation - short","","null","","","","","","","","","","","","",""
"","html-keyboard-response","96","229970","0.0-172.0","7h089edp","1920","1080","","","","","","","","","","","595","jil","Diagnostic trial","","j","1","4","false","true","RIGHT","j","1","","RIGHT","true","","",""
"","html-keyboard-response","97","230734","0.0-175.0","7h089edp","1920","1080","","","","","","","","","","","null","+","Fixation - short","","null","","","","","","","","","","","","",""
"","html-keyboard-response","98","231312","0.0-176.0","7h089edp","1920","1080","","","","","","","","","","","576","jil","Diagnostic trial","","f","1","5","false","false","LEFT","f","1","","RIGHT","false","","",""
"","html-keyboard-response","99","232071","0.0-179.0","7h089edp","1920","1080","","","","","","","","","","","null","+","Fixation - short","","null","","","","","","","","","","","","",""
"","html-keyboard-response","100","232686","0.0-180.0","7h089edp","1920","1080","","","","","","","","","","","614","ndm","Diagnostic trial","","f","1","6","false","false","LEFT","f","1","","LEFT","true","","",""
"","html-keyboard-response","101","233449","0.0-183.0","7h089edp","1920","1080","","","","","","","","","","","null","+","Fixation - short","","null","","","","","","","","","","","","",""
"","html-keyboard-response","102","234039","0.0-184.0","7h089edp","1920","1080","","","","","","","","","","","589","ndm","Diagnostic trial","","j","1","7","false","true","RIGHT","j","1","","LEFT","false","","",""
"","html-keyboard-response","103","234798","0.0-187.0","7h089edp","1920","1080","","","","","","","","","","","null","+","Fixation - short","","null","","","","","","","","","","","","",""
"","html-keyboard-response","104","235331","0.0-188.0","7h089edp","1920","1080","","","","","","","","","","","532","ndm","Diagnostic trial","","f","1","8","false","false","LEFT","f","1","","LEFT","true","","",""
"","html-keyboard-response","105","236098","0.0-191.0","7h089edp","1920","1080","","","","","","","","","","","null","+","Fixation - short","","null","","","","","","","","","","","","",""
"","html-keyboard-response","106","236819","0.0-192.0","7h089edp","1920","1080","","","","","","","","","","","720","ndm","Inducer trial","","j","1","","true","","","j","1","RIGHT","","","","",""
"","html-keyboard-response","107","238329","0.0-195.0","7h089edp","1920","1080","","","","","","","","","","","null","+","Fixation - long","","null","","","","","","","","","","","","",""
"","html-keyboard-response","108","241767","0.0-196.0","7h089edp","1920","1080","","","","","","","","","","","3437","If dij press RIGHT | If vpu press LEFT","Inducer instructions",""," ","2","","","","","","","","","","","",""
"","html-keyboard-response","109","242528","0.0-197.0","7h089edp","1920","1080","","","","","","","","","","","null","+","Fixation - short","","null","","","","","","","","","","","","",""
"","html-keyboard-response","110","243347","0.0-198.0","7h089edp","1920","1080","","","","","","","","","","","817","dij","Diagnostic trial","","f","2","0","false","false","LEFT","f","1","","LEFT","true","","",""
"","html-keyboard-response","111","244114","0.0-201.0","7h089edp","1920","1080","","","","","","","","","","","null","+","Fixation - short","","null","","","","","","","","","","","","",""
"","html-keyboard-response","112","244665","0.0-202.0","7h089edp","1920","1080","","","","","","","","","","","549","vpu","Diagnostic trial","","j","2","1","false","true","RIGHT","j","1","","RIGHT","true","","",""
"","html-keyboard-response","113","245418","0.0-205.0","7h089edp","1920","1080","","","","","","","","","","","null","+","Fixation - short","","null","","","","","","","","","","","","",""
"","html-keyboard-response","114","245920","0.0-206.0","7h089edp","1920","1080","","","","","","","","","","","501","vpu","Diagnostic trial","","f","2","2","false","false","LEFT","f","1","","RIGHT","false","","",""
"","html-keyboard-response","115","246687","0.0-209.0","7h089edp","1920","1080","","","","","","","","","","","null","+","Fixation - short","","null","","","","","","","","","","","","",""
"","html-keyboard-response","116","247144","0.0-210.0","7h089edp","1920","1080","","","","","","","","","","","456","vpu","Diagnostic trial","","f","2","3","false","false","LEFT","f","1","","RIGHT","false","","",""
"","html-keyboard-response","117","247896","0.0-213.0","7h089edp","1920","1080","","","","","","","","","","","null","+","Fixation - short","","null","","","","","","","","","","","","",""
"","html-keyboard-response","118","248448","0.0-214.0","7h089edp","1920","1080","","","","","","","","","","","550","dij","Diagnostic trial","","j","2","4","false","true","RIGHT","j","1","","LEFT","false","","",""
"","html-keyboard-response","119","249211","0.0-217.0","7h089edp","1920","1080","","","","","","","","","","","null","+","Fixation - short","","null","","","","","","","","","","","","",""
"","html-keyboard-response","120","249733","0.0-218.0","7h089edp","1920","1080","","","","","","","","","","","521","vpu","Diagnostic trial","","f","2","5","false","false","LEFT","f","1","","RIGHT","false","","",""
"","html-keyboard-response","121","250496","0.0-221.0","7h089edp","1920","1080","","","","","","","","","","","null","+","Fixation - short","","null","","","","","","","","","","","","",""
"","html-keyboard-response","122","250950","0.0-222.0","7h089edp","1920","1080","","","","","","","","","","","453","vpu","Diagnostic trial","","f","2","6","false","false","LEFT","f","1","","RIGHT","false","","",""
"","html-keyboard-response","123","251704","0.0-225.0","7h089edp","1920","1080","","","","","","","","","","","null","+","Fixation - short","","null","","","","","","","","","","","","",""
"","html-keyboard-response","124","252194","0.0-226.0","7h089edp","1920","1080","","","","","","","","","","","489","dij","Diagnostic trial","","f","2","7","false","false","LEFT","f","1","","LEFT","true","","",""
"","html-keyboard-response","125","252959","0.0-229.0","7h089edp","1920","1080","","","","","","","","","","","null","+","Fixation - short","","null","","","","","","","","","","","","",""
"","html-keyboard-response","126","253460","0.0-230.0","7h089edp","1920","1080","","","","","","","","","","","500","dij","Diagnostic trial","","j","2","8","false","true","RIGHT","j","1","","LEFT","false","","",""
"","html-keyboard-response","127","254218","0.0-233.0","7h089edp","1920","1080","","","","","","","","","","","null","+","Fixation - short","","null","","","","","","","","","","","","",""
"","html-keyboard-response","128","255165","0.0-234.0","7h089edp","1920","1080","","","","","","","","","","","947","dij","Inducer trial","","j","2","","true","","","j","1","RIGHT","","","","",""
"","html-keyboard-response","129","256673","0.0-237.0","7h089edp","1920","1080","","","","","","","","","","","null","+","Fixation - long","","null","","","","","","","","","","","","",""
"","html-keyboard-response","130","259278","0.0-238.0","7h089edp","1920","1080","","","","","","","","","","","2604","If flh press RIGHT | If nga press LEFT","Inducer instructions",""," ","3","","","","","","","","","","","",""
"","html-keyboard-response","131","260035","0.0-239.0","7h089edp","1920","1080","","","","","","","","","","","null","+","Fixation - short","","null","","","","","","","","","","","","",""
"","html-keyboard-response","132","260841","0.0-240.0","7h089edp","1920","1080","","","","","","","","","","","805","nga","Diagnostic trial","","j","3","0","false","true","RIGHT","j","1","","RIGHT","true","","",""
"","html-keyboard-response","133","261601","0.0-243.0","7h089edp","1920","1080","","","","","","","","","","","null","+","Fixation - short","","null","","","","","","","","","","","","",""
"","html-keyboard-response","134","262118","0.0-244.0","7h089edp","1920","1080","","","","","","","","","","","515","nga","Diagnostic trial","","j","3","1","false","true","RIGHT","j","1","","RIGHT","true","","",""
"","html-keyboard-response","135","262872","0.0-247.0","7h089edp","1920","1080","","","","","","","","","","","null","+","Fixation - short","","null","","","","","","","","","","","","",""
"","html-keyboard-response","136","263416","0.0-248.0","7h089edp","1920","1080","","","","","","","","","","","542","nga","Diagnostic trial","","f","3","2","false","false","LEFT","f","1","","RIGHT","false","","",""
"","html-keyboard-response","137","264176","0.0-251.0","7h089edp","1920","1080","","","","","","","","","","","null","+","Fixation - short","","null","","","","","","","","","","","","",""
"","html-keyboard-response","138","264753","0.0-252.0","7h089edp","1920","1080","","","","","","","","","","","576","nga","Diagnostic trial","","j","3","3","false","true","RIGHT","j","1","","RIGHT","true","","",""
"","html-keyboard-response","139","265508","0.0-255.0","7h089edp","1920","1080","","","","","","","","","","","null","+","Fixation - short","","null","","","","","","","","","","","","",""
"","html-keyboard-response","140","266101","0.0-256.0","7h089edp","1920","1080","","","","","","","","","","","592","nga","Diagnostic trial","","j","3","4","false","true","RIGHT","j","1","","RIGHT","true","","",""
"","html-keyboard-response","141","266865","0.0-259.0","7h089edp","1920","1080","","","","","","","","","","","null","+","Fixation - short","","null","","","","","","","","","","","","",""
"","html-keyboard-response","142","267488","0.0-260.0","7h089edp","1920","1080","","","","","","","","","","","622","flh","Diagnostic trial","","f","3","5","false","false","LEFT","f","1","","LEFT","true","","",""
"","html-keyboard-response","143","268250","0.0-263.0","7h089edp","1920","1080","","","","","","","","","","","null","+","Fixation - short","","null","","","","","","","","","","","","",""
"","html-keyboard-response","144","268874","0.0-264.0","7h089edp","1920","1080","","","","","","","","","","","623","flh","Inducer trial","","j","3","","true","","","j","1","RIGHT","","","","",""
"","html-keyboard-response","145","270387","0.0-267.0","7h089edp","1920","1080","","","","","","","","","","","null","+","Fixation - long","","null","","","","","","","","","","","","",""
"","html-keyboard-response","146","271910","0.0-268.0","7h089edp","1920","1080","","","","","","","","","","","1522","If saj press RIGHT | If ydi press LEFT","Inducer instructions",""," ","4","","","","","","","","","","","",""
"","html-keyboard-response","147","272668","0.0-269.0","7h089edp","1920","1080","","","","","","","","","","","null","+","Fixation - short","","null","","","","","","","","","","","","",""
"","html-keyboard-response","148","273393","0.0-270.0","7h089edp","1920","1080","","","","","","","","","","","723","ydi","Diagnostic trial","","j","4","0","false","true","RIGHT","j","1","","RIGHT","true","","",""
"","html-keyboard-response","149","274146","0.0-273.0","7h089edp","1920","1080","","","","","","","","","","","null","+","Fixation - short","","null","","","","","","","","","","","","",""
"","html-keyboard-response","150","274590","0.0-274.0","7h089edp","1920","1080","","","","","","","","","","","442","ydi","Diagnostic trial","","j","4","1","false","true","RIGHT","j","1","","RIGHT","true","","",""
"","html-keyboard-response","151","275344","0.0-277.0","7h089edp","1920","1080","","","","","","","","","","","null","+","Fixation - short","","null","","","","","","","","","","","","",""
"","html-keyboard-response","152","275890","0.0-278.0","7h089edp","1920","1080","","","","","","","","","","","544","ydi","Diagnostic trial","","f","4","2","false","false","LEFT","f","1","","RIGHT","false","","",""
"","html-keyboard-response","153","276646","0.0-281.0","7h089edp","1920","1080","","","","","","","","","","","null","+","Fixation - short","","null","","","","","","","","","","","","",""
"","html-keyboard-response","154","277188","0.0-282.0","7h089edp","1920","1080","","","","","","","","","","","541","saj","Diagnostic trial","","f","4","3","false","false","LEFT","f","1","","LEFT","true","","",""
"","html-keyboard-response","155","277948","0.0-285.0","7h089edp","1920","1080","","","","","","","","","","","null","+","Fixation - short","","null","","","","","","","","","","","","",""
"","html-keyboard-response","156","278470","0.0-286.0","7h089edp","1920","1080","","","","","","","","","","","520","saj","Diagnostic trial","","j","4","4","false","true","RIGHT","j","1","","LEFT","false","","",""
"","html-keyboard-response","157","279235","0.0-289.0","7h089edp","1920","1080","","","","","","","","","","","null","+","Fixation - short","","null","","","","","","","","","","","","",""
"","html-keyboard-response","158","279729","0.0-290.0","7h089edp","1920","1080","","","","","","","","","","","493","saj","Diagnostic trial","","f","4","5","false","false","LEFT","f","1","","LEFT","true","","",""
"","html-keyboard-response","159","280489","0.0-293.0","7h089edp","1920","1080","","","","","","","","","","","null","+","Fixation - short","","null","","","","","","","","","","","","",""
"","html-keyboard-response","160","281156","0.0-294.0","7h089edp","1920","1080","","","","","","","","","","","666","ydi","Diagnostic trial","","j","4","6","false","true","RIGHT","j","1","","RIGHT","true","","",""
"","html-keyboard-response","161","281917","0.0-297.0","7h089edp","1920","1080","","","","","","","","","","","null","+","Fixation - short","","null","","","","","","","","","","","","",""
"","html-keyboard-response","162","282576","0.0-298.0","7h089edp","1920","1080","","","","","","","","","","","658","ydi","Diagnostic trial","","f","4","7","false","false","LEFT","f","1","","RIGHT","false","","",""
"","html-keyboard-response","163","283333","0.0-301.0","7h089edp","1920","1080","","","","","","","","","","","null","+","Fixation - short","","null","","","","","","","","","","","","",""
"","html-keyboard-response","164","283949","0.0-302.0","7h089edp","1920","1080","","","","","","","","","","","614","saj","Diagnostic trial","","j","4","8","false","false","LEFT","f","0","","LEFT","true","","",""
"","call-function","165","283949","0.0-304.0-0.0","7h089edp","","","","","","","","","","","","","","","","","","","","","","","","","","","","","",""
"","html-keyboard-response","166","284258","0.0-304.0-1.0","7h089edp","1920","1080","","","","","","","","","","","null","Wrong","Feedback","","null","","","","","","","","","","","","",""
"","call-function","167","284259","0.0-304.0-2.0","7h089edp","","","","","","","","","","","","","","","","","","","","","","","","","","","","","",""
"","html-keyboard-response","168","285025","0.0-305.0","7h089edp","1920","1080","","","","","","","","","","","null","+","Fixation - short","","null","","","","","","","","","","","","",""
"","html-keyboard-response","169","285729","0.0-306.0","7h089edp","1920","1080","","","","","","","","","","","703","ydi","Diagnostic trial","","j","4","9","false","true","RIGHT","j","1","","RIGHT","true","","",""
"","html-keyboard-response","170","286489","0.0-309.0","7h089edp","1920","1080","","","","","","","","","","","null","+","Fixation - short","","null","","","","","","","","","","","","",""
"","html-keyboard-response","171","287239","0.0-310.0","7h089edp","1920","1080","","","","","","","","","","","749","ydi","Inducer trial","","f","4","","true","","","f","1","LEFT","","","","",""
"","html-keyboard-response","172","288749","0.0-313.0","7h089edp","1920","1080","","","","","","","","","","","null","+","Fixation - long","","null","","","","","","","","","","","","",""
"","html-keyboard-response","173","291317","0.0-314.0","7h089edp","1920","1080","","","","","","","","","","","2567","If feg press RIGHT | If eht press LEFT","Inducer instructions",""," ","5","","","","","","","","","","","",""
"","html-keyboard-response","174","292081","0.0-315.0","7h089edp","1920","1080","","","","","","","","","","","null","+","Fixation - short","","null","","","","","","","","","","","","",""
"","html-keyboard-response","175","292851","0.0-316.0","7h089edp","1920","1080","","","","","","","","","","","769","feg","Diagnostic trial","","j","5","0","false","true","RIGHT","j","1","","LEFT","false","","",""
"","html-keyboard-response","176","293608","0.0-319.0","7h089edp","1920","1080","","","","","","","","","","","null","+","Fixation - short","","null","","","","","","","","","","","","",""
"","html-keyboard-response","177","294305","0.0-320.0","7h089edp","1920","1080","","","","","","","","","","","696","feg","Diagnostic trial","","f","5","1","false","false","LEFT","f","1","","LEFT","true","","",""
"","html-keyboard-response","178","295069","0.0-323.0","7h089edp","1920","1080","","","","","","","","","","","null","+","Fixation - short","","null","","","","","","","","","","","","",""
"","html-keyboard-response","179","295752","0.0-324.0","7h089edp","1920","1080","","","","","","","","","","","681","feg","Diagnostic trial","","j","5","2","false","true","RIGHT","j","1","","LEFT","false","","",""
"","html-keyboard-response","180","296513","0.0-327.0","7h089edp","1920","1080","","","","","","","","","","","null","+","Fixation - short","","null","","","","","","","","","","","","",""
"","html-keyboard-response","181","297094","0.0-328.0","7h089edp","1920","1080","","","","","","","","","","","579","eht","Diagnostic trial","","j","5","3","false","true","RIGHT","j","1","","RIGHT","true","","",""
"","html-keyboard-response","182","297853","0.0-331.0","7h089edp","1920","1080","","","","","","","","","","","null","+","Fixation - short","","null","","","","","","","","","","","","",""
"","html-keyboard-response","183","298394","0.0-332.0","7h089edp","1920","1080","","","","","","","","","","","539","eht","Diagnostic trial","","f","5","4","false","false","LEFT","f","1","","RIGHT","false","","",""
"","html-keyboard-response","184","299158","0.0-335.0","7h089edp","1920","1080","","","","","","","","","","","null","+","Fixation - short","","null","","","","","","","","","","","","",""
"","html-keyboard-response","185","299728","0.0-336.0","7h089edp","1920","1080","","","","","","","","","","","569","feg","Diagnostic trial","","f","5","5","false","false","LEFT","f","1","","LEFT","true","","",""
"","html-keyboard-response","186","300494","0.0-339.0","7h089edp","1920","1080","","","","","","","","","","","null","+","Fixation - short","","null","","","","","","","","","","","","",""
"","html-keyboard-response","187","301116","0.0-340.0","7h089edp","1920","1080","","","","","","","","","","","621","eht","Inducer trial","","f","5","","true","","","f","1","LEFT","","","","",""
"","html-keyboard-response","188","302630","0.0-343.0","7h089edp","1920","1080","","","","","","","","","","","null","+","Fixation - long","","null","","","","","","","","","","","","",""
"","html-keyboard-response","189","304510","0.0-344.0","7h089edp","1920","1080","","","","","","","","","","","1879","If dpa press RIGHT | If ufc press LEFT","Inducer instructions",""," ","6","","","","","","","","","","","",""
"","html-keyboard-response","190","305264","0.0-345.0","7h089edp","1920","1080","","","","","","","","","","","null","+","Fixation - short","","null","","","","","","","","","","","","",""
"","html-keyboard-response","191","305897","0.0-346.0","7h089edp","1920","1080","","","","","","","","","","","631","ufc","Diagnostic trial","","j","6","0","false","true","RIGHT","j","1","","RIGHT","true","","",""
"","html-keyboard-response","192","306664","0.0-349.0","7h089edp","1920","1080","","","","","","","","","","","null","+","Fixation - short","","null","","","","","","","","","","","","",""
"","html-keyboard-response","193","307195","0.0-350.0","7h089edp","1920","1080","","","","","","","","","","","531","dpa","Diagnostic trial","","f","6","1","false","false","LEFT","f","1","","LEFT","true","","",""
"","html-keyboard-response","194","307952","0.0-353.0","7h089edp","1920","1080","","","","","","","","","","","null","+","Fixation - short","","null","","","","","","","","","","","","",""
"","html-keyboard-response","195","308537","0.0-354.0","7h089edp","1920","1080","","","","","","","","","","","583","ufc","Diagnostic trial","","j","6","2","false","true","RIGHT","j","1","","RIGHT","true","","",""
"","html-keyboard-response","196","309297","0.0-357.0","7h089edp","1920","1080","","","","","","","","","","","null","+","Fixation - short","","null","","","","","","","","","","","","",""
"","html-keyboard-response","197","309828","0.0-358.0","7h089edp","1920","1080","","","","","","","","","","","530","ufc","Diagnostic trial","","f","6","3","false","false","LEFT","f","1","","RIGHT","false","","",""
"","html-keyboard-response","198","310588","0.0-361.0","7h089edp","1920","1080","","","","","","","","","","","null","+","Fixation - short","","null","","","","","","","","","","","","",""
"","html-keyboard-response","199","311180","0.0-362.0","7h089edp","1920","1080","","","","","","","","","","","592","dpa","Diagnostic trial","","f","6","4","false","false","LEFT","f","1","","LEFT","true","","",""
"","html-keyboard-response","200","311940","0.0-365.0","7h089edp","1920","1080","","","","","","","","","","","null","+","Fixation - short","","null","","","","","","","","","","","","",""
"","html-keyboard-response","201","312417","0.0-366.0","7h089edp","1920","1080","","","","","","","","","","","476","ufc","Diagnostic trial","","f","6","5","false","false","LEFT","f","1","","RIGHT","false","","",""
"","html-keyboard-response","202","313180","0.0-369.0","7h089edp","1920","1080","","","","","","","","","","","null","+","Fixation - short","","null","","","","","","","","","","","","",""
"","html-keyboard-response","203","313711","0.0-370.0","7h089edp","1920","1080","","","","","","","","","","","531","dpa","Diagnostic trial","","f","6","6","false","false","LEFT","f","1","","LEFT","true","","",""
"","html-keyboard-response","204","314465","0.0-373.0","7h089edp","1920","1080","","","","","","","","","","","null","+","Fixation - short","","null","","","","","","","","","","","","",""
"","html-keyboard-response","205","315009","0.0-374.0","7h089edp","1920","1080","","","","","","","","","","","543","dpa","Diagnostic trial","","f","6","7","false","false","LEFT","f","1","","LEFT","true","","",""
"","html-keyboard-response","206","315772","0.0-377.0","7h089edp","1920","1080","","","","","","","","","","","null","+","Fixation - short","","null","","","","","","","","","","","","",""
"","html-keyboard-response","207","316523","0.0-378.0","7h089edp","1920","1080","","","","","","","","","","","749","dpa","Inducer trial","","j","6","","true","","","j","1","RIGHT","","","","",""
"","html-keyboard-response","208","318027","0.0-381.0","7h089edp","1920","1080","","","","","","","","","","","null","+","Fixation - long","","null","","","","","","","","","","","","",""
"","html-keyboard-response","209","319699","0.0-382.0","7h089edp","1920","1080","","","","","","","","","","","1671","If ume press RIGHT | If psl press LEFT","Inducer instructions",""," ","7","","","","","","","","","","","",""
"","html-keyboard-response","210","320459","0.0-383.0","7h089edp","1920","1080","","","","","","","","","","","null","+","Fixation - short","","null","","","","","","","","","","","","",""
"","html-keyboard-response","211","321207","0.0-384.0","7h089edp","1920","1080","","","","","","","","","","","746","psl","Diagnostic trial","","f","7","0","false","false","LEFT","f","1","","RIGHT","false","","",""
"","html-keyboard-response","212","321973","0.0-387.0","7h089edp","1920","1080","","","","","","","","","","","null","+","Fixation - short","","null","","","","","","","","","","","","",""
"","html-keyboard-response","213","322344","0.0-388.0","7h089edp","1920","1080","","","","","","","","","","","369","psl","Diagnostic trial","","f","7","1","false","false","LEFT","f","1","","RIGHT","false","","",""
"","html-keyboard-response","214","323099","0.0-391.0","7h089edp","1920","1080","","","","","","","","","","","null","+","Fixation - short","","null","","","","","","","","","","","","",""
"","html-keyboard-response","215","323496","0.0-392.0","7h089edp","1920","1080","","","","","","","","","","","395","psl","Diagnostic trial","","f","7","2","false","false","LEFT","f","1","","RIGHT","false","","",""
"","html-keyboard-response","216","324258","0.0-395.0","7h089edp","1920","1080","","","","","","","","","","","null","+","Fixation - short","","null","","","","","","","","","","","","",""
"","html-keyboard-response","217","324668","0.0-396.0","7h089edp","1920","1080","","","","","","","","","","","409","psl","Diagnostic trial","","f","7","3","false","false","LEFT","f","1","","RIGHT","false","","",""
"","html-keyboard-response","218","325435","0.0-399.0","7h089edp","1920","1080","","","","","","","","","","","null","+","Fixation - short","","null","","","","","","","","","","","","",""
"","html-keyboard-response","219","325904","0.0-400.0","7h089edp","1920","1080","","","","","","","","","","","468","psl","Diagnostic trial","","f","7","4","false","false","LEFT","f","1","","RIGHT","false","","",""
"","html-keyboard-response","220","326663","0.0-403.0","7h089edp","1920","1080","","","","","","","","","","","null","+","Fixation - short","","null","","","","","","","","","","","","",""
"","html-keyboard-response","221","327180","0.0-404.0","7h089edp","1920","1080","","","","","","","","","","","516","psl","Diagnostic trial","","f","7","5","false","false","LEFT","f","1","","RIGHT","false","","",""
"","html-keyboard-response","222","327935","0.0-407.0","7h089edp","1920","1080","","","","","","","","","","","null","+","Fixation - short","","null","","","","","","","","","","","","",""
"","html-keyboard-response","223","328867","0.0-408.0","7h089edp","1920","1080","","","","","","","","","","","931","ume","Diagnostic trial","","f","7","6","false","false","LEFT","f","1","","LEFT","true","","",""
"","html-keyboard-response","224","329633","0.0-411.0","7h089edp","1920","1080","","","","","","","","","","","null","+","Fixation - short","","null","","","","","","","","","","","","",""
"","html-keyboard-response","225","330205","0.0-412.0","7h089edp","1920","1080","","","","","","","","","","","572","psl","Diagnostic trial","","j","7","7","false","true","RIGHT","j","1","","RIGHT","true","","",""
"","html-keyboard-response","226","330967","0.0-415.0","7h089edp","1920","1080","","","","","","","","","","","null","+","Fixation - short","","null","","","","","","","","","","","","",""
"","html-keyboard-response","227","331461","0.0-416.0","7h089edp","1920","1080","","","","","","","","","","","493","psl","Diagnostic trial","","j","7","8","false","true","RIGHT","j","1","","RIGHT","true","","",""
"","html-keyboard-response","228","332222","0.0-419.0","7h089edp","1920","1080","","","","","","","","","","","null","+","Fixation - short","","null","","","","","","","","","","","","",""
"","html-keyboard-response","229","332822","0.0-420.0","7h089edp","1920","1080","","","","","","","","","","","599","psl","Diagnostic trial","","j","7","9","false","true","RIGHT","j","1","","RIGHT","true","","",""
"","html-keyboard-response","230","333584","0.0-423.0","7h089edp","1920","1080","","","","","","","","","","","null","+","Fixation - short","","null","","","","","","","","","","","","",""
"","html-keyboard-response","231","334080","0.0-424.0","7h089edp","1920","1080","","","","","","","","","","","495","psl","Diagnostic trial","","j","7","10","false","true","RIGHT","j","1","","RIGHT","true","","",""
"","html-keyboard-response","232","334840","0.0-427.0","7h089edp","1920","1080","","","","","","","","","","","null","+","Fixation - short","","null","","","","","","","","","","","","",""
"","html-keyboard-response","233","335323","0.0-428.0","7h089edp","1920","1080","","","","","","","","","","","481","psl","Diagnostic trial","","j","7","11","false","true","RIGHT","j","1","","RIGHT","true","","",""
"","html-keyboard-response","234","336090","0.0-431.0","7h089edp","1920","1080","","","","","","","","","","","null","+","Fixation - short","","null","","","","","","","","","","","","",""
"","html-keyboard-response","235","336572","0.0-432.0","7h089edp","1920","1080","","","","","","","","","","","482","psl","Diagnostic trial","","j","7","12","false","true","RIGHT","j","1","","RIGHT","true","","",""
"","html-keyboard-response","236","337336","0.0-435.0","7h089edp","1920","1080","","","","","","","","","","","null","+","Fixation - short","","null","","","","","","","","","","","","",""
"","html-keyboard-response","237","338066","0.0-436.0","7h089edp","1920","1080","","","","","","","","","","","729","ume","Inducer trial","","j","7","","true","","","j","1","RIGHT","","","","",""
"","html-keyboard-response","238","339573","0.0-439.0","7h089edp","1920","1080","","","","","","","","","","","null","+","Fixation - long","","null","","","","","","","","","","","","",""
"","html-keyboard-response","239","341384","0.0-440.0","7h089edp","1920","1080","","","","","","","","","","","1809","If ttm press RIGHT | If idy press LEFT","Inducer instructions",""," ","8","","","","","","","","","","","",""
"","html-keyboard-response","240","342150","0.0-441.0","7h089edp","1920","1080","","","","","","","","","","","null","+","Fixation - short","","null","","","","","","","","","","","","",""
"","html-keyboard-response","241","342766","0.0-442.0","7h089edp","1920","1080","","","","","","","","","","","614","idy","Diagnostic trial","","j","8","0","false","true","RIGHT","j","1","","RIGHT","true","","",""
"","html-keyboard-response","242","343518","0.0-445.0","7h089edp","1920","1080","","","","","","","","","","","null","+","Fixation - short","","null","","","","","","","","","","","","",""
"","html-keyboard-response","243","344023","0.0-446.0","7h089edp","1920","1080","","","","","","","","","","","504","ttm","Diagnostic trial","","f","8","1","false","false","LEFT","f","1","","LEFT","true","","",""
"","html-keyboard-response","244","344788","0.0-449.0","7h089edp","1920","1080","","","","","","","","","","","null","+","Fixation - short","","null","","","","","","","","","","","","",""
"","html-keyboard-response","245","345394","0.0-450.0","7h089edp","1920","1080","","","","","","","","","","","605","ttm","Diagnostic trial","","j","8","2","false","true","RIGHT","j","1","","LEFT","false","","",""
"","html-keyboard-response","246","346155","0.0-453.0","7h089edp","1920","1080","","","","","","","","","","","null","+","Fixation - short","","null","","","","","","","","","","","","",""
"","html-keyboard-response","247","346621","0.0-454.0","7h089edp","1920","1080","","","","","","","","","","","465","idy","Diagnostic trial","","f","8","3","false","false","LEFT","f","1","","RIGHT","false","","",""
"","html-keyboard-response","248","347382","0.0-457.0","7h089edp","1920","1080","","","","","","","","","","","null","+","Fixation - short","","null","","","","","","","","","","","","",""
"","html-keyboard-response","249","347875","0.0-458.0","7h089edp","1920","1080","","","","","","","","","","","492","ttm","Diagnostic trial","","j","8","4","false","true","RIGHT","j","1","","LEFT","false","","",""
"","html-keyboard-response","250","348637","0.0-461.0","7h089edp","1920","1080","","","","","","","","","","","null","+","Fixation - short","","null","","","","","","","","","","","","",""
"","html-keyboard-response","251","349134","0.0-462.0","7h089edp","1920","1080","","","","","","","","","","","496","ttm","Diagnostic trial","","j","8","5","false","true","RIGHT","j","1","","LEFT","false","","",""
"","html-keyboard-response","252","349896","0.0-465.0","7h089edp","1920","1080","","","","","","","","","","","null","+","Fixation - short","","null","","","","","","","","","","","","",""
"","html-keyboard-response","253","350489","0.0-466.0","7h089edp","1920","1080","","","","","","","","","","","592","ttm","Diagnostic trial","","f","8","6","false","false","LEFT","f","1","","LEFT","true","","",""
"","html-keyboard-response","254","351247","0.0-469.0","7h089edp","1920","1080","","","","","","","","","","","null","+","Fixation - short","","null","","","","","","","","","","","","",""
"","html-keyboard-response","255","351816","0.0-470.0","7h089edp","1920","1080","","","","","","","","","","","567","ttm","Diagnostic trial","","j","8","7","false","true","RIGHT","j","1","","LEFT","false","","",""
"","html-keyboard-response","256","352579","0.0-473.0","7h089edp","1920","1080","","","","","","","","","","","null","+","Fixation - short","","null","","","","","","","","","","","","",""
"","html-keyboard-response","257","353019","0.0-474.0","7h089edp","1920","1080","","","","","","","","","","","439","ttm","Diagnostic trial","","j","8","8","false","true","RIGHT","j","1","","LEFT","false","","",""
"","html-keyboard-response","258","353772","0.0-477.0","7h089edp","1920","1080","","","","","","","","","","","null","+","Fixation - short","","null","","","","","","","","","","","","",""
"","html-keyboard-response","259","354340","0.0-478.0","7h089edp","1920","1080","","","","","","","","","","","566","idy","Diagnostic trial","","f","8","9","false","false","LEFT","f","1","","RIGHT","false","","",""
"","html-keyboard-response","260","355107","0.0-481.0","7h089edp","1920","1080","","","","","","","","","","","null","+","Fixation - short","","null","","","","","","","","","","","","",""
"","html-keyboard-response","261","355583","0.0-482.0","7h089edp","1920","1080","","","","","","","","","","","475","idy","Diagnostic trial","","f","8","10","false","false","LEFT","f","1","","RIGHT","false","","",""
"","html-keyboard-response","262","356350","0.0-485.0","7h089edp","1920","1080","","","","","","","","","","","null","+","Fixation - short","","null","","","","","","","","","","","","",""
"","html-keyboard-response","263","356868","0.0-486.0","7h089edp","1920","1080","","","","","","","","","","","517","ttm","Diagnostic trial","","j","8","11","false","true","RIGHT","j","1","","LEFT","false","","",""
"","html-keyboard-response","264","357624","0.0-489.0","7h089edp","1920","1080","","","","","","","","","","","null","+","Fixation - short","","null","","","","","","","","","","","","",""
"","html-keyboard-response","265","358285","0.0-490.0","7h089edp","1920","1080","","","","","","","","","","","659","idy","Diagnostic trial","","j","8","12","false","true","RIGHT","j","1","","RIGHT","true","","",""
"","html-keyboard-response","266","359049","0.0-493.0","7h089edp","1920","1080","","","","","","","","","","","null","+","Fixation - short","","null","","","","","","","","","","","","",""
"","html-keyboard-response","267","359695","0.0-494.0","7h089edp","1920","1080","","","","","","","","","","","644","ttm","Diagnostic trial","","f","8","13","false","false","LEFT","f","1","","LEFT","true","","",""
"","html-keyboard-response","268","360462","0.0-497.0","7h089edp","1920","1080","","","","","","","","","","","null","+","Fixation - short","","null","","","","","","","","","","","","",""
"","html-keyboard-response","269","360971","0.0-498.0","7h089edp","1920","1080","","","","","","","","","","","508","idy","Inducer trial","","f","8","","true","","","f","1","LEFT","","","","",""
"","html-keyboard-response","270","362488","0.0-501.0","7h089edp","1920","1080","","","","","","","","","","","null","+","Fixation - long","","null","","","","","","","","","","","","",""
"","html-keyboard-response","271","364642","0.0-502.0","7h089edp","1920","1080","","","","","","","","","","","2152","If quy press RIGHT | If gso press LEFT","Inducer instructions",""," ","9","","","","","","","","","","","",""
"","html-keyboard-response","272","365397","0.0-503.0","7h089edp","1920","1080","","","","","","","","","","","null","+","Fixation - short","","null","","","","","","","","","","","","",""
"","html-keyboard-response","273","366059","0.0-504.0","7h089edp","1920","1080","","","","","","","","","","","660","quy","Diagnostic trial","","f","9","0","false","false","LEFT","f","1","","LEFT","true","","",""
"","html-keyboard-response","274","366811","0.0-507.0","7h089edp","1920","1080","","","","","","","","","","","null","+","Fixation - short","","null","","","","","","","","","","","","",""
"","html-keyboard-response","275","367399","0.0-508.0","7h089edp","1920","1080","","","","","","","","","","","586","quy","Diagnostic trial","","f","9","1","false","false","LEFT","f","1","","LEFT","true","","",""
"","html-keyboard-response","276","368158","0.0-511.0","7h089edp","1920","1080","","","","","","","","","","","null","+","Fixation - short","","null","","","","","","","","","","","","",""
"","html-keyboard-response","277","368579","0.0-512.0","7h089edp","1920","1080","","","","","","","","","","","420","quy","Diagnostic trial","","f","9","2","false","false","LEFT","f","1","","LEFT","true","","",""
"","html-keyboard-response","278","369335","0.0-515.0","7h089edp","1920","1080","","","","","","","","","","","null","+","Fixation - short","","null","","","","","","","","","","","","",""
"","html-keyboard-response","279","369766","0.0-516.0","7h089edp","1920","1080","","","","","","","","","","","430","quy","Diagnostic trial","","f","9","3","false","false","LEFT","f","1","","LEFT","true","","",""
"","html-keyboard-response","280","370527","0.0-519.0","7h089edp","1920","1080","","","","","","","","","","","null","+","Fixation - short","","null","","","","","","","","","","","","",""
"","html-keyboard-response","281","371074","0.0-520.0","7h089edp","1920","1080","","","","","","","","","","","546","gso","Diagnostic trial","","f","9","4","false","false","LEFT","f","1","","RIGHT","false","","",""
"","html-keyboard-response","282","371831","0.0-523.0","7h089edp","1920","1080","","","","","","","","","","","null","+","Fixation - short","","null","","","","","","","","","","","","",""
"","html-keyboard-response","283","372311","0.0-524.0","7h089edp","1920","1080","","","","","","","","","","","478","quy","Diagnostic trial","","j","9","5","false","true","RIGHT","j","1","","LEFT","false","","",""
"","html-keyboard-response","284","373071","0.0-527.0","7h089edp","1920","1080","","","","","","","","","","","null","+","Fixation - short","","null","","","","","","","","","","","","",""
"","html-keyboard-response","285","373532","0.0-528.0","7h089edp","1920","1080","","","","","","","","","","","461","quy","Diagnostic trial","","j","9","6","false","true","RIGHT","j","1","","LEFT","false","","",""
"","html-keyboard-response","286","374291","0.0-531.0","7h089edp","1920","1080","","","","","","","","","","","null","+","Fixation - short","","null","","","","","","","","","","","","",""
"","html-keyboard-response","287","374838","0.0-532.0","7h089edp","1920","1080","","","","","","","","","","","546","gso","Diagnostic trial","","f","9","7","false","false","LEFT","f","1","","RIGHT","false","","",""
"","html-keyboard-response","288","375594","0.0-535.0","7h089edp","1920","1080","","","","","","","","","","","null","+","Fixation - short","","null","","","","","","","","","","","","",""
"","html-keyboard-response","289","376067","0.0-536.0","7h089edp","1920","1080","","","","","","","","","","","472","quy","Diagnostic trial","","f","9","8","false","false","LEFT","f","1","","LEFT","true","","",""
"","html-keyboard-response","290","376819","0.0-539.0","7h089edp","1920","1080","","","","","","","","","","","null","+","Fixation - short","","null","","","","","","","","","","","","",""
"","html-keyboard-response","291","377390","0.0-540.0","7h089edp","1920","1080","","","","","","","","","","","570","quy","Inducer trial","","f","9","","true","","","j","0","RIGHT","","","","",""
"","call-function","292","377391","0.0-542.0-0.0","7h089edp","","","","","","","","","","","","","","","","","","","","","","","","","","","","","",""
"","html-keyboard-response","293","377699","0.0-542.0-1.0","7h089edp","1920","1080","","","","","","","","","","","null","Wrong","Feedback","","null","","","","","","","","","","","","",""
"","call-function","294","377699","0.0-542.0-2.0","7h089edp","","","","","","","","","","","","","","","","","","","","","","","","","","","","","",""
"","html-keyboard-response","295","379213","0.0-543.0","7h089edp","1920","1080","","","","","","","","","","","null","+","Fixation - long","","null","","","","","","","","","","","","",""
"","html-keyboard-response","296","381291","0.0-544.0","7h089edp","1920","1080","","","","","","","","","","","2077","If uen press RIGHT | If kue press LEFT","Inducer instructions",""," ","10","","","","","","","","","","","",""
"","html-keyboard-response","297","382058","0.0-545.0","7h089edp","1920","1080","","","","","","","","","","","null","+","Fixation - short","","null","","","","","","","","","","","","",""
"","html-keyboard-response","298","382517","0.0-546.0","7h089edp","1920","1080","","","","","","","","","","","457","kue","Diagnostic trial","","f","10","0","false","false","LEFT","f","1","","RIGHT","false","","",""
"","html-keyboard-response","299","383276","0.0-549.0","7h089edp","1920","1080","","","","","","","","","","","null","+","Fixation - short","","null","","","","","","","","","","","","",""
"","html-keyboard-response","300","383801","0.0-550.0","7h089edp","1920","1080","","","","","","","","","","","523","kue","Diagnostic trial","","j","10","1","false","true","RIGHT","j","1","","RIGHT","true","","",""
"","html-keyboard-response","301","384566","0.0-553.0","7h089edp","1920","1080","","","","","","","","","","","null","+","Fixation - short","","null","","","","","","","","","","","","",""
"","html-keyboard-response","302","385024","0.0-554.0","7h089edp","1920","1080","","","","","","","","","","","457","uen","Diagnostic trial","","j","10","2","false","true","RIGHT","j","1","","LEFT","false","","",""
"","html-keyboard-response","303","385791","0.0-557.0","7h089edp","1920","1080","","","","","","","","","","","null","+","Fixation - short","","null","","","","","","","","","","","","",""
"","html-keyboard-response","304","386345","0.0-558.0","7h089edp","1920","1080","","","","","","","","","","","552","kue","Diagnostic trial","","f","10","3","false","false","LEFT","f","1","","RIGHT","false","","",""
"","html-keyboard-response","305","387100","0.0-561.0","7h089edp","1920","1080","","","","","","","","","","","null","+","Fixation - short","","null","","","","","","","","","","","","",""
"","html-keyboard-response","306","387563","0.0-562.0","7h089edp","1920","1080","","","","","","","","","","","462","kue","Diagnostic trial","","j","10","4","false","true","RIGHT","j","1","","RIGHT","true","","",""
"","html-keyboard-response","307","388325","0.0-565.0","7h089edp","1920","1080","","","","","","","","","","","null","+","Fixation - short","","null","","","","","","","","","","","","",""
"","html-keyboard-response","308","388798","0.0-566.0","7h089edp","1920","1080","","","","","","","","","","","472","kue","Diagnostic trial","","j","10","5","false","true","RIGHT","j","1","","RIGHT","true","","",""
"","html-keyboard-response","309","389562","0.0-569.0","7h089edp","1920","1080","","","","","","","","","","","null","+","Fixation - short","","null","","","","","","","","","","","","",""
"","html-keyboard-response","310","390001","0.0-570.0","7h089edp","1920","1080","","","","","","","","","","","437","uen","Diagnostic trial","","f","10","6","false","false","LEFT","f","1","","LEFT","true","","",""
"","html-keyboard-response","311","390767","0.0-573.0","7h089edp","1920","1080","","","","","","","","","","","null","+","Fixation - short","","null","","","","","","","","","","","","",""
"","html-keyboard-response","312","391377","0.0-574.0","7h089edp","1920","1080","","","","","","","","","","","609","uen","Diagnostic trial","","f","10","7","false","false","LEFT","f","1","","LEFT","true","","",""
"","html-keyboard-response","313","392131","0.0-577.0","7h089edp","1920","1080","","","","","","","","","","","null","+","Fixation - short","","null","","","","","","","","","","","","",""
"","html-keyboard-response","314","392656","0.0-578.0","7h089edp","1920","1080","","","","","","","","","","","524","kue","Diagnostic trial","","f","10","8","false","false","LEFT","f","1","","RIGHT","false","","",""
"","html-keyboard-response","315","393418","0.0-581.0","7h089edp","1920","1080","","","","","","","","","","","null","+","Fixation - short","","null","","","","","","","","","","","","",""
"","html-keyboard-response","316","393937","0.0-582.0","7h089edp","1920","1080","","","","","","","","","","","518","kue","Diagnostic trial","","j","10","9","false","true","RIGHT","j","1","","RIGHT","true","","",""
"","html-keyboard-response","317","394693","0.0-585.0","7h089edp","1920","1080","","","","","","","","","","","null","+","Fixation - short","","null","","","","","","","","","","","","",""
"","html-keyboard-response","318","395347","0.0-586.0","7h089edp","1920","1080","","","","","","","","","","","652","uen","Inducer trial","","j","10","","true","","","j","1","RIGHT","","","","",""
"","html-keyboard-response","319","396858","0.0-589.0","7h089edp","1920","1080","","","","","","","","","","","null","+","Fixation - long","","null","","","","","","","","","","","","",""
"","html-keyboard-response","320","398766","0.0-590.0","7h089edp","1920","1080","","","","","","","","","","","1906","If iei press RIGHT | If cta press LEFT","Inducer instructions",""," ","11","","","","","","","","","","","",""
"","html-keyboard-response","321","399523","0.0-591.0","7h089edp","1920","1080","","","","","","","","","","","null","+","Fixation - short","","null","","","","","","","","","","","","",""
"","html-keyboard-response","322","400013","0.0-592.0","7h089edp","1920","1080","","","","","","","","","","","489","iei","Diagnostic trial","","f","11","0","false","false","LEFT","f","1","","LEFT","true","","",""
"","html-keyboard-response","323","400779","0.0-595.0","7h089edp","1920","1080","","","","","","","","","","","null","+","Fixation - short","","null","","","","","","","","","","","","",""
"","html-keyboard-response","324","401185","0.0-596.0","7h089edp","1920","1080","","","","","","","","","","","405","cta","Diagnostic trial","","f","11","1","false","false","LEFT","f","1","","RIGHT","false","","",""
"","html-keyboard-response","325","401940","0.0-599.0","7h089edp","1920","1080","","","","","","","","","","","null","+","Fixation - short","","null","","","","","","","","","","","","",""
"","html-keyboard-response","326","402354","0.0-600.0","7h089edp","1920","1080","","","","","","","","","","","413","iei","Diagnostic trial","","j","11","2","false","true","RIGHT","j","1","","LEFT","false","","",""
"","html-keyboard-response","327","403111","0.0-603.0","7h089edp","1920","1080","","","","","","","","","","","null","+","Fixation - short","","null","","","","","","","","","","","","",""
"","html-keyboard-response","328","403585","0.0-604.0","7h089edp","1920","1080","","","","","","","","","","","472","iei","Diagnostic trial","","f","11","3","false","false","LEFT","f","1","","LEFT","true","","",""
"","html-keyboard-response","329","404349","0.0-607.0","7h089edp","1920","1080","","","","","","","","","","","null","+","Fixation - short","","null","","","","","","","","","","","","",""
"","html-keyboard-response","330","404812","0.0-608.0","7h089edp","1920","1080","","","","","","","","","","","462","cta","Diagnostic trial","","f","11","4","false","false","LEFT","f","1","","RIGHT","false","","",""
"","html-keyboard-response","331","405573","0.0-611.0","7h089edp","1920","1080","","","","","","","","","","","null","+","Fixation - short","","null","","","","","","","","","","","","",""
"","html-keyboard-response","332","406045","0.0-612.0","7h089edp","1920","1080","","","","","","","","","","","471","cta","Diagnostic trial","","j","11","5","false","true","RIGHT","j","1","","RIGHT","true","","",""
"","html-keyboard-response","333","406799","0.0-615.0","7h089edp","1920","1080","","","","","","","","","","","null","+","Fixation - short","","null","","","","","","","","","","","","",""
"","html-keyboard-response","334","407578","0.0-616.0","7h089edp","1920","1080","","","","","","","","","","","777","iei","Diagnostic trial","","j","11","6","false","false","LEFT","f","0","","LEFT","true","","",""
"","call-function","335","407579","0.0-618.0-0.0","7h089edp","","","","","","","","","","","","","","","","","","","","","","","","","","","","","",""
"","html-keyboard-response","336","407895","0.0-618.0-1.0","7h089edp","1920","1080","","","","","","","","","","","null","Wrong","Feedback","","null","","","","","","","","","","","","",""
"","call-function","337","407896","0.0-618.0-2.0","7h089edp","","","","","","","","","","","","","","","","","","","","","","","","","","","","","",""
"","html-keyboard-response","338","408649","0.0-619.0","7h089edp","1920","1080","","","","","","","","","","","null","+","Fixation - short","","null","","","","","","","","","","","","",""
"","html-keyboard-response","339","409283","0.0-620.0","7h089edp","1920","1080","","","","","","","","","","","632","cta","Diagnostic trial","","f","11","7","false","false","LEFT","f","1","","RIGHT","false","","",""
"","html-keyboard-response","340","410046","0.0-623.0","7h089edp","1920","1080","","","","","","","","","","","null","+","Fixation - short","","null","","","","","","","","","","","","",""
"","html-keyboard-response","341","410589","0.0-624.0","7h089edp","1920","1080","","","","","","","","","","","541","iei","Inducer trial","","j","11","","true","","","j","1","RIGHT","","","","",""
"","html-keyboard-response","342","412093","0.0-627.0","7h089edp","1920","1080","","","","","","","","","","","null","+","Fixation - long","","null","","","","","","","","","","","","",""
"","html-keyboard-response","343","413413","0.0-628.0","7h089edp","1920","1080","","","","","","","","","","","1318","If rbc press RIGHT | If mts press LEFT","Inducer instructions",""," ","12","","","","","","","","","","","",""
"","html-keyboard-response","344","414167","0.0-629.0","7h089edp","1920","1080","","","","","","","","","","","null","+","Fixation - short","","null","","","","","","","","","","","","",""
"","html-keyboard-response","345","414729","0.0-630.0","7h089edp","1920","1080","","","","","","","","","","","561","mts","Diagnostic trial","","j","12","0","false","true","RIGHT","j","1","","RIGHT","true","","",""
"","html-keyboard-response","346","415482","0.0-633.0","7h089edp","1920","1080","","","","","","","","","","","null","+","Fixation - short","","null","","","","","","","","","","","","",""
"","html-keyboard-response","347","416050","0.0-634.0","7h089edp","1920","1080","","","","","","","","","","","566","rbc","Diagnostic trial","","f","12","1","false","false","LEFT","f","1","","LEFT","true","","",""
"","html-keyboard-response","348","416813","0.0-637.0","7h089edp","1920","1080","","","","","","","","","","","null","+","Fixation - short","","null","","","","","","","","","","","","",""
"","html-keyboard-response","349","417328","0.0-638.0","7h089edp","1920","1080","","","","","","","","","","","513","rbc","Diagnostic trial","","f","12","2","false","false","LEFT","f","1","","LEFT","true","","",""
"","html-keyboard-response","350","418086","0.0-641.0","7h089edp","1920","1080","","","","","","","","","","","null","+","Fixation - short","","null","","","","","","","","","","","","",""
"","html-keyboard-response","351","418563","0.0-642.0","7h089edp","1920","1080","","","","","","","","","","","475","rbc","Diagnostic trial","","j","12","3","false","true","RIGHT","j","1","","LEFT","false","","",""
"","html-keyboard-response","352","419328","0.0-645.0","7h089edp","1920","1080","","","","","","","","","","","null","+","Fixation - short","","null","","","","","","","","","","","","",""
"","html-keyboard-response","353","419757","0.0-646.0","7h089edp","1920","1080","","","","","","","","","","","427","rbc","Diagnostic trial","","f","12","4","false","false","LEFT","f","1","","LEFT","true","","",""
"","html-keyboard-response","354","420523","0.0-649.0","7h089edp","1920","1080","","","","","","","","","","","null","+","Fixation - short","","null","","","","","","","","","","","","",""
"","html-keyboard-response","355","421012","0.0-650.0","7h089edp","1920","1080","","","","","","","","","","","488","rbc","Diagnostic trial","","f","12","5","false","false","LEFT","f","1","","LEFT","true","","",""
"","html-keyboard-response","356","421776","0.0-653.0","7h089edp","1920","1080","","","","","","","","","","","null","+","Fixation - short","","null","","","","","","","","","","","","",""
"","html-keyboard-response","357","422219","0.0-654.0","7h089edp","1920","1080","","","","","","","","","","","441","rbc","Diagnostic trial","","f","12","6","false","false","LEFT","f","1","","LEFT","true","","",""
"","html-keyboard-response","358","422976","0.0-657.0","7h089edp","1920","1080","","","","","","","","","","","null","+","Fixation - short","","null","","","","","","","","","","","","",""
"","html-keyboard-response","359","423526","0.0-658.0","7h089edp","1920","1080","","","","","","","","","","","549","rbc","Diagnostic trial","","j","12","7","false","true","RIGHT","j","1","","LEFT","false","","",""
"","html-keyboard-response","360","424290","0.0-661.0","7h089edp","1920","1080","","","","","","","","","","","null","+","Fixation - short","","null","","","","","","","","","","","","",""
"","html-keyboard-response","361","424938","0.0-662.0","7h089edp","1920","1080","","","","","","","","","","","647","rbc","Diagnostic trial","","j","12","8","false","true","RIGHT","j","1","","LEFT","false","","",""
"","html-keyboard-response","362","425701","0.0-665.0","7h089edp","1920","1080","","","","","","","","","","","null","+","Fixation - short","","null","","","","","","","","","","","","",""
"","html-keyboard-response","363","426315","0.0-666.0","7h089edp","1920","1080","","","","","","","","","","","613","mts","Inducer trial","","f","12","","true","","","f","1","LEFT","","","","",""
"","html-keyboard-response","364","427818","0.0-669.0","7h089edp","1920","1080","","","","","","","","","","","null","+","Fixation - long","","null","","","","","","","","","","","","",""
"","html-keyboard-response","365","428952","0.0-670.0","7h089edp","1920","1080","","","","","","","","","","","1133","If vrm press RIGHT | If epy press LEFT","Inducer instructions",""," ","13","","","","","","","","","","","",""
"","html-keyboard-response","366","429706","0.0-671.0","7h089edp","1920","1080","","","","","","","","","","","null","+","Fixation - short","","null","","","","","","","","","","","","",""
"","html-keyboard-response","367","430216","0.0-672.0","7h089edp","1920","1080","","","","","","","","","","","509","vrm","Diagnostic trial","","j","13","0","false","true","RIGHT","j","1","","LEFT","false","","",""
"","html-keyboard-response","368","430978","0.0-675.0","7h089edp","1920","1080","","","","","","","","","","","null","+","Fixation - short","","null","","","","","","","","","","","","",""
"","html-keyboard-response","369","431496","0.0-676.0","7h089edp","1920","1080","","","","","","","","","","","517","vrm","Diagnostic trial","","j","13","1","false","true","RIGHT","j","1","","LEFT","false","","",""
"","html-keyboard-response","370","432253","0.0-679.0","7h089edp","1920","1080","","","","","","","","","","","null","+","Fixation - short","","null","","","","","","","","","","","","",""
"","html-keyboard-response","371","432656","0.0-680.0","7h089edp","1920","1080","","","","","","","","","","","402","epy","Diagnostic trial","","j","13","2","false","true","RIGHT","j","1","","RIGHT","true","","",""
"","html-keyboard-response","372","433414","0.0-683.0","7h089edp","1920","1080","","","","","","","","","","","null","+","Fixation - short","","null","","","","","","","","","","","","",""
"","html-keyboard-response","373","433871","0.0-684.0","7h089edp","1920","1080","","","","","","","","","","","455","epy","Diagnostic trial","","f","13","3","false","false","LEFT","f","1","","RIGHT","false","","",""
"","html-keyboard-response","374","434636","0.0-687.0","7h089edp","1920","1080","","","","","","","","","","","null","+","Fixation - short","","null","","","","","","","","","","","","",""
"","html-keyboard-response","375","435079","0.0-688.0","7h089edp","1920","1080","","","","","","","","","","","441","epy","Diagnostic trial","","j","13","4","false","true","RIGHT","j","1","","RIGHT","true","","",""
"","html-keyboard-response","376","435831","0.0-691.0","7h089edp","1920","1080","","","","","","","","","","","null","+","Fixation - short","","null","","","","","","","","","","","","",""
"","html-keyboard-response","377","436395","0.0-692.0","7h089edp","1920","1080","","","","","","","","","","","563","vrm","Diagnostic trial","","j","13","5","false","true","RIGHT","j","1","","LEFT","false","","",""
"","html-keyboard-response","378","437154","0.0-695.0","7h089edp","1920","1080","","","","","","","","","","","null","+","Fixation - short","","null","","","","","","","","","","","","",""
"","html-keyboard-response","379","437598","0.0-696.0","7h089edp","1920","1080","","","","","","","","","","","443","vrm","Diagnostic trial","","j","13","6","false","true","RIGHT","j","1","","LEFT","false","","",""
"","html-keyboard-response","380","438350","0.0-699.0","7h089edp","1920","1080","","","","","","","","","","","null","+","Fixation - short","","null","","","","","","","","","","","","",""
"","html-keyboard-response","381","438901","0.0-700.0","7h089edp","1920","1080","","","","","","","","","","","550","epy","Diagnostic trial","","f","13","7","false","false","LEFT","f","1","","RIGHT","false","","",""
"","html-keyboard-response","382","439668","0.0-703.0","7h089edp","1920","1080","","","","","","","","","","","null","+","Fixation - short","","null","","","","","","","","","","","","",""
"","html-keyboard-response","383","440161","0.0-704.0","7h089edp","1920","1080","","","","","","","","","","","491","vrm","Diagnostic trial","","j","13","8","false","true","RIGHT","j","1","","LEFT","false","","",""
"","html-keyboard-response","384","440924","0.0-707.0","7h089edp","1920","1080","","","","","","","","","","","null","+","Fixation - short","","null","","","","","","","","","","","","",""
"","html-keyboard-response","385","441451","0.0-708.0","7h089edp","1920","1080","","","","","","","","","","","525","epy","Diagnostic trial","","f","13","9","false","false","LEFT","f","1","","RIGHT","false","","",""
"","html-keyboard-response","386","442212","0.0-711.0","7h089edp","1920","1080","","","","","","","","","","","null","+","Fixation - short","","null","","","","","","","","","","","","",""
"","html-keyboard-response","387","442728","0.0-712.0","7h089edp","1920","1080","","","","","","","","","","","515","epy","Inducer trial","","f","13","","true","","","f","1","LEFT","","","","",""
"","html-keyboard-response","388","444242","0.0-715.0","7h089edp","1920","1080","","","","","","","","","","","null","+","Fixation - long","","null","","","","","","","","","","","","",""
"","html-keyboard-response","389","445950","0.0-716.0","7h089edp","1920","1080","","","","","","","","","","","1707","If dgv press RIGHT | If hfs press LEFT","Inducer instructions",""," ","14","","","","","","","","","","","",""
"","html-keyboard-response","390","446708","0.0-717.0","7h089edp","1920","1080","","","","","","","","","","","null","+","Fixation - short","","null","","","","","","","","","","","","",""
"","html-keyboard-response","391","447213","0.0-718.0","7h089edp","1920","1080","","","","","","","","","","","504","dgv","Diagnostic trial","","f","14","0","false","false","LEFT","f","1","","LEFT","true","","",""
"","html-keyboard-response","392","447968","0.0-721.0","7h089edp","1920","1080","","","","","","","","","","","null","+","Fixation - short","","null","","","","","","","","","","","","",""
"","html-keyboard-response","393","448385","0.0-722.0","7h089edp","1920","1080","","","","","","","","","","","416","dgv","Diagnostic trial","","f","14","1","false","false","LEFT","f","1","","LEFT","true","","",""
"","html-keyboard-response","394","449148","0.0-725.0","7h089edp","1920","1080","","","","","","","","","","","null","+","Fixation - short","","null","","","","","","","","","","","","",""
"","html-keyboard-response","395","449668","0.0-726.0","7h089edp","1920","1080","","","","","","","","","","","519","dgv","Diagnostic trial","","j","14","2","false","true","RIGHT","j","1","","LEFT","false","","",""
"","html-keyboard-response","396","450421","0.0-729.0","7h089edp","1920","1080","","","","","","","","","","","null","+","Fixation - short","","null","","","","","","","","","","","","",""
"","html-keyboard-response","397","450867","0.0-730.0","7h089edp","1920","1080","","","","","","","","","","","445","dgv","Diagnostic trial","","j","14","3","false","true","RIGHT","j","1","","LEFT","false","","",""
"","html-keyboard-response","398","451628","0.0-733.0","7h089edp","1920","1080","","","","","","","","","","","null","+","Fixation - short","","null","","","","","","","","","","","","",""
"","html-keyboard-response","399","452080","0.0-734.0","7h089edp","1920","1080","","","","","","","","","","","451","dgv","Diagnostic trial","","j","14","4","false","true","RIGHT","j","1","","LEFT","false","","",""
"","html-keyboard-response","400","452835","0.0-737.0","7h089edp","1920","1080","","","","","","","","","","","null","+","Fixation - short","","null","","","","","","","","","","","","",""
"","html-keyboard-response","401","453280","0.0-738.0","7h089edp","1920","1080","","","","","","","","","","","444","hfs","Diagnostic trial","","f","14","5","false","false","LEFT","f","1","","RIGHT","false","","",""
"","html-keyboard-response","402","454042","0.0-741.0","7h089edp","1920","1080","","","","","","","","","","","null","+","Fixation - short","","null","","","","","","","","","","","","",""
"","html-keyboard-response","403","454556","0.0-742.0","7h089edp","1920","1080","","","","","","","","","","","513","dgv","Diagnostic trial","","j","14","6","false","true","RIGHT","j","1","","LEFT","false","","",""
"","html-keyboard-response","404","455314","0.0-745.0","7h089edp","1920","1080","","","","","","","","","","","null","+","Fixation - short","","null","","","","","","","","","","","","",""
"","html-keyboard-response","405","455786","0.0-746.0","7h089edp","1920","1080","","","","","","","","","","","471","hfs","Diagnostic trial","","f","14","7","false","false","LEFT","f","1","","RIGHT","false","","",""
"","html-keyboard-response","406","456552","0.0-749.0","7h089edp","1920","1080","","","","","","","","","","","null","+","Fixation - short","","null","","","","","","","","","","","","",""
"","html-keyboard-response","407","457242","0.0-750.0","7h089edp","1920","1080","","","","","","","","","","","688","dgv","Diagnostic trial","","j","14","8","false","true","RIGHT","j","1","","LEFT","false","","",""
"","html-keyboard-response","408","458004","0.0-753.0","7h089edp","1920","1080","","","","","","","","","","","null","+","Fixation - short","","null","","","","","","","","","","","","",""
"","html-keyboard-response","409","458547","0.0-754.0","7h089edp","1920","1080","","","","","","","","","","","542","hfs","Diagnostic trial","","j","14","9","false","true","RIGHT","j","1","","RIGHT","true","","",""
"","html-keyboard-response","410","459304","0.0-757.0","7h089edp","1920","1080","","","","","","","","","","","null","+","Fixation - short","","null","","","","","","","","","","","","",""
"","html-keyboard-response","411","459786","0.0-758.0","7h089edp","1920","1080","","","","","","","","","","","481","dgv","Diagnostic trial","","j","14","10","false","true","RIGHT","j","1","","LEFT","false","","",""
"","html-keyboard-response","412","460546","0.0-761.0","7h089edp","1920","1080","","","","","","","","","","","null","+","Fixation - short","","null","","","","","","","","","","","","",""
"","html-keyboard-response","413","461168","0.0-762.0","7h089edp","1920","1080","","","","","","","","","","","621","dgv","Inducer trial","","j","14","","true","","","j","1","RIGHT","","","","",""
"","html-keyboard-response","414","462682","0.0-765.0","7h089edp","1920","1080","","","","","","","","","","","null","+","Fixation - long","","null","","","","","","","","","","","","",""
"","html-keyboard-response","415","463882","0.0-766.0","7h089edp","1920","1080","","","","","","","","","","","1198","If chy press RIGHT | If dof press LEFT","Inducer instructions",""," ","15","","","","","","","","","","","",""
"","html-keyboard-response","416","464645","0.0-767.0","7h089edp","1920","1080","","","","","","","","","","","null","+","Fixation - short","","null","","","","","","","","","","","","",""
"","html-keyboard-response","417","465279","0.0-768.0","7h089edp","1920","1080","","","","","","","","","","","633","chy","Diagnostic trial","","f","15","0","false","false","LEFT","f","1","","LEFT","true","","",""
"","html-keyboard-response","418","466043","0.0-771.0","7h089edp","1920","1080","","","","","","","","","","","null","+","Fixation - short","","null","","","","","","","","","","","","",""
"","html-keyboard-response","419","466454","0.0-772.0","7h089edp","1920","1080","","","","","","","","","","","410","chy","Diagnostic trial","","f","15","1","false","false","LEFT","f","1","","LEFT","true","","",""
"","html-keyboard-response","420","467222","0.0-775.0","7h089edp","1920","1080","","","","","","","","","","","null","+","Fixation - short","","null","","","","","","","","","","","","",""
"","html-keyboard-response","421","467733","0.0-776.0","7h089edp","1920","1080","","","","","","","","","","","510","dof","Diagnostic trial","","f","15","2","false","false","LEFT","f","1","","RIGHT","false","","",""
"","html-keyboard-response","422","468493","0.0-779.0","7h089edp","1920","1080","","","","","","","","","","","null","+","Fixation - short","","null","","","","","","","","","","","","",""
"","html-keyboard-response","423","468906","0.0-780.0","7h089edp","1920","1080","","","","","","","","","","","411","dof","Diagnostic trial","","f","15","3","false","false","LEFT","f","1","","RIGHT","false","","",""
"","html-keyboard-response","424","469672","0.0-783.0","7h089edp","1920","1080","","","","","","","","","","","null","+","Fixation - short","","null","","","","","","","","","","","","",""
"","html-keyboard-response","425","470156","0.0-784.0","7h089edp","1920","1080","","","","","","","","","","","483","chy","Diagnostic trial","","j","15","4","false","true","RIGHT","j","1","","LEFT","false","","",""
"","html-keyboard-response","426","470921","0.0-787.0","7h089edp","1920","1080","","","","","","","","","","","null","+","Fixation - short","","null","","","","","","","","","","","","",""
"","html-keyboard-response","427","471425","0.0-788.0","7h089edp","1920","1080","","","","","","","","","","","503","chy","Diagnostic trial","","f","15","5","false","false","LEFT","f","1","","LEFT","true","","",""
"","html-keyboard-response","428","472177","0.0-791.0","7h089edp","1920","1080","","","","","","","","","","","null","+","Fixation - short","","null","","","","","","","","","","","","",""
"","html-keyboard-response","429","472615","0.0-792.0","7h089edp","1920","1080","","","","","","","","","","","437","dof","Diagnostic trial","","f","15","6","false","false","LEFT","f","1","","RIGHT","false","","",""
"","html-keyboard-response","430","473368","0.0-795.0","7h089edp","1920","1080","","","","","","","","","","","null","+","Fixation - short","","null","","","","","","","","","","","","",""
"","html-keyboard-response","431","473809","0.0-796.0","7h089edp","1920","1080","","","","","","","","","","","439","dof","Diagnostic trial","","j","15","7","false","true","RIGHT","j","1","","RIGHT","true","","",""
"","html-keyboard-response","432","474576","0.0-799.0","7h089edp","1920","1080","","","","","","","","","","","null","+","Fixation - short","","null","","","","","","","","","","","","",""
"","html-keyboard-response","433","475032","0.0-800.0","7h089edp","1920","1080","","","","","","","","","","","455","chy","Diagnostic trial","","j","15","8","false","true","RIGHT","j","1","","LEFT","false","","",""
"","html-keyboard-response","434","475790","0.0-803.0","7h089edp","1920","1080","","","","","","","","","","","null","+","Fixation - short","","null","","","","","","","","","","","","",""
"","html-keyboard-response","435","476292","0.0-804.0","7h089edp","1920","1080","","","","","","","","","","","501","chy","Diagnostic trial","","f","15","9","false","false","LEFT","f","1","","LEFT","true","","",""
"","html-keyboard-response","436","477048","0.0-807.0","7h089edp","1920","1080","","","","","","","","","","","null","+","Fixation - short","","null","","","","","","","","","","","","",""
"","html-keyboard-response","437","477532","0.0-808.0","7h089edp","1920","1080","","","","","","","","","","","483","chy","Diagnostic trial","","f","15","10","false","false","LEFT","f","1","","LEFT","true","","",""
"","html-keyboard-response","438","478291","0.0-811.0","7h089edp","1920","1080","","","","","","","","","","","null","+","Fixation - short","","null","","","","","","","","","","","","",""
"","html-keyboard-response","439","478927","0.0-812.0","7h089edp","1920","1080","","","","","","","","","","","635","chy","Inducer trial","","j","15","","true","","","j","1","RIGHT","","","","",""
"","html-keyboard-response","440","480440","0.0-815.0","7h089edp","1920","1080","","","","","","","","","","","null","+","Fixation - long","","null","","","","","","","","","","","","",""
"","html-keyboard-response","441","481431","0.0-816.0","7h089edp","1920","1080","","","","","","","","","","","990","If frn press RIGHT | If drk press LEFT","Inducer instructions",""," ","16","","","","","","","","","","","",""
"","html-keyboard-response","442","482186","0.0-817.0","7h089edp","1920","1080","","","","","","","","","","","null","+","Fixation - short","","null","","","","","","","","","","","","",""
"","html-keyboard-response","443","482696","0.0-818.0","7h089edp","1920","1080","","","","","","","","","","","508","drk","Diagnostic trial","","j","16","0","false","true","RIGHT","j","1","","RIGHT","true","","",""
"","html-keyboard-response","444","483455","0.0-821.0","7h089edp","1920","1080","","","","","","","","","","","null","+","Fixation - short","","null","","","","","","","","","","","","",""
"","html-keyboard-response","445","483860","0.0-822.0","7h089edp","1920","1080","","","","","","","","","","","404","drk","Diagnostic trial","","j","16","1","false","true","RIGHT","j","1","","RIGHT","true","","",""
"","html-keyboard-response","446","484616","0.0-825.0","7h089edp","1920","1080","","","","","","","","","","","null","+","Fixation - short","","null","","","","","","","","","","","","",""
"","html-keyboard-response","447","485088","0.0-826.0","7h089edp","1920","1080","","","","","","","","","","","471","frn","Diagnostic trial","","f","16","2","false","false","LEFT","f","1","","LEFT","true","","",""
"","html-keyboard-response","448","485849","0.0-829.0","7h089edp","1920","1080","","","","","","","","","","","null","+","Fixation - short","","null","","","","","","","","","","","","",""
"","html-keyboard-response","449","486280","0.0-830.0","7h089edp","1920","1080","","","","","","","","","","","430","drk","Diagnostic trial","","f","16","3","false","false","LEFT","f","1","","RIGHT","false","","",""
"","html-keyboard-response","450","487042","0.0-833.0","7h089edp","1920","1080","","","","","","","","","","","null","+","Fixation - short","","null","","","","","","","","","","","","",""
"","html-keyboard-response","451","487471","0.0-834.0","7h089edp","1920","1080","","","","","","","","","","","428","frn","Diagnostic trial","","j","16","4","false","true","RIGHT","j","1","","LEFT","false","","",""
"","html-keyboard-response","452","488235","0.0-837.0","7h089edp","1920","1080","","","","","","","","","","","null","+","Fixation - short","","null","","","","","","","","","","","","",""
"","html-keyboard-response","453","488692","0.0-838.0","7h089edp","1920","1080","","","","","","","","","","","455","drk","Diagnostic trial","","f","16","5","false","false","LEFT","f","1","","RIGHT","false","","",""
"","html-keyboard-response","454","489445","0.0-841.0","7h089edp","1920","1080","","","","","","","","","","","null","+","Fixation - short","","null","","","","","","","","","","","","",""
"","html-keyboard-response","455","489872","0.0-842.0","7h089edp","1920","1080","","","","","","","","","","","426","drk","Diagnostic trial","","j","16","6","false","true","RIGHT","j","1","","RIGHT","true","","",""
"","html-keyboard-response","456","490636","0.0-845.0","7h089edp","1920","1080","","","","","","","","","","","null","+","Fixation - short","","null","","","","","","","","","","","","",""
"","html-keyboard-response","457","491153","0.0-846.0","7h089edp","1920","1080","","","","","","","","","","","516","frn","Diagnostic trial","","f","16","7","false","false","LEFT","f","1","","LEFT","true","","",""
"","html-keyboard-response","458","491920","0.0-849.0","7h089edp","1920","1080","","","","","","","","","","","null","+","Fixation - short","","null","","","","","","","","","","","","",""
"","html-keyboard-response","459","492323","0.0-850.0","7h089edp","1920","1080","","","","","","","","","","","401","drk","Diagnostic trial","","j","16","8","false","true","RIGHT","j","1","","RIGHT","true","","",""
"","html-keyboard-response","460","493083","0.0-853.0","7h089edp","1920","1080","","","","","","","","","","","null","+","Fixation - short","","null","","","","","","","","","","","","",""
"","html-keyboard-response","461","493647","0.0-854.0","7h089edp","1920","1080","","","","","","","","","","","563","drk","Diagnostic trial","","f","16","9","false","false","LEFT","f","1","","RIGHT","false","","",""
"","html-keyboard-response","462","494402","0.0-857.0","7h089edp","1920","1080","","","","","","","","","","","null","+","Fixation - short","","null","","","","","","","","","","","","",""
"","html-keyboard-response","463","494923","0.0-858.0","7h089edp","1920","1080","","","","","","","","","","","520","drk","Diagnostic trial","","f","16","10","false","false","LEFT","f","1","","RIGHT","false","","",""
"","html-keyboard-response","464","495688","0.0-861.0","7h089edp","1920","1080","","","","","","","","","","","null","+","Fixation - short","","null","","","","","","","","","","","","",""
"","html-keyboard-response","465","496099","0.0-862.0","7h089edp","1920","1080","","","","","","","","","","","409","drk","Diagnostic trial","","f","16","11","false","false","LEFT","f","1","","RIGHT","false","","",""
"","html-keyboard-response","466","496864","0.0-865.0","7h089edp","1920","1080","","","","","","","","","","","null","+","Fixation - short","","null","","","","","","","","","","","","",""
"","html-keyboard-response","467","497857","0.0-866.0","7h089edp","1920","1080","","","","","","","","","","","991","frn","Diagnostic trial","","f","16","12","false","false","LEFT","f","1","","LEFT","true","","",""
"","html-keyboard-response","468","498619","0.0-869.0","7h089edp","1920","1080","","","","","","","","","","","null","+","Fixation - short","","null","","","","","","","","","","","","",""
"","html-keyboard-response","469","499070","0.0-870.0","7h089edp","1920","1080","","","","","","","","","","","449","drk","Inducer trial","","f","16","","true","","","f","1","LEFT","","","","",""
"","html-keyboard-response","470","500573","0.0-873.0","7h089edp","1920","1080","","","","","","","","","","","null","+","Fixation - long","","null","","","","","","","","","","","","",""
"","html-keyboard-response","471","501705","0.0-874.0","7h089edp","1920","1080","","","","","","","","","","","1130","If zpl press RIGHT | If cer press LEFT","Inducer instructions",""," ","17","","","","","","","","","","","",""
"","html-keyboard-response","472","502466","0.0-875.0","7h089edp","1920","1080","","","","","","","","","","","null","+","Fixation - short","","null","","","","","","","","","","","","",""
"","html-keyboard-response","473","503072","0.0-876.0","7h089edp","1920","1080","","","","","","","","","","","605","zpl","Diagnostic trial","","f","17","0","false","false","LEFT","f","1","","LEFT","true","","",""
"","html-keyboard-response","474","503830","0.0-879.0","7h089edp","1920","1080","","","","","","","","","","","null","+","Fixation - short","","null","","","","","","","","","","","","",""
"","html-keyboard-response","475","504260","0.0-880.0","7h089edp","1920","1080","","","","","","","","","","","428","zpl","Diagnostic trial","","f","17","1","false","false","LEFT","f","1","","LEFT","true","","",""
"","html-keyboard-response","476","505022","0.0-883.0","7h089edp","1920","1080","","","","","","","","","","","null","+","Fixation - short","","null","","","","","","","","","","","","",""
"","html-keyboard-response","477","505484","0.0-884.0","7h089edp","1920","1080","","","","","","","","","","","461","zpl","Diagnostic trial","","j","17","2","false","true","RIGHT","j","1","","LEFT","false","","",""
"","html-keyboard-response","478","506236","0.0-887.0","7h089edp","1920","1080","","","","","","","","","","","null","+","Fixation - short","","null","","","","","","","","","","","","",""
"","html-keyboard-response","479","506672","0.0-888.0","7h089edp","1920","1080","","","","","","","","","","","435","cer","Diagnostic trial","","j","17","3","false","true","RIGHT","j","1","","RIGHT","true","","",""
"","html-keyboard-response","480","507428","0.0-891.0","7h089edp","1920","1080","","","","","","","","","","","null","+","Fixation - short","","null","","","","","","","","","","","","",""
"","html-keyboard-response","481","508073","0.0-892.0","7h089edp","1920","1080","","","","","","","","","","","643","cer","Diagnostic trial","","j","17","4","false","true","RIGHT","j","1","","RIGHT","true","","",""
"","html-keyboard-response","482","508826","0.0-895.0","7h089edp","1920","1080","","","","","","","","","","","null","+","Fixation - short","","null","","","","","","","","","","","","",""
"","html-keyboard-response","483","509238","0.0-896.0","7h089edp","1920","1080","","","","","","","","","","","411","zpl","Diagnostic trial","","j","17","5","false","true","RIGHT","j","1","","LEFT","false","","",""
"","html-keyboard-response","484","510005","0.0-899.0","7h089edp","1920","1080","","","","","","","","","","","null","+","Fixation - short","","null","","","","","","","","","","","","",""
"","html-keyboard-response","485","510422","0.0-900.0","7h089edp","1920","1080","","","","","","","","","","","415","cer","Diagnostic trial","","j","17","6","false","true","RIGHT","j","1","","RIGHT","true","","",""
"","html-keyboard-response","486","511184","0.0-903.0","7h089edp","1920","1080","","","","","","","","","","","null","+","Fixation - short","","null","","","","","","","","","","","","",""
"","html-keyboard-response","487","511620","0.0-904.0","7h089edp","1920","1080","","","","","","","","","","","435","zpl","Diagnostic trial","","f","17","7","false","false","LEFT","f","1","","LEFT","true","","",""
"","html-keyboard-response","488","512383","0.0-907.0","7h089edp","1920","1080","","","","","","","","","","","null","+","Fixation - short","","null","","","","","","","","","","","","",""
"","html-keyboard-response","489","512837","0.0-908.0","7h089edp","1920","1080","","","","","","","","","","","453","cer","Diagnostic trial","","f","17","8","false","false","LEFT","f","1","","RIGHT","false","","",""
"","html-keyboard-response","490","513592","0.0-911.0","7h089edp","1920","1080","","","","","","","","","","","null","+","Fixation - short","","null","","","","","","","","","","","","",""
"","html-keyboard-response","491","514188","0.0-912.0","7h089edp","1920","1080","","","","","","","","","","","595","zpl","Inducer trial","","j","17","","true","","","j","1","RIGHT","","","","",""
"","html-keyboard-response","492","515694","0.0-915.0","7h089edp","1920","1080","","","","","","","","","","","null","+","Fixation - long","","null","","","","","","","","","","","","",""
