"value","trial_type","trial_index","time_elapsed","internal_node_id","id","width","height","webaudio","browser","browser_version","mobile","os","fullscreen","vsync_rate","webcam","microphone","view_history","rt","stimulus","trial_info","success","response","inducer_run","diagnostic_run","inducer_trial","italic","correct_diag_response_side","correct_response_key","correct_response","correct_indu_response_side","correct_inducer_response_side","congruent","accuracy","open_feedback","interactive"
"","call-function","0","3","0.0-0.0","18volbmw","","","","","","","","","","","","","","","","","","","","","","","","","","","","","",""
"","browser-check","1","4067","0.0-1.0","18volbmw","1600","773","true","chrome","121.0.0","false","Windows 10","true","14.79","true","true","","","","","","","","","","","","","","","","","","",""
"","instructions","2","40799","0.0-2.0","18volbmw","","","","","","","","","","","","[{""page_index"":0,""viewing_time"":15836},{""page_index"":1,""viewing_time"":17787},{""page_index"":2,""viewing_time"":3108}]","36731","The experiment and consent","The experiment and consent","","","","","","","","","","","","","","",""
"","fullscreen","3","48395","0.0-3.0","18volbmw","1600","900","","","","","","","","","","","6575","","Full screen","true","","","","","","","","","","","","","",""
"","instructions","4","96639","0.0-4.0","18volbmw","1600","900","","","","","","","","","","[{""page_index"":0,""viewing_time"":42414},{""page_index"":1,""viewing_time"":5827}]","48241","Instructions","Basic overview explanation","","","","","","","","","","","","","","",""
"","html-keyboard-response","5","118157","0.0-5.0","18volbmw","1600","900","","","","","","","","","","","null","If italic press LEFT | If upright press RIGHT","Diagnostic instructions","","null","","","","","","","","","","","","",""
"","html-keyboard-response","6","118914","0.0-6.0","18volbmw","1600","900","","","","","","","","","","","null","+","Fixation - short","","null","","","","","","","","","","","","",""
"","html-keyboard-response","7","120146","0.0-7.0","18volbmw","1600","900","","","","","","","","","","","1230","yoy","Practice diganostic trial","","j","practice","0","false","0","RIGHT","j","1","","","","","",""
"","html-keyboard-response","8","120912","0.0-10.0","18volbmw","1600","900","","","","","","","","","","","null","+","Fixation - short","","null","","","","","","","","","","","","",""
"","html-keyboard-response","9","121667","0.0-11.0","18volbmw","1600","900","","","","","","","","","","","753","yna","Practice diganostic trial","","j","practice","1","false","1","LEFT","f","0","","","","","",""
"","call-function","10","121668","0.0-13.0-0.0","18volbmw","","","","","","","","","","","","","","","","","","","","","","","","","","","","","",""
"","html-keyboard-response","11","121980","0.0-13.0-1.0","18volbmw","1600","900","","","","","","","","","","","null","Wrong","Feedback","","null","","","","","","","","","","","","",""
"","call-function","12","121980","0.0-13.0-2.0","18volbmw","","","","","","","","","","","","","","","","","","","","","","","","","","","","","",""
"","html-keyboard-response","13","122737","0.0-14.0","18volbmw","1600","900","","","","","","","","","","","null","+","Fixation - short","","null","","","","","","","","","","","","",""
"","html-keyboard-response","14","123281","0.0-15.0","18volbmw","1600","900","","","","","","","","","","","543","yna","Practice diganostic trial","","f","practice","2","false","1","LEFT","f","1","","","","","",""
"","html-keyboard-response","15","124041","0.0-18.0","18volbmw","1600","900","","","","","","","","","","","null","+","Fixation - short","","null","","","","","","","","","","","","",""
"","html-keyboard-response","16","124685","0.0-19.0","18volbmw","1600","900","","","","","","","","","","","643","yna","Practice diganostic trial","","j","practice","3","false","0","RIGHT","j","1","","","","","",""
"","html-keyboard-response","17","125448","0.0-22.0","18volbmw","1600","900","","","","","","","","","","","null","+","Fixation - short","","null","","","","","","","","","","","","",""
"","html-keyboard-response","18","126107","0.0-23.0","18volbmw","1600","900","","","","","","","","","","","657","yna","Practice diganostic trial","","j","practice","4","false","0","RIGHT","j","1","","","","","",""
"","html-keyboard-response","19","126873","0.0-26.0","18volbmw","1600","900","","","","","","","","","","","null","+","Fixation - short","","null","","","","","","","","","","","","",""
"","html-keyboard-response","20","127332","0.0-27.0","18volbmw","1600","900","","","","","","","","","","","457","yna","Practice diganostic trial","","j","practice","5","false","0","RIGHT","j","1","","","","","",""
"","html-keyboard-response","21","128095","0.0-30.0","18volbmw","1600","900","","","","","","","","","","","null","+","Fixation - short","","null","","","","","","","","","","","","",""
"","html-keyboard-response","22","128561","0.0-31.0","18volbmw","1600","900","","","","","","","","","","","465","yna","Practice diganostic trial","","f","practice","6","false","1","LEFT","f","1","","","","","",""
"","html-keyboard-response","23","129319","0.0-34.0","18volbmw","1600","900","","","","","","","","","","","null","+","Fixation - short","","null","","","","","","","","","","","","",""
"","html-keyboard-response","24","129897","0.0-35.0","18volbmw","1600","900","","","","","","","","","","","577","yna","Practice diganostic trial","","j","practice","7","false","0","RIGHT","j","1","","","","","",""
"","html-keyboard-response","25","130668","0.0-38.0","18volbmw","1600","900","","","","","","","","","","","null","+","Fixation - short","","null","","","","","","","","","","","","",""
"","html-keyboard-response","26","131129","0.0-39.0","18volbmw","1600","900","","","","","","","","","","","459","yna","Practice diganostic trial","","j","practice","8","false","1","LEFT","f","0","","","","","",""
"","call-function","27","131129","0.0-41.0-0.0","18volbmw","","","","","","","","","","","","","","","","","","","","","","","","","","","","","",""
"","html-keyboard-response","28","131434","0.0-41.0-1.0","18volbmw","1600","900","","","","","","","","","","","null","Wrong","Feedback","","null","","","","","","","","","","","","",""
"","call-function","29","131434","0.0-41.0-2.0","18volbmw","","","","","","","","","","","","","","","","","","","","","","","","","","","","","",""
"","html-keyboard-response","30","132192","0.0-42.0","18volbmw","1600","900","","","","","","","","","","","null","+","Fixation - short","","null","","","","","","","","","","","","",""
"","html-keyboard-response","31","132727","0.0-43.0","18volbmw","1600","900","","","","","","","","","","","534","yoy","Practice diganostic trial","","j","practice","9","false","0","RIGHT","j","1","","","","","",""
"","html-keyboard-response","32","133483","0.0-46.0","18volbmw","1600","900","","","","","","","","","","","null","+","Fixation - short","","null","","","","","","","","","","","","",""
"","html-keyboard-response","33","133950","0.0-47.0","18volbmw","1600","900","","","","","","","","","","","467","yoy","Practice diganostic trial","","j","practice","10","false","0","RIGHT","j","1","","","","","",""
"","html-keyboard-response","34","134706","0.0-50.0","18volbmw","1600","900","","","","","","","","","","","null","+","Fixation - short","","null","","","","","","","","","","","","",""
"","html-keyboard-response","35","135223","0.0-51.0","18volbmw","1600","900","","","","","","","","","","","516","yoy","Practice diganostic trial","","j","practice","11","false","0","RIGHT","j","1","","","","","",""
"","html-keyboard-response","36","135976","0.0-54.0","18volbmw","1600","900","","","","","","","","","","","null","+","Fixation - short","","null","","","","","","","","","","","","",""
"","html-keyboard-response","37","136657","0.0-55.0","18volbmw","1600","900","","","","","","","","","","","680","yoy","Practice diganostic trial","","f","practice","12","false","1","LEFT","f","1","","","","","",""
"","html-keyboard-response","38","137421","0.0-58.0","18volbmw","1600","900","","","","","","","","","","","null","+","Fixation - short","","null","","","","","","","","","","","","",""
"","html-keyboard-response","39","137925","0.0-59.0","18volbmw","1600","900","","","","","","","","","","","503","yoy","Practice diganostic trial","","j","practice","13","false","1","LEFT","f","0","","","","","",""
"","call-function","40","137926","0.0-61.0-0.0","18volbmw","","","","","","","","","","","","","","","","","","","","","","","","","","","","","",""
"","html-keyboard-response","41","138242","0.0-61.0-1.0","18volbmw","1600","900","","","","","","","","","","","null","Wrong","Feedback","","null","","","","","","","","","","","","",""
"","call-function","42","138242","0.0-61.0-2.0","18volbmw","","","","","","","","","","","","","","","","","","","","","","","","","","","","","",""
"","html-keyboard-response","43","139014","0.0-62.0","18volbmw","1600","900","","","","","","","","","","","null","+","Fixation - short","","null","","","","","","","","","","","","",""
"","html-keyboard-response","44","139544","0.0-63.0","18volbmw","1600","900","","","","","","","","","","","529","yoy","Practice diganostic trial","","f","practice","14","false","1","LEFT","f","1","","","","","",""
"","html-keyboard-response","45","140299","0.0-66.0","18volbmw","1600","900","","","","","","","","","","","null","+","Fixation - short","","null","","","","","","","","","","","","",""
"","html-keyboard-response","46","141024","0.0-67.0","18volbmw","1600","900","","","","","","","","","","","724","yna","Practice diganostic trial","","f","practice","15","false","1","LEFT","f","1","","","","","",""
"","html-keyboard-response","47","141790","0.0-70.0","18volbmw","1600","900","","","","","","","","","","","null","+","Fixation - short","","null","","","","","","","","","","","","",""
"","instructions","48","159969","0.0-71.0","18volbmw","1600","900","","","","","","","","","","[{""page_index"":0,""viewing_time"":18177}]","18178","Instructions","Final experiment explanation","","","","","","","","","","","","","","",""
"","html-keyboard-response","49","169398","0.0-72.0","18volbmw","1600","900","","","","","","","","","","","7913","If asn press LEFT | If oez press RIGHT","Practice inducer instructions",""," ","practice","","","","","","","","","","","",""
"","html-keyboard-response","50","170178","0.0-73.0","18volbmw","1600","900","","","","","","","","","","","778","","Practice inducer trial","","f","practice","","true","","","f","1","LEFT","","","","",""
"","html-keyboard-response","51","170944","0.0-76.0","18volbmw","1600","900","","","","","","","","","","","null","+","Fixation - short","","null","","","","","","","","","","","","",""
"","html-keyboard-response","52","176046","0.0-77.0","18volbmw","1600","900","","","","","","","","","","","5100","If fuc press LEFT | If edc press RIGHT","Practice inducer instructions",""," ","practice","","","","","","","","","","","",""
"","html-keyboard-response","53","176607","0.0-78.0","18volbmw","1600","900","","","","","","","","","","","560","","Practice inducer trial","","f","practice","","true","","","f","1","LEFT","","","","",""
"","html-keyboard-response","54","177367","0.0-81.0","18volbmw","1600","900","","","","","","","","","","","null","+","Fixation - short","","null","","","","","","","","","","","","",""
"","html-keyboard-response","55","180072","0.0-82.0","18volbmw","1600","900","","","","","","","","","","","2704","If ume press LEFT | If jil press RIGHT","Practice inducer instructions",""," ","practice","","","","","","","","","","","",""
"","html-keyboard-response","56","180612","0.0-83.0","18volbmw","1600","900","","","","","","","","","","","539","","Practice inducer trial","","j","practice","","true","","","j","1","RIGHT","","","","",""
"","html-keyboard-response","57","181377","0.0-86.0","18volbmw","1600","900","","","","","","","","","","","null","+","Fixation - short","","null","","","","","","","","","","","","",""
"","html-keyboard-response","58","183211","0.0-87.0","18volbmw","1600","900","","","","","","","","","","","1833","If lct press LEFT | If kmh press RIGHT","Practice inducer instructions",""," ","practice","","","","","","","","","","","",""
"","html-keyboard-response","59","183845","0.0-88.0","18volbmw","1600","900","","","","","","","","","","","632","","Practice inducer trial","","j","practice","","true","","","j","1","RIGHT","","","","",""
"","html-keyboard-response","60","184611","0.0-91.0","18volbmw","1600","900","","","","","","","","","","","null","+","Fixation - short","","null","","","","","","","","","","","","",""
"","html-keyboard-response","61","185960","0.0-92.0","18volbmw","1600","900","","","","","","","","","","","1348","If ttm press LEFT | If hfs press RIGHT","Practice inducer instructions",""," ","practice","","","","","","","","","","","",""
"","html-keyboard-response","62","186521","0.0-93.0","18volbmw","1600","900","","","","","","","","","","","560","","Practice inducer trial","","f","practice","","true","","","f","1","LEFT","","","","",""
"","html-keyboard-response","63","187273","0.0-96.0","18volbmw","1600","900","","","","","","","","","","","null","+","Fixation - short","","null","","","","","","","","","","","","",""
"","html-keyboard-response","64","188711","0.0-97.0","18volbmw","1600","900","","","","","","","","","","","1436","If uus press LEFT | If ofa press RIGHT","Practice inducer instructions",""," ","practice","","","","","","","","","","","",""
"","html-keyboard-response","65","189393","0.0-98.0","18volbmw","1600","900","","","","","","","","","","","681","","Practice inducer trial","","j","practice","","true","","","j","1","RIGHT","","","","",""
"","html-keyboard-response","66","190154","0.0-101.0","18volbmw","1600","900","","","","","","","","","","","null","+","Fixation - short","","null","","","","","","","","","","","","",""
"","html-keyboard-response","67","207681","0.0-102.0","18volbmw","1600","900","","","","","","","","","","","17524","End practice","End of practice",""," ","","","","","","","","","","","","",""
"","html-keyboard-response","68","209193","0.0-103.0","18volbmw","1600","900","","","","","","","","","","","null","+","Fixation - long","","null","","","","","","","","","","","","",""
"","html-keyboard-response","69","213565","0.0-104.0","18volbmw","1600","900","","","","","","","","","","","4370","If rpw press LEFT | If ois press RIGHT","Inducer instructions",""," ","0","","","","","","","","","","","",""
"","html-keyboard-response","70","214342","0.0-105.0","18volbmw","1600","900","","","","","","","","","","","null","+","Fixation - short","","null","","","","","","","","","","","","",""
"","html-keyboard-response","71","214905","0.0-106.0","18volbmw","1600","900","","","","","","","","","","","562","rpw","Diagnostic trial","","f","0","0","false","false","RIGHT","j","0","","LEFT","false","","",""
"","call-function","72","214906","0.0-108.0-0.0","18volbmw","","","","","","","","","","","","","","","","","","","","","","","","","","","","","",""
"","html-keyboard-response","73","215225","0.0-108.0-1.0","18volbmw","1600","900","","","","","","","","","","","null","Wrong","Feedback","","null","","","","","","","","","","","","",""
"","call-function","74","215225","0.0-108.0-2.0","18volbmw","","","","","","","","","","","","","","","","","","","","","","","","","","","","","",""
"","html-keyboard-response","75","215980","0.0-109.0","18volbmw","1600","900","","","","","","","","","","","null","+","Fixation - short","","null","","","","","","","","","","","","",""
"","html-keyboard-response","76","216677","0.0-110.0","18volbmw","1600","900","","","","","","","","","","","696","ois","Diagnostic trial","","f","0","1","false","true","LEFT","f","1","","RIGHT","false","","",""
"","html-keyboard-response","77","217434","0.0-113.0","18volbmw","1600","900","","","","","","","","","","","null","+","Fixation - short","","null","","","","","","","","","","","","",""
"","html-keyboard-response","78","218216","0.0-114.0","18volbmw","1600","900","","","","","","","","","","","781","ois","Diagnostic trial","","f","0","2","false","false","RIGHT","j","0","","RIGHT","true","","",""
"","call-function","79","218217","0.0-116.0-0.0","18volbmw","","","","","","","","","","","","","","","","","","","","","","","","","","","","","",""
"","html-keyboard-response","80","218524","0.0-116.0-1.0","18volbmw","1600","900","","","","","","","","","","","null","Wrong","Feedback","","null","","","","","","","","","","","","",""
"","call-function","81","218525","0.0-116.0-2.0","18volbmw","","","","","","","","","","","","","","","","","","","","","","","","","","","","","",""
"","html-keyboard-response","82","219282","0.0-117.0","18volbmw","1600","900","","","","","","","","","","","null","+","Fixation - short","","null","","","","","","","","","","","","",""
"","html-keyboard-response","83","219809","0.0-118.0","18volbmw","1600","900","","","","","","","","","","","526","ois","Diagnostic trial","","j","0","3","false","true","LEFT","f","0","","RIGHT","false","","",""
"","call-function","84","219809","0.0-120.0-0.0","18volbmw","","","","","","","","","","","","","","","","","","","","","","","","","","","","","",""
"","html-keyboard-response","85","220117","0.0-120.0-1.0","18volbmw","1600","900","","","","","","","","","","","null","Wrong","Feedback","","null","","","","","","","","","","","","",""
"","call-function","86","220118","0.0-120.0-2.0","18volbmw","","","","","","","","","","","","","","","","","","","","","","","","","","","","","",""
"","html-keyboard-response","87","220878","0.0-121.0","18volbmw","1600","900","","","","","","","","","","","null","+","Fixation - short","","null","","","","","","","","","","","","",""
"","html-keyboard-response","88","221796","0.0-122.0","18volbmw","1600","900","","","","","","","","","","","917","ois","Diagnostic trial","","j","0","4","false","false","RIGHT","j","1","","RIGHT","true","","",""
"","html-keyboard-response","89","222552","0.0-125.0","18volbmw","1600","900","","","","","","","","","","","null","+","Fixation - short","","null","","","","","","","","","","","","",""
"","html-keyboard-response","90","223163","0.0-126.0","18volbmw","1600","900","","","","","","","","","","","610","ois","Diagnostic trial","","j","0","5","false","false","RIGHT","j","1","","RIGHT","true","","",""
"","html-keyboard-response","91","223926","0.0-129.0","18volbmw","1600","900","","","","","","","","","","","null","+","Fixation - short","","null","","","","","","","","","","","","",""
"","html-keyboard-response","92","225164","0.0-130.0","18volbmw","1600","900","","","","","","","","","","","1236","rpw","Inducer trial","","f","0","","true","","","f","1","LEFT","","","","",""
"","html-keyboard-response","93","226677","0.0-133.0","18volbmw","1600","900","","","","","","","","","","","null","+","Fixation - long","","null","","","","","","","","","","","","",""
"","html-keyboard-response","94","240837","0.0-134.0","18volbmw","1600","900","","","","","","","","","","","14159","If hlb press LEFT | If bms press RIGHT","Inducer instructions",""," ","1","","","","","","","","","","","",""
"","html-keyboard-response","95","241607","0.0-135.0","18volbmw","1600","900","","","","","","","","","","","null","+","Fixation - short","","null","","","","","","","","","","","","",""
"","html-keyboard-response","96","243174","0.0-136.0","18volbmw","1600","900","","","","","","","","","","","1566","hlb","Diagnostic trial","","f","1","0","false","true","LEFT","f","1","","LEFT","true","","",""
"","html-keyboard-response","97","243935","0.0-139.0","18volbmw","1600","900","","","","","","","","","","","null","+","Fixation - short","","null","","","","","","","","","","","","",""
"","html-keyboard-response","98","245456","0.0-140.0","18volbmw","1600","900","","","","","","","","","","","1521","bms","Diagnostic trial","","j","1","1","false","false","RIGHT","j","1","","RIGHT","true","","",""
"","html-keyboard-response","99","246210","0.0-143.0","18volbmw","1600","900","","","","","","","","","","","null","+","Fixation - short","","null","","","","","","","","","","","","",""
"","html-keyboard-response","100","246995","0.0-144.0","18volbmw","1600","900","","","","","","","","","","","784","bms","Diagnostic trial","","j","1","2","false","false","RIGHT","j","1","","RIGHT","true","","",""
"","html-keyboard-response","101","247756","0.0-147.0","18volbmw","1600","900","","","","","","","","","","","null","+","Fixation - short","","null","","","","","","","","","","","","",""
"","html-keyboard-response","102","248513","0.0-148.0","18volbmw","1600","900","","","","","","","","","","","756","hlb","Diagnostic trial","","j","1","3","false","false","RIGHT","j","1","","LEFT","false","","",""
"","html-keyboard-response","103","249280","0.0-151.0","18volbmw","1600","900","","","","","","","","","","","null","+","Fixation - short","","null","","","","","","","","","","","","",""
"","html-keyboard-response","104","250427","0.0-152.0","18volbmw","1600","900","","","","","","","","","","","1146","bms","Diagnostic trial","","f","1","4","false","true","LEFT","f","1","","RIGHT","false","","",""
"","html-keyboard-response","105","251189","0.0-155.0","18volbmw","1600","900","","","","","","","","","","","null","+","Fixation - short","","null","","","","","","","","","","","","",""
"","html-keyboard-response","106","252285","0.0-156.0","18volbmw","1600","900","","","","","","","","","","","1095","hlb","Diagnostic trial","","j","1","5","false","false","RIGHT","j","1","","LEFT","false","","",""
"","html-keyboard-response","107","253047","0.0-159.0","18volbmw","1600","900","","","","","","","","","","","null","+","Fixation - short","","null","","","","","","","","","","","","",""
"","html-keyboard-response","108","253938","0.0-160.0","18volbmw","1600","900","","","","","","","","","","","890","bms","Diagnostic trial","","j","1","6","false","false","RIGHT","j","1","","RIGHT","true","","",""
"","html-keyboard-response","109","254692","0.0-163.0","18volbmw","1600","900","","","","","","","","","","","null","+","Fixation - short","","null","","","","","","","","","","","","",""
"","html-keyboard-response","110","255525","0.0-164.0","18volbmw","1600","900","","","","","","","","","","","831","hlb","Diagnostic trial","","j","1","7","false","false","RIGHT","j","1","","LEFT","false","","",""
"","html-keyboard-response","111","256284","0.0-167.0","18volbmw","1600","900","","","","","","","","","","","null","+","Fixation - short","","null","","","","","","","","","","","","",""
"","html-keyboard-response","112","256985","0.0-168.0","18volbmw","1600","900","","","","","","","","","","","700","hlb","Diagnostic trial","","f","1","8","false","true","LEFT","f","1","","LEFT","true","","",""
"","html-keyboard-response","113","257738","0.0-171.0","18volbmw","1600","900","","","","","","","","","","","null","+","Fixation - short","","null","","","","","","","","","","","","",""
"","html-keyboard-response","114","258566","0.0-172.0","18volbmw","1600","900","","","","","","","","","","","826","bms","Diagnostic trial","","j","1","9","false","false","RIGHT","j","1","","RIGHT","true","","",""
"","html-keyboard-response","115","259332","0.0-175.0","18volbmw","1600","900","","","","","","","","","","","null","+","Fixation - short","","null","","","","","","","","","","","","",""
"","html-keyboard-response","116","259886","0.0-176.0","18volbmw","1600","900","","","","","","","","","","","553","bms","Diagnostic trial","","j","1","10","false","false","RIGHT","j","1","","RIGHT","true","","",""
"","html-keyboard-response","117","260639","0.0-179.0","18volbmw","1600","900","","","","","","","","","","","null","+","Fixation - short","","null","","","","","","","","","","","","",""
"","html-keyboard-response","118","262190","0.0-180.0","18volbmw","1600","900","","","","","","","","","","","1550","bms","Inducer trial","","j","1","","true","","","j","1","RIGHT","","","","",""
"","html-keyboard-response","119","263704","0.0-183.0","18volbmw","1600","900","","","","","","","","","","","null","+","Fixation - long","","null","","","","","","","","","","","","",""
"","html-keyboard-response","120","273820","0.0-184.0","18volbmw","1600","900","","","","","","","","","","","10115","If quy press LEFT | If wwt press RIGHT","Inducer instructions",""," ","2","","","","","","","","","","","",""
"","html-keyboard-response","121","274594","0.0-185.0","18volbmw","1600","900","","","","","","","","","","","null","+","Fixation - short","","null","","","","","","","","","","","","",""
"","html-keyboard-response","122","275459","0.0-186.0","18volbmw","1600","900","","","","","","","","","","","874","quy","Diagnostic trial","","j","2","0","false","false","RIGHT","j","1","","LEFT","false","","",""
"","html-keyboard-response","123","276223","0.0-189.0","18volbmw","1600","900","","","","","","","","","","","null","+","Fixation - short","","null","","","","","","","","","","","","",""
"","html-keyboard-response","124","276899","0.0-190.0","18volbmw","1600","900","","","","","","","","","","","675","wwt","Diagnostic trial","","f","2","1","false","true","LEFT","f","1","","RIGHT","false","","",""
"","html-keyboard-response","125","277659","0.0-193.0","18volbmw","1600","900","","","","","","","","","","","null","+","Fixation - short","","null","","","","","","","","","","","","",""
"","html-keyboard-response","126","278332","0.0-194.0","18volbmw","1600","900","","","","","","","","","","","672","quy","Diagnostic trial","","j","2","2","false","false","RIGHT","j","1","","LEFT","false","","",""
"","html-keyboard-response","127","279104","0.0-197.0","18volbmw","1600","900","","","","","","","","","","","null","+","Fixation - short","","null","","","","","","","","","","","","",""
"","html-keyboard-response","128","280093","0.0-198.0","18volbmw","1600","900","","","","","","","","","","","987","quy","Diagnostic trial","","j","2","3","false","false","RIGHT","j","1","","LEFT","false","","",""
"","html-keyboard-response","129","280859","0.0-201.0","18volbmw","1600","900","","","","","","","","","","","null","+","Fixation - short","","null","","","","","","","","","","","","",""
"","html-keyboard-response","130","281531","0.0-202.0","18volbmw","1600","900","","","","","","","","","","","670","quy","Diagnostic trial","","f","2","4","false","true","LEFT","f","1","","LEFT","true","","",""
"","html-keyboard-response","131","282297","0.0-205.0","18volbmw","1600","900","","","","","","","","","","","null","+","Fixation - short","","null","","","","","","","","","","","","",""
"","html-keyboard-response","132","283046","0.0-206.0","18volbmw","1600","900","","","","","","","","","","","747","quy","Diagnostic trial","","f","2","5","false","true","LEFT","f","1","","LEFT","true","","",""
"","html-keyboard-response","133","283807","0.0-209.0","18volbmw","1600","900","","","","","","","","","","","null","+","Fixation - short","","null","","","","","","","","","","","","",""
"","html-keyboard-response","134","284465","0.0-210.0","18volbmw","1600","900","","","","","","","","","","","657","quy","Diagnostic trial","","j","2","6","false","false","RIGHT","j","1","","LEFT","false","","",""
"","html-keyboard-response","135","285236","0.0-213.0","18volbmw","1600","900","","","","","","","","","","","null","+","Fixation - short","","null","","","","","","","","","","","","",""
"","html-keyboard-response","136","285789","0.0-214.0","18volbmw","1600","900","","","","","","","","","","","552","quy","Diagnostic trial","","j","2","7","false","false","RIGHT","j","1","","LEFT","false","","",""
"","html-keyboard-response","137","286543","0.0-217.0","18volbmw","1600","900","","","","","","","","","","","null","+","Fixation - short","","null","","","","","","","","","","","","",""
"","html-keyboard-response","138","287008","0.0-218.0","18volbmw","1600","900","","","","","","","","","","","464","quy","Diagnostic trial","","j","2","8","false","false","RIGHT","j","1","","LEFT","false","","",""
"","html-keyboard-response","139","287766","0.0-221.0","18volbmw","1600","900","","","","","","","","","","","null","+","Fixation - short","","null","","","","","","","","","","","","",""
"","html-keyboard-response","140","288364","0.0-222.0","18volbmw","1600","900","","","","","","","","","","","596","wwt","Diagnostic trial","","f","2","9","false","true","LEFT","f","1","","RIGHT","false","","",""
"","html-keyboard-response","141","289121","0.0-225.0","18volbmw","1600","900","","","","","","","","","","","null","+","Fixation - short","","null","","","","","","","","","","","","",""
"","html-keyboard-response","142","290066","0.0-226.0","18volbmw","1600","900","","","","","","","","","","","944","wwt","Diagnostic trial","","j","2","10","false","false","RIGHT","j","1","","RIGHT","true","","",""
"","html-keyboard-response","143","290818","0.0-229.0","18volbmw","1600","900","","","","","","","","","","","null","+","Fixation - short","","null","","","","","","","","","","","","",""
"","html-keyboard-response","144","291219","0.0-230.0","18volbmw","1600","900","","","","","","","","","","","400","wwt","Diagnostic trial","","j","2","11","false","false","RIGHT","j","1","","RIGHT","true","","",""
"","html-keyboard-response","145","291989","0.0-233.0","18volbmw","1600","900","","","","","","","","","","","null","+","Fixation - short","","null","","","","","","","","","","","","",""
"","html-keyboard-response","146","292694","0.0-234.0","18volbmw","1600","900","","","","","","","","","","","704","quy","Diagnostic trial","","j","2","12","false","false","RIGHT","j","1","","LEFT","false","","",""
"","html-keyboard-response","147","293458","0.0-237.0","18volbmw","1600","900","","","","","","","","","","","null","+","Fixation - short","","null","","","","","","","","","","","","",""
"","html-keyboard-response","148","294700","0.0-238.0","18volbmw","1600","900","","","","","","","","","","","1240","wwt","Inducer trial","","j","2","","true","","","j","1","RIGHT","","","","",""
"","html-keyboard-response","149","296212","0.0-241.0","18volbmw","1600","900","","","","","","","","","","","null","+","Fixation - long","","null","","","","","","","","","","","","",""
"","html-keyboard-response","150","304331","0.0-242.0","18volbmw","1600","900","","","","","","","","","","","8118","If ibg press LEFT | If jsf press RIGHT","Inducer instructions",""," ","3","","","","","","","","","","","",""
"","html-keyboard-response","151","305095","0.0-243.0","18volbmw","1600","900","","","","","","","","","","","null","+","Fixation - short","","null","","","","","","","","","","","","",""
"","html-keyboard-response","152","305799","0.0-244.0","18volbmw","1600","900","","","","","","","","","","","703","jsf","Diagnostic trial","","j","3","0","false","false","RIGHT","j","1","","RIGHT","true","","",""
"","html-keyboard-response","153","306573","0.0-247.0","18volbmw","1600","900","","","","","","","","","","","null","+","Fixation - short","","null","","","","","","","","","","","","",""
"","html-keyboard-response","154","307427","0.0-248.0","18volbmw","1600","900","","","","","","","","","","","853","jsf","Diagnostic trial","","f","3","1","false","true","LEFT","f","1","","RIGHT","false","","",""
"","html-keyboard-response","155","308183","0.0-251.0","18volbmw","1600","900","","","","","","","","","","","null","+","Fixation - short","","null","","","","","","","","","","","","",""
"","html-keyboard-response","156","308832","0.0-252.0","18volbmw","1600","900","","","","","","","","","","","647","ibg","Diagnostic trial","","f","3","2","false","true","LEFT","f","1","","LEFT","true","","",""
"","html-keyboard-response","157","309590","0.0-255.0","18volbmw","1600","900","","","","","","","","","","","null","+","Fixation - short","","null","","","","","","","","","","","","",""
"","html-keyboard-response","158","310142","0.0-256.0","18volbmw","1600","900","","","","","","","","","","","550","jsf","Diagnostic trial","","f","3","3","false","true","LEFT","f","1","","RIGHT","false","","",""
"","html-keyboard-response","159","310897","0.0-259.0","18volbmw","1600","900","","","","","","","","","","","null","+","Fixation - short","","null","","","","","","","","","","","","",""
"","html-keyboard-response","160","311564","0.0-260.0","18volbmw","1600","900","","","","","","","","","","","665","jsf","Diagnostic trial","","j","3","4","false","false","RIGHT","j","1","","RIGHT","true","","",""
"","html-keyboard-response","161","312321","0.0-263.0","18volbmw","1600","900","","","","","","","","","","","null","+","Fixation - short","","null","","","","","","","","","","","","",""
"","html-keyboard-response","162","313043","0.0-264.0","18volbmw","1600","900","","","","","","","","","","","720","jsf","Diagnostic trial","","f","3","5","false","true","LEFT","f","1","","RIGHT","false","","",""
"","html-keyboard-response","163","313814","0.0-267.0","18volbmw","1600","900","","","","","","","","","","","null","+","Fixation - short","","null","","","","","","","","","","","","",""
"","html-keyboard-response","164","314614","0.0-268.0","18volbmw","1600","900","","","","","","","","","","","799","jsf","Diagnostic trial","","j","3","6","false","false","RIGHT","j","1","","RIGHT","true","","",""
"","html-keyboard-response","165","315367","0.0-271.0","18volbmw","1600","900","","","","","","","","","","","null","+","Fixation - short","","null","","","","","","","","","","","","",""
"","html-keyboard-response","166","316163","0.0-272.0","18volbmw","1600","900","","","","","","","","","","","795","jsf","Diagnostic trial","","j","3","7","false","false","RIGHT","j","1","","RIGHT","true","","",""
"","html-keyboard-response","167","316931","0.0-275.0","18volbmw","1600","900","","","","","","","","","","","null","+","Fixation - short","","null","","","","","","","","","","","","",""
"","html-keyboard-response","168","317502","0.0-276.0","18volbmw","1600","900","","","","","","","","","","","570","jsf","Diagnostic trial","","f","3","8","false","true","LEFT","f","1","","RIGHT","false","","",""
"","html-keyboard-response","169","318258","0.0-279.0","18volbmw","1600","900","","","","","","","","","","","null","+","Fixation - short","","null","","","","","","","","","","","","",""
"","html-keyboard-response","170","318937","0.0-280.0","18volbmw","1600","900","","","","","","","","","","","677","jsf","Diagnostic trial","","j","3","9","false","false","RIGHT","j","1","","RIGHT","true","","",""
"","html-keyboard-response","171","319698","0.0-283.0","18volbmw","1600","900","","","","","","","","","","","null","+","Fixation - short","","null","","","","","","","","","","","","",""
"","html-keyboard-response","172","320440","0.0-284.0","18volbmw","1600","900","","","","","","","","","","","742","jsf","Diagnostic trial","","f","3","10","false","true","LEFT","f","1","","RIGHT","false","","",""
"","html-keyboard-response","173","321205","0.0-287.0","18volbmw","1600","900","","","","","","","","","","","null","+","Fixation - short","","null","","","","","","","","","","","","",""
"","html-keyboard-response","174","322255","0.0-288.0","18volbmw","1600","900","","","","","","","","","","","1049","jsf","Diagnostic trial","","f","3","11","false","true","LEFT","f","1","","RIGHT","false","","",""
"","html-keyboard-response","175","323010","0.0-291.0","18volbmw","1600","900","","","","","","","","","","","null","+","Fixation - short","","null","","","","","","","","","","","","",""
"","html-keyboard-response","176","323612","0.0-292.0","18volbmw","1600","900","","","","","","","","","","","601","ibg","Diagnostic trial","","j","3","12","false","false","RIGHT","j","1","","LEFT","false","","",""
"","html-keyboard-response","177","324374","0.0-295.0","18volbmw","1600","900","","","","","","","","","","","null","+","Fixation - short","","null","","","","","","","","","","","","",""
"","html-keyboard-response","178","325048","0.0-296.0","18volbmw","1600","900","","","","","","","","","","","673","jsf","Diagnostic trial","","j","3","13","false","false","RIGHT","j","1","","RIGHT","true","","",""
"","html-keyboard-response","179","325812","0.0-299.0","18volbmw","1600","900","","","","","","","","","","","null","+","Fixation - short","","null","","","","","","","","","","","","",""
"","html-keyboard-response","180","326424","0.0-300.0","18volbmw","1600","900","","","","","","","","","","","610","ibg","Diagnostic trial","","f","3","14","false","true","LEFT","f","1","","LEFT","true","","",""
"","html-keyboard-response","181","327186","0.0-303.0","18volbmw","1600","900","","","","","","","","","","","null","+","Fixation - short","","null","","","","","","","","","","","","",""
"","html-keyboard-response","182","328430","0.0-304.0","18volbmw","1600","900","","","","","","","","","","","1243","ibg","Inducer trial","","f","3","","true","","","f","1","LEFT","","","","",""
"","html-keyboard-response","183","329934","0.0-307.0","18volbmw","1600","900","","","","","","","","","","","null","+","Fixation - long","","null","","","","","","","","","","","","",""
"","html-keyboard-response","184","337191","0.0-308.0","18volbmw","1600","900","","","","","","","","","","","7245","If tkb press LEFT | If cpt press RIGHT","Inducer instructions",""," ","4","","","","","","","","","","","",""
"","html-keyboard-response","185","337959","0.0-309.0","18volbmw","1600","900","","","","","","","","","","","null","+","Fixation - short","","null","","","","","","","","","","","","",""
"","html-keyboard-response","186","338664","0.0-310.0","18volbmw","1600","900","","","","","","","","","","","704","cpt","Diagnostic trial","","f","4","0","false","true","LEFT","f","1","","RIGHT","false","","",""
"","html-keyboard-response","187","339429","0.0-313.0","18volbmw","1600","900","","","","","","","","","","","null","+","Fixation - short","","null","","","","","","","","","","","","",""
"","html-keyboard-response","188","340167","0.0-314.0","18volbmw","1600","900","","","","","","","","","","","737","cpt","Diagnostic trial","","f","4","1","false","true","LEFT","f","1","","RIGHT","false","","",""
"","html-keyboard-response","189","340921","0.0-317.0","18volbmw","1600","900","","","","","","","","","","","null","+","Fixation - short","","null","","","","","","","","","","","","",""
"","html-keyboard-response","190","341593","0.0-318.0","18volbmw","1600","900","","","","","","","","","","","671","cpt","Diagnostic trial","","j","4","2","false","false","RIGHT","j","1","","RIGHT","true","","",""
"","html-keyboard-response","191","342358","0.0-321.0","18volbmw","1600","900","","","","","","","","","","","null","+","Fixation - short","","null","","","","","","","","","","","","",""
"","html-keyboard-response","192","342964","0.0-322.0","18volbmw","1600","900","","","","","","","","","","","605","tkb","Diagnostic trial","","f","4","3","false","true","LEFT","f","1","","LEFT","true","","",""
"","html-keyboard-response","193","343719","0.0-325.0","18volbmw","1600","900","","","","","","","","","","","null","+","Fixation - short","","null","","","","","","","","","","","","",""
"","html-keyboard-response","194","344239","0.0-326.0","18volbmw","1600","900","","","","","","","","","","","520","cpt","Diagnostic trial","","j","4","4","false","false","RIGHT","j","1","","RIGHT","true","","",""
"","html-keyboard-response","195","344996","0.0-329.0","18volbmw","1600","900","","","","","","","","","","","null","+","Fixation - short","","null","","","","","","","","","","","","",""
"","html-keyboard-response","196","345873","0.0-330.0","18volbmw","1600","900","","","","","","","","","","","875","tkb","Diagnostic trial","","f","4","5","false","true","LEFT","f","1","","LEFT","true","","",""
"","html-keyboard-response","197","346637","0.0-333.0","18volbmw","1600","900","","","","","","","","","","","null","+","Fixation - short","","null","","","","","","","","","","","","",""
"","html-keyboard-response","198","347246","0.0-334.0","18volbmw","1600","900","","","","","","","","","","","608","tkb","Diagnostic trial","","j","4","6","false","false","RIGHT","j","1","","LEFT","false","","",""
"","html-keyboard-response","199","348013","0.0-337.0","18volbmw","1600","900","","","","","","","","","","","null","+","Fixation - short","","null","","","","","","","","","","","","",""
"","html-keyboard-response","200","348777","0.0-338.0","18volbmw","1600","900","","","","","","","","","","","762","cpt","Diagnostic trial","","j","4","7","false","false","RIGHT","j","1","","RIGHT","true","","",""
"","html-keyboard-response","201","349538","0.0-341.0","18volbmw","1600","900","","","","","","","","","","","null","+","Fixation - short","","null","","","","","","","","","","","","",""
"","html-keyboard-response","202","351149","0.0-342.0","18volbmw","1600","900","","","","","","","","","","","1610","cpt","Inducer trial","","j","4","","true","","","j","1","RIGHT","","","","",""
"","html-keyboard-response","203","352657","0.0-345.0","18volbmw","1600","900","","","","","","","","","","","null","+","Fixation - long","","null","","","","","","","","","","","","",""
"","html-keyboard-response","204","359406","0.0-346.0","18volbmw","1600","900","","","","","","","","","","","6748","If ccx press LEFT | If dij press RIGHT","Inducer instructions",""," ","5","","","","","","","","","","","",""
"","html-keyboard-response","205","360162","0.0-347.0","18volbmw","1600","900","","","","","","","","","","","null","+","Fixation - short","","null","","","","","","","","","","","","",""
"","html-keyboard-response","206","361455","0.0-348.0","18volbmw","1600","900","","","","","","","","","","","1292","dij","Diagnostic trial","","j","5","0","false","false","RIGHT","j","1","","RIGHT","true","","",""
"","html-keyboard-response","207","362213","0.0-351.0","18volbmw","1600","900","","","","","","","","","","","null","+","Fixation - short","","null","","","","","","","","","","","","",""
"","html-keyboard-response","208","362769","0.0-352.0","18volbmw","1600","900","","","","","","","","","","","555","dij","Diagnostic trial","","j","5","1","false","false","RIGHT","j","1","","RIGHT","true","","",""
"","html-keyboard-response","209","363536","0.0-355.0","18volbmw","1600","900","","","","","","","","","","","null","+","Fixation - short","","null","","","","","","","","","","","","",""
"","html-keyboard-response","210","364074","0.0-356.0","18volbmw","1600","900","","","","","","","","","","","537","dij","Diagnostic trial","","j","5","2","false","false","RIGHT","j","1","","RIGHT","true","","",""
"","html-keyboard-response","211","364828","0.0-359.0","18volbmw","1600","900","","","","","","","","","","","null","+","Fixation - short","","null","","","","","","","","","","","","",""
"","html-keyboard-response","212","365326","0.0-360.0","18volbmw","1600","900","","","","","","","","","","","496","dij","Diagnostic trial","","f","5","3","false","true","LEFT","f","1","","RIGHT","false","","",""
"","html-keyboard-response","213","366080","0.0-363.0","18volbmw","1600","900","","","","","","","","","","","null","+","Fixation - short","","null","","","","","","","","","","","","",""
"","html-keyboard-response","214","366488","0.0-364.0","18volbmw","1600","900","","","","","","","","","","","406","dij","Diagnostic trial","","f","5","4","false","false","RIGHT","j","0","","RIGHT","true","","",""
"","call-function","215","366488","0.0-366.0-0.0","18volbmw","","","","","","","","","","","","","","","","","","","","","","","","","","","","","",""
"","html-keyboard-response","216","366799","0.0-366.0-1.0","18volbmw","1600","900","","","","","","","","","","","null","Wrong","Feedback","","null","","","","","","","","","","","","",""
"","call-function","217","366799","0.0-366.0-2.0","18volbmw","","","","","","","","","","","","","","","","","","","","","","","","","","","","","",""
"","html-keyboard-response","218","367557","0.0-367.0","18volbmw","1600","900","","","","","","","","","","","null","+","Fixation - short","","null","","","","","","","","","","","","",""
"","html-keyboard-response","219","368132","0.0-368.0","18volbmw","1600","900","","","","","","","","","","","574","dij","Diagnostic trial","","f","5","5","false","true","LEFT","f","1","","RIGHT","false","","",""
"","html-keyboard-response","220","368894","0.0-371.0","18volbmw","1600","900","","","","","","","","","","","null","+","Fixation - short","","null","","","","","","","","","","","","",""
"","html-keyboard-response","221","369556","0.0-372.0","18volbmw","1600","900","","","","","","","","","","","661","ccx","Diagnostic trial","","f","5","6","false","true","LEFT","f","1","","LEFT","true","","",""
"","html-keyboard-response","222","370317","0.0-375.0","18volbmw","1600","900","","","","","","","","","","","null","+","Fixation - short","","null","","","","","","","","","","","","",""
"","html-keyboard-response","223","371971","0.0-376.0","18volbmw","1600","900","","","","","","","","","","","1652","dij","Inducer trial","","j","5","","true","","","j","1","RIGHT","","","","",""
"","html-keyboard-response","224","373474","0.0-379.0","18volbmw","1600","900","","","","","","","","","","","null","+","Fixation - long","","null","","","","","","","","","","","","",""
"","html-keyboard-response","225","384625","0.0-380.0","18volbmw","1600","900","","","","","","","","","","","11150","If otr press LEFT | If uen press RIGHT","Inducer instructions",""," ","6","","","","","","","","","","","",""
"","html-keyboard-response","226","385376","0.0-381.0","18volbmw","1600","900","","","","","","","","","","","null","+","Fixation - short","","null","","","","","","","","","","","","",""
"","html-keyboard-response","227","386092","0.0-382.0","18volbmw","1600","900","","","","","","","","","","","715","otr","Diagnostic trial","","j","6","0","false","false","RIGHT","j","1","","LEFT","false","","",""
"","html-keyboard-response","228","386851","0.0-385.0","18volbmw","1600","900","","","","","","","","","","","null","+","Fixation - short","","null","","","","","","","","","","","","",""
"","html-keyboard-response","229","387304","0.0-386.0","18volbmw","1600","900","","","","","","","","","","","452","otr","Diagnostic trial","","j","6","1","false","false","RIGHT","j","1","","LEFT","false","","",""
"","html-keyboard-response","230","388058","0.0-389.0","18volbmw","1600","900","","","","","","","","","","","null","+","Fixation - short","","null","","","","","","","","","","","","",""
"","html-keyboard-response","231","388704","0.0-390.0","18volbmw","1600","900","","","","","","","","","","","645","uen","Diagnostic trial","","j","6","2","false","false","RIGHT","j","1","","RIGHT","true","","",""
"","html-keyboard-response","232","389466","0.0-393.0","18volbmw","1600","900","","","","","","","","","","","null","+","Fixation - short","","null","","","","","","","","","","","","",""
"","html-keyboard-response","233","390077","0.0-394.0","18volbmw","1600","900","","","","","","","","","","","610","uen","Diagnostic trial","","f","6","3","false","true","LEFT","f","1","","RIGHT","false","","",""
"","html-keyboard-response","234","390837","0.0-397.0","18volbmw","1600","900","","","","","","","","","","","null","+","Fixation - short","","null","","","","","","","","","","","","",""
"","html-keyboard-response","235","391458","0.0-398.0","18volbmw","1600","900","","","","","","","","","","","620","uen","Diagnostic trial","","j","6","4","false","false","RIGHT","j","1","","RIGHT","true","","",""
"","html-keyboard-response","236","392213","0.0-401.0","18volbmw","1600","900","","","","","","","","","","","null","+","Fixation - short","","null","","","","","","","","","","","","",""
"","html-keyboard-response","237","392765","0.0-402.0","18volbmw","1600","900","","","","","","","","","","","551","otr","Diagnostic trial","","f","6","5","false","true","LEFT","f","1","","LEFT","true","","",""
"","html-keyboard-response","238","393519","0.0-405.0","18volbmw","1600","900","","","","","","","","","","","null","+","Fixation - short","","null","","","","","","","","","","","","",""
"","html-keyboard-response","239","394372","0.0-406.0","18volbmw","1600","900","","","","","","","","","","","852","otr","Diagnostic trial","","f","6","6","false","true","LEFT","f","1","","LEFT","true","","",""
"","html-keyboard-response","240","395129","0.0-409.0","18volbmw","1600","900","","","","","","","","","","","null","+","Fixation - short","","null","","","","","","","","","","","","",""
"","html-keyboard-response","241","395606","0.0-410.0","18volbmw","1600","900","","","","","","","","","","","476","otr","Diagnostic trial","","f","6","7","false","true","LEFT","f","1","","LEFT","true","","",""
"","html-keyboard-response","242","396366","0.0-413.0","18volbmw","1600","900","","","","","","","","","","","null","+","Fixation - short","","null","","","","","","","","","","","","",""
"","html-keyboard-response","243","397192","0.0-414.0","18volbmw","1600","900","","","","","","","","","","","834","otr","Diagnostic trial","","j","6","8","false","false","RIGHT","j","1","","LEFT","false","","",""
"","html-keyboard-response","244","397950","0.0-417.0","18volbmw","1600","900","","","","","","","","","","","null","+","Fixation - short","","null","","","","","","","","","","","","",""
"","html-keyboard-response","245","399198","0.0-418.0","18volbmw","1600","900","","","","","","","","","","","1247","uen","Diagnostic trial","","f","6","9","false","true","LEFT","f","1","","RIGHT","false","","",""
"","html-keyboard-response","246","399961","0.0-421.0","18volbmw","1600","900","","","","","","","","","","","null","+","Fixation - short","","null","","","","","","","","","","","","",""
"","html-keyboard-response","247","400829","0.0-422.0","18volbmw","1600","900","","","","","","","","","","","867","otr","Diagnostic trial","","f","6","10","false","true","LEFT","f","1","","LEFT","true","","",""
"","html-keyboard-response","248","401585","0.0-425.0","18volbmw","1600","900","","","","","","","","","","","null","+","Fixation - short","","null","","","","","","","","","","","","",""
"","html-keyboard-response","249","402408","0.0-426.0","18volbmw","1600","900","","","","","","","","","","","822","uen","Diagnostic trial","","j","6","11","false","false","RIGHT","j","1","","RIGHT","true","","",""
"","html-keyboard-response","250","403164","0.0-429.0","18volbmw","1600","900","","","","","","","","","","","null","+","Fixation - short","","null","","","","","","","","","","","","",""
"","html-keyboard-response","251","403586","0.0-430.0","18volbmw","1600","900","","","","","","","","","","","421","uen","Diagnostic trial","","j","6","12","false","false","RIGHT","j","1","","RIGHT","true","","",""
"","html-keyboard-response","252","404338","0.0-433.0","18volbmw","1600","900","","","","","","","","","","","null","+","Fixation - short","","null","","","","","","","","","","","","",""
"","html-keyboard-response","253","404929","0.0-434.0","18volbmw","1600","900","","","","","","","","","","","589","uen","Diagnostic trial","","f","6","13","false","true","LEFT","f","1","","RIGHT","false","","",""
"","html-keyboard-response","254","405691","0.0-437.0","18volbmw","1600","900","","","","","","","","","","","null","+","Fixation - short","","null","","","","","","","","","","","","",""
"","html-keyboard-response","255","406477","0.0-438.0","18volbmw","1600","900","","","","","","","","","","","785","uen","Diagnostic trial","","j","6","14","false","false","RIGHT","j","1","","RIGHT","true","","",""
"","html-keyboard-response","256","407238","0.0-441.0","18volbmw","1600","900","","","","","","","","","","","null","+","Fixation - short","","null","","","","","","","","","","","","",""
"","html-keyboard-response","257","407810","0.0-442.0","18volbmw","1600","900","","","","","","","","","","","571","otr","Diagnostic trial","","f","6","15","false","true","LEFT","f","1","","LEFT","true","","",""
"","html-keyboard-response","258","408567","0.0-445.0","18volbmw","1600","900","","","","","","","","","","","null","+","Fixation - short","","null","","","","","","","","","","","","",""
"","html-keyboard-response","259","410226","0.0-446.0","18volbmw","1600","900","","","","","","","","","","","1658","uen","Inducer trial","","j","6","","true","","","j","1","RIGHT","","","","",""
"","html-keyboard-response","260","411730","0.0-449.0","18volbmw","1600","900","","","","","","","","","","","null","+","Fixation - long","","null","","","","","","","","","","","","",""
"","html-keyboard-response","261","420235","0.0-450.0","18volbmw","1600","900","","","","","","","","","","","8504","If goj press LEFT | If psl press RIGHT","Inducer instructions",""," ","7","","","","","","","","","","","",""
"","html-keyboard-response","262","421001","0.0-451.0","18volbmw","1600","900","","","","","","","","","","","null","+","Fixation - short","","null","","","","","","","","","","","","",""
"","html-keyboard-response","263","421710","0.0-452.0","18volbmw","1600","900","","","","","","","","","","","707","goj","Diagnostic trial","","j","7","0","false","false","RIGHT","j","1","","LEFT","false","","",""
"","html-keyboard-response","264","422462","0.0-455.0","18volbmw","1600","900","","","","","","","","","","","null","+","Fixation - short","","null","","","","","","","","","","","","",""
"","html-keyboard-response","265","423095","0.0-456.0","18volbmw","1600","900","","","","","","","","","","","632","goj","Diagnostic trial","","f","7","1","false","true","LEFT","f","1","","LEFT","true","","",""
"","html-keyboard-response","266","423854","0.0-459.0","18volbmw","1600","900","","","","","","","","","","","null","+","Fixation - short","","null","","","","","","","","","","","","",""
"","html-keyboard-response","267","424513","0.0-460.0","18volbmw","1600","900","","","","","","","","","","","658","psl","Diagnostic trial","","f","7","2","false","true","LEFT","f","1","","RIGHT","false","","",""
"","html-keyboard-response","268","425277","0.0-463.0","18volbmw","1600","900","","","","","","","","","","","null","+","Fixation - short","","null","","","","","","","","","","","","",""
"","html-keyboard-response","269","425809","0.0-464.0","18volbmw","1600","900","","","","","","","","","","","531","goj","Diagnostic trial","","j","7","3","false","false","RIGHT","j","1","","LEFT","false","","",""
"","html-keyboard-response","270","426569","0.0-467.0","18volbmw","1600","900","","","","","","","","","","","null","+","Fixation - short","","null","","","","","","","","","","","","",""
"","html-keyboard-response","271","427130","0.0-468.0","18volbmw","1600","900","","","","","","","","","","","560","psl","Diagnostic trial","","f","7","4","false","true","LEFT","f","1","","RIGHT","false","","",""
"","html-keyboard-response","272","427891","0.0-471.0","18volbmw","1600","900","","","","","","","","","","","null","+","Fixation - short","","null","","","","","","","","","","","","",""
"","html-keyboard-response","273","428424","0.0-472.0","18volbmw","1600","900","","","","","","","","","","","533","psl","Diagnostic trial","","f","7","5","false","true","LEFT","f","1","","RIGHT","false","","",""
"","html-keyboard-response","274","429182","0.0-475.0","18volbmw","1600","900","","","","","","","","","","","null","+","Fixation - short","","null","","","","","","","","","","","","",""
"","html-keyboard-response","275","429807","0.0-476.0","18volbmw","1600","900","","","","","","","","","","","624","psl","Diagnostic trial","","f","7","6","false","true","LEFT","f","1","","RIGHT","false","","",""
"","html-keyboard-response","276","430579","0.0-479.0","18volbmw","1600","900","","","","","","","","","","","null","+","Fixation - short","","null","","","","","","","","","","","","",""
"","html-keyboard-response","277","431283","0.0-480.0","18volbmw","1600","900","","","","","","","","","","","703","psl","Diagnostic trial","","j","7","7","false","false","RIGHT","j","1","","RIGHT","true","","",""
"","html-keyboard-response","278","432035","0.0-483.0","18volbmw","1600","900","","","","","","","","","","","null","+","Fixation - short","","null","","","","","","","","","","","","",""
"","html-keyboard-response","279","432756","0.0-484.0","18volbmw","1600","900","","","","","","","","","","","719","psl","Diagnostic trial","","j","7","8","false","false","RIGHT","j","1","","RIGHT","true","","",""
"","html-keyboard-response","280","433515","0.0-487.0","18volbmw","1600","900","","","","","","","","","","","null","+","Fixation - short","","null","","","","","","","","","","","","",""
"","html-keyboard-response","281","434123","0.0-488.0","18volbmw","1600","900","","","","","","","","","","","606","psl","Diagnostic trial","","j","7","9","false","false","RIGHT","j","1","","RIGHT","true","","",""
"","html-keyboard-response","282","434886","0.0-491.0","18volbmw","1600","900","","","","","","","","","","","null","+","Fixation - short","","null","","","","","","","","","","","","",""
"","html-keyboard-response","283","435641","0.0-492.0","18volbmw","1600","900","","","","","","","","","","","754","goj","Diagnostic trial","","j","7","10","false","false","RIGHT","j","1","","LEFT","false","","",""
"","html-keyboard-response","284","436417","0.0-495.0","18volbmw","1600","900","","","","","","","","","","","null","+","Fixation - short","","null","","","","","","","","","","","","",""
"","html-keyboard-response","285","437091","0.0-496.0","18volbmw","1600","900","","","","","","","","","","","673","goj","Diagnostic trial","","f","7","11","false","true","LEFT","f","1","","LEFT","true","","",""
"","html-keyboard-response","286","437844","0.0-499.0","18volbmw","1600","900","","","","","","","","","","","null","+","Fixation - short","","null","","","","","","","","","","","","",""
"","html-keyboard-response","287","438384","0.0-500.0","18volbmw","1600","900","","","","","","","","","","","539","psl","Diagnostic trial","","f","7","12","false","true","LEFT","f","1","","RIGHT","false","","",""
"","html-keyboard-response","288","439150","0.0-503.0","18volbmw","1600","900","","","","","","","","","","","null","+","Fixation - short","","null","","","","","","","","","","","","",""
"","html-keyboard-response","289","439827","0.0-504.0","18volbmw","1600","900","","","","","","","","","","","676","goj","Diagnostic trial","","f","7","13","false","true","LEFT","f","1","","LEFT","true","","",""
"","html-keyboard-response","290","440590","0.0-507.0","18volbmw","1600","900","","","","","","","","","","","null","+","Fixation - short","","null","","","","","","","","","","","","",""
"","html-keyboard-response","291","441743","0.0-508.0","18volbmw","1600","900","","","","","","","","","","","1153","psl","Diagnostic trial","","j","7","14","false","false","RIGHT","j","1","","RIGHT","true","","",""
"","html-keyboard-response","292","442500","0.0-511.0","18volbmw","1600","900","","","","","","","","","","","null","+","Fixation - short","","null","","","","","","","","","","","","",""
"","html-keyboard-response","293","444223","0.0-512.0","18volbmw","1600","900","","","","","","","","","","","1722","psl","Inducer trial","","j","7","","true","","","j","1","RIGHT","","","","",""
"","html-keyboard-response","294","445734","0.0-515.0","18volbmw","1600","900","","","","","","","","","","","null","+","Fixation - long","","null","","","","","","","","","","","","",""
"","html-keyboard-response","295","458348","0.0-516.0","18volbmw","1600","900","","","","","","","","","","","12603","If idy press LEFT | If dlg press RIGHT","Inducer instructions",""," ","8","","","","","","","","","","","",""
"","html-keyboard-response","296","459107","0.0-517.0","18volbmw","1600","900","","","","","","","","","","","null","+","Fixation - short","","null","","","","","","","","","","","","",""
"","html-keyboard-response","297","459820","0.0-518.0","18volbmw","1600","900","","","","","","","","","","","712","idy","Diagnostic trial","","j","8","0","false","false","RIGHT","j","1","","LEFT","false","","",""
"","html-keyboard-response","298","460585","0.0-521.0","18volbmw","1600","900","","","","","","","","","","","null","+","Fixation - short","","null","","","","","","","","","","","","",""
"","html-keyboard-response","299","460988","0.0-522.0","18volbmw","1600","900","","","","","","","","","","","402","idy","Diagnostic trial","","j","8","1","false","false","RIGHT","j","1","","LEFT","false","","",""
"","html-keyboard-response","300","461752","0.0-525.0","18volbmw","1600","900","","","","","","","","","","","null","+","Fixation - short","","null","","","","","","","","","","","","",""
"","html-keyboard-response","301","462354","0.0-526.0","18volbmw","1600","900","","","","","","","","","","","601","dlg","Diagnostic trial","","f","8","2","false","true","LEFT","f","1","","RIGHT","false","","",""
"","html-keyboard-response","302","463110","0.0-529.0","18volbmw","1600","900","","","","","","","","","","","null","+","Fixation - short","","null","","","","","","","","","","","","",""
"","html-keyboard-response","303","463635","0.0-530.0","18volbmw","1600","900","","","","","","","","","","","525","idy","Diagnostic trial","","j","8","3","false","false","RIGHT","j","1","","LEFT","false","","",""
"","html-keyboard-response","304","464398","0.0-533.0","18volbmw","1600","900","","","","","","","","","","","null","+","Fixation - short","","null","","","","","","","","","","","","",""
"","html-keyboard-response","305","464966","0.0-534.0","18volbmw","1600","900","","","","","","","","","","","567","idy","Diagnostic trial","","f","8","4","false","true","LEFT","f","1","","LEFT","true","","",""
"","html-keyboard-response","306","465717","0.0-537.0","18volbmw","1600","900","","","","","","","","","","","null","+","Fixation - short","","null","","","","","","","","","","","","",""
"","html-keyboard-response","307","466289","0.0-538.0","18volbmw","1600","900","","","","","","","","","","","570","idy","Diagnostic trial","","j","8","5","false","false","RIGHT","j","1","","LEFT","false","","",""
"","html-keyboard-response","308","467049","0.0-541.0","18volbmw","1600","900","","","","","","","","","","","null","+","Fixation - short","","null","","","","","","","","","","","","",""
"","html-keyboard-response","309","467748","0.0-542.0","18volbmw","1600","900","","","","","","","","","","","699","idy","Diagnostic trial","","f","8","6","false","true","LEFT","f","1","","LEFT","true","","",""
"","html-keyboard-response","310","468510","0.0-545.0","18volbmw","1600","900","","","","","","","","","","","null","+","Fixation - short","","null","","","","","","","","","","","","",""
"","html-keyboard-response","311","469059","0.0-546.0","18volbmw","1600","900","","","","","","","","","","","548","dlg","Diagnostic trial","","j","8","7","false","false","RIGHT","j","1","","RIGHT","true","","",""
"","html-keyboard-response","312","469813","0.0-549.0","18volbmw","1600","900","","","","","","","","","","","null","+","Fixation - short","","null","","","","","","","","","","","","",""
"","html-keyboard-response","313","470379","0.0-550.0","18volbmw","1600","900","","","","","","","","","","","565","dlg","Diagnostic trial","","j","8","8","false","false","RIGHT","j","1","","RIGHT","true","","",""
"","html-keyboard-response","314","471134","0.0-553.0","18volbmw","1600","900","","","","","","","","","","","null","+","Fixation - short","","null","","","","","","","","","","","","",""
"","html-keyboard-response","315","471605","0.0-554.0","18volbmw","1600","900","","","","","","","","","","","471","dlg","Diagnostic trial","","j","8","9","false","false","RIGHT","j","1","","RIGHT","true","","",""
"","html-keyboard-response","316","472368","0.0-557.0","18volbmw","1600","900","","","","","","","","","","","null","+","Fixation - short","","null","","","","","","","","","","","","",""
"","html-keyboard-response","317","473041","0.0-558.0","18volbmw","1600","900","","","","","","","","","","","672","idy","Diagnostic trial","","j","8","10","false","false","RIGHT","j","1","","LEFT","false","","",""
"","html-keyboard-response","318","473811","0.0-561.0","18volbmw","1600","900","","","","","","","","","","","null","+","Fixation - short","","null","","","","","","","","","","","","",""
"","html-keyboard-response","319","474246","0.0-562.0","18volbmw","1600","900","","","","","","","","","","","434","idy","Diagnostic trial","","j","8","11","false","false","RIGHT","j","1","","LEFT","false","","",""
"","html-keyboard-response","320","475014","0.0-565.0","18volbmw","1600","900","","","","","","","","","","","null","+","Fixation - short","","null","","","","","","","","","","","","",""
"","html-keyboard-response","321","475720","0.0-566.0","18volbmw","1600","900","","","","","","","","","","","705","dlg","Diagnostic trial","","j","8","12","false","false","RIGHT","j","1","","RIGHT","true","","",""
"","html-keyboard-response","322","476478","0.0-569.0","18volbmw","1600","900","","","","","","","","","","","null","+","Fixation - short","","null","","","","","","","","","","","","",""
"","html-keyboard-response","323","478449","0.0-570.0","18volbmw","1600","900","","","","","","","","","","","1969","idy","Inducer trial","","f","8","","true","","","f","1","LEFT","","","","",""
"","html-keyboard-response","324","479962","0.0-573.0","18volbmw","1600","900","","","","","","","","","","","null","+","Fixation - long","","null","","","","","","","","","","","","",""
"","html-keyboard-response","325","486884","0.0-574.0","18volbmw","1600","900","","","","","","","","","","","6921","If eht press LEFT | If yrp press RIGHT","Inducer instructions",""," ","9","","","","","","","","","","","",""
"","html-keyboard-response","326","487648","0.0-575.0","18volbmw","1600","900","","","","","","","","","","","null","+","Fixation - short","","null","","","","","","","","","","","","",""
"","html-keyboard-response","327","488522","0.0-576.0","18volbmw","1600","900","","","","","","","","","","","873","yrp","Diagnostic trial","","f","9","0","false","true","LEFT","f","1","","RIGHT","false","","",""
"","html-keyboard-response","328","489277","0.0-579.0","18volbmw","1600","900","","","","","","","","","","","null","+","Fixation - short","","null","","","","","","","","","","","","",""
"","html-keyboard-response","329","489985","0.0-580.0","18volbmw","1600","900","","","","","","","","","","","707","eht","Diagnostic trial","","f","9","1","false","true","LEFT","f","1","","LEFT","true","","",""
"","html-keyboard-response","330","490745","0.0-583.0","18volbmw","1600","900","","","","","","","","","","","null","+","Fixation - short","","null","","","","","","","","","","","","",""
"","html-keyboard-response","331","491230","0.0-584.0","18volbmw","1600","900","","","","","","","","","","","484","eht","Diagnostic trial","","f","9","2","false","true","LEFT","f","1","","LEFT","true","","",""
"","html-keyboard-response","332","491992","0.0-587.0","18volbmw","1600","900","","","","","","","","","","","null","+","Fixation - short","","null","","","","","","","","","","","","",""
"","html-keyboard-response","333","492451","0.0-588.0","18volbmw","1600","900","","","","","","","","","","","458","eht","Diagnostic trial","","f","9","3","false","true","LEFT","f","1","","LEFT","true","","",""
"","html-keyboard-response","334","493212","0.0-591.0","18volbmw","1600","900","","","","","","","","","","","null","+","Fixation - short","","null","","","","","","","","","","","","",""
"","html-keyboard-response","335","494086","0.0-592.0","18volbmw","1600","900","","","","","","","","","","","873","yrp","Diagnostic trial","","j","9","4","false","false","RIGHT","j","1","","RIGHT","true","","",""
"","html-keyboard-response","336","494852","0.0-595.0","18volbmw","1600","900","","","","","","","","","","","null","+","Fixation - short","","null","","","","","","","","","","","","",""
"","html-keyboard-response","337","495507","0.0-596.0","18volbmw","1600","900","","","","","","","","","","","654","yrp","Diagnostic trial","","j","9","5","false","false","RIGHT","j","1","","RIGHT","true","","",""
"","html-keyboard-response","338","496259","0.0-599.0","18volbmw","1600","900","","","","","","","","","","","null","+","Fixation - short","","null","","","","","","","","","","","","",""
"","html-keyboard-response","339","498273","0.0-600.0","18volbmw","1600","900","","","","","","","","","","","null","yrp","Diagnostic trial","","null","9","6","false","true","LEFT","f","NaN","","RIGHT","false","","",""
"","call-function","340","498273","0.0-601.0-0.0","18volbmw","","","","","","","","","","","","","","","","","","","","","","","","","","","","","",""
"","html-keyboard-response","341","498589","0.0-601.0-1.0","18volbmw","1600","900","","","","","","","","","","","null","Slow","Feedback","","null","","","","","","","","","","","","",""
"","call-function","342","498590","0.0-601.0-2.0","18volbmw","","","","","","","","","","","","","","","","","","","","","","","","","","","","","",""
"","html-keyboard-response","343","499352","0.0-603.0","18volbmw","1600","900","","","","","","","","","","","null","+","Fixation - short","","null","","","","","","","","","","","","",""
"","html-keyboard-response","344","500808","0.0-604.0","18volbmw","1600","900","","","","","","","","","","","1455","yrp","Inducer trial","","j","9","","true","","","j","1","RIGHT","","","","",""
"","html-keyboard-response","345","502313","0.0-607.0","18volbmw","1600","900","","","","","","","","","","","null","+","Fixation - long","","null","","","","","","","","","","","","",""
"","html-keyboard-response","346","511197","0.0-608.0","18volbmw","1600","900","","","","","","","","","","","8882","If jlm press LEFT | If crf press RIGHT","Inducer instructions",""," ","10","","","","","","","","","","","",""
"","html-keyboard-response","347","511951","0.0-609.0","18volbmw","1600","900","","","","","","","","","","","null","+","Fixation - short","","null","","","","","","","","","","","","",""
"","html-keyboard-response","348","512597","0.0-610.0","18volbmw","1600","900","","","","","","","","","","","645","crf","Diagnostic trial","","f","10","0","false","true","LEFT","f","1","","RIGHT","false","","",""
"","html-keyboard-response","349","513359","0.0-613.0","18volbmw","1600","900","","","","","","","","","","","null","+","Fixation - short","","null","","","","","","","","","","","","",""
"","html-keyboard-response","350","513993","0.0-614.0","18volbmw","1600","900","","","","","","","","","","","633","crf","Diagnostic trial","","j","10","1","false","false","RIGHT","j","1","","RIGHT","true","","",""
"","html-keyboard-response","351","514750","0.0-617.0","18volbmw","1600","900","","","","","","","","","","","null","+","Fixation - short","","null","","","","","","","","","","","","",""
"","html-keyboard-response","352","515327","0.0-618.0","18volbmw","1600","900","","","","","","","","","","","576","crf","Diagnostic trial","","j","10","2","false","false","RIGHT","j","1","","RIGHT","true","","",""
"","html-keyboard-response","353","516089","0.0-621.0","18volbmw","1600","900","","","","","","","","","","","null","+","Fixation - short","","null","","","","","","","","","","","","",""
"","html-keyboard-response","354","516936","0.0-622.0","18volbmw","1600","900","","","","","","","","","","","845","jlm","Diagnostic trial","","f","10","3","false","true","LEFT","f","1","","LEFT","true","","",""
"","html-keyboard-response","355","517696","0.0-625.0","18volbmw","1600","900","","","","","","","","","","","null","+","Fixation - short","","null","","","","","","","","","","","","",""
"","html-keyboard-response","356","518369","0.0-626.0","18volbmw","1600","900","","","","","","","","","","","671","jlm","Diagnostic trial","","j","10","4","false","false","RIGHT","j","1","","LEFT","false","","",""
"","html-keyboard-response","357","519138","0.0-629.0","18volbmw","1600","900","","","","","","","","","","","null","+","Fixation - short","","null","","","","","","","","","","","","",""
"","html-keyboard-response","358","519815","0.0-630.0","18volbmw","1600","900","","","","","","","","","","","676","jlm","Diagnostic trial","","f","10","5","false","true","LEFT","f","1","","LEFT","true","","",""
"","html-keyboard-response","359","520573","0.0-633.0","18volbmw","1600","900","","","","","","","","","","","null","+","Fixation - short","","null","","","","","","","","","","","","",""
"","html-keyboard-response","360","521159","0.0-634.0","18volbmw","1600","900","","","","","","","","","","","584","crf","Diagnostic trial","","j","10","6","false","false","RIGHT","j","1","","RIGHT","true","","",""
"","html-keyboard-response","361","521925","0.0-637.0","18volbmw","1600","900","","","","","","","","","","","null","+","Fixation - short","","null","","","","","","","","","","","","",""
"","html-keyboard-response","362","522511","0.0-638.0","18volbmw","1600","900","","","","","","","","","","","585","jlm","Diagnostic trial","","f","10","7","false","true","LEFT","f","1","","LEFT","true","","",""
"","html-keyboard-response","363","523268","0.0-641.0","18volbmw","1600","900","","","","","","","","","","","null","+","Fixation - short","","null","","","","","","","","","","","","",""
"","html-keyboard-response","364","524050","0.0-642.0","18volbmw","1600","900","","","","","","","","","","","780","crf","Diagnostic trial","","j","10","8","false","false","RIGHT","j","1","","RIGHT","true","","",""
"","html-keyboard-response","365","524804","0.0-645.0","18volbmw","1600","900","","","","","","","","","","","null","+","Fixation - short","","null","","","","","","","","","","","","",""
"","html-keyboard-response","366","525467","0.0-646.0","18volbmw","1600","900","","","","","","","","","","","662","crf","Diagnostic trial","","f","10","9","false","true","LEFT","f","1","","RIGHT","false","","",""
"","html-keyboard-response","367","526227","0.0-649.0","18volbmw","1600","900","","","","","","","","","","","null","+","Fixation - short","","null","","","","","","","","","","","","",""
"","html-keyboard-response","368","527444","0.0-650.0","18volbmw","1600","900","","","","","","","","","","","1215","jlm","Inducer trial","","j","10","","true","","","f","0","LEFT","","","","",""
"","call-function","369","527445","0.0-652.0-0.0","18volbmw","","","","","","","","","","","","","","","","","","","","","","","","","","","","","",""
"","html-keyboard-response","370","527746","0.0-652.0-1.0","18volbmw","1600","900","","","","","","","","","","","null","Wrong","Feedback","","null","","","","","","","","","","","","",""
"","call-function","371","527747","0.0-652.0-2.0","18volbmw","","","","","","","","","","","","","","","","","","","","","","","","","","","","","",""
"","html-keyboard-response","372","529250","0.0-653.0","18volbmw","1600","900","","","","","","","","","","","null","+","Fixation - long","","null","","","","","","","","","","","","",""
"","html-keyboard-response","373","537313","0.0-654.0","18volbmw","1600","900","","","","","","","","","","","8062","If rif press LEFT | If amb press RIGHT","Inducer instructions",""," ","11","","","","","","","","","","","",""
"","html-keyboard-response","374","538078","0.0-655.0","18volbmw","1600","900","","","","","","","","","","","null","+","Fixation - short","","null","","","","","","","","","","","","",""
"","html-keyboard-response","375","538790","0.0-656.0","18volbmw","1600","900","","","","","","","","","","","711","amb","Diagnostic trial","","j","11","0","false","false","RIGHT","j","1","","RIGHT","true","","",""
"","html-keyboard-response","376","539543","0.0-659.0","18volbmw","1600","900","","","","","","","","","","","null","+","Fixation - short","","null","","","","","","","","","","","","",""
"","html-keyboard-response","377","540179","0.0-660.0","18volbmw","1600","900","","","","","","","","","","","635","rif","Diagnostic trial","","f","11","1","false","true","LEFT","f","1","","LEFT","true","","",""
"","html-keyboard-response","378","540956","0.0-663.0","18volbmw","1600","900","","","","","","","","","","","null","+","Fixation - short","","null","","","","","","","","","","","","",""
"","html-keyboard-response","379","541586","0.0-664.0","18volbmw","1600","900","","","","","","","","","","","629","amb","Diagnostic trial","","j","11","2","false","false","RIGHT","j","1","","RIGHT","true","","",""
"","html-keyboard-response","380","542354","0.0-667.0","18volbmw","1600","900","","","","","","","","","","","null","+","Fixation - short","","null","","","","","","","","","","","","",""
"","html-keyboard-response","381","543020","0.0-668.0","18volbmw","1600","900","","","","","","","","","","","665","rif","Diagnostic trial","","f","11","3","false","true","LEFT","f","1","","LEFT","true","","",""
"","html-keyboard-response","382","543774","0.0-671.0","18volbmw","1600","900","","","","","","","","","","","null","+","Fixation - short","","null","","","","","","","","","","","","",""
"","html-keyboard-response","383","544474","0.0-672.0","18volbmw","1600","900","","","","","","","","","","","699","rif","Diagnostic trial","","j","11","4","false","false","RIGHT","j","1","","LEFT","false","","",""
"","html-keyboard-response","384","545228","0.0-675.0","18volbmw","1600","900","","","","","","","","","","","null","+","Fixation - short","","null","","","","","","","","","","","","",""
"","html-keyboard-response","385","545855","0.0-676.0","18volbmw","1600","900","","","","","","","","","","","626","rif","Diagnostic trial","","f","11","5","false","true","LEFT","f","1","","LEFT","true","","",""
"","html-keyboard-response","386","546617","0.0-679.0","18volbmw","1600","900","","","","","","","","","","","null","+","Fixation - short","","null","","","","","","","","","","","","",""
"","html-keyboard-response","387","547302","0.0-680.0","18volbmw","1600","900","","","","","","","","","","","684","rif","Diagnostic trial","","j","11","6","false","false","RIGHT","j","1","","LEFT","false","","",""
"","html-keyboard-response","388","548075","0.0-683.0","18volbmw","1600","900","","","","","","","","","","","null","+","Fixation - short","","null","","","","","","","","","","","","",""
"","html-keyboard-response","389","548721","0.0-684.0","18volbmw","1600","900","","","","","","","","","","","645","amb","Diagnostic trial","","j","11","7","false","false","RIGHT","j","1","","RIGHT","true","","",""
"","html-keyboard-response","390","549479","0.0-687.0","18volbmw","1600","900","","","","","","","","","","","null","+","Fixation - short","","null","","","","","","","","","","","","",""
"","html-keyboard-response","391","550209","0.0-688.0","18volbmw","1600","900","","","","","","","","","","","729","rif","Diagnostic trial","","f","11","8","false","true","LEFT","f","1","","LEFT","true","","",""
"","html-keyboard-response","392","550983","0.0-691.0","18volbmw","1600","900","","","","","","","","","","","null","+","Fixation - short","","null","","","","","","","","","","","","",""
"","html-keyboard-response","393","551508","0.0-692.0","18volbmw","1600","900","","","","","","","","","","","524","amb","Diagnostic trial","","j","11","9","false","false","RIGHT","j","1","","RIGHT","true","","",""
"","html-keyboard-response","394","552263","0.0-695.0","18volbmw","1600","900","","","","","","","","","","","null","+","Fixation - short","","null","","","","","","","","","","","","",""
"","html-keyboard-response","395","552842","0.0-696.0","18volbmw","1600","900","","","","","","","","","","","578","rif","Diagnostic trial","","f","11","10","false","true","LEFT","f","1","","LEFT","true","","",""
"","html-keyboard-response","396","553605","0.0-699.0","18volbmw","1600","900","","","","","","","","","","","null","+","Fixation - short","","null","","","","","","","","","","","","",""
"","html-keyboard-response","397","554233","0.0-700.0","18volbmw","1600","900","","","","","","","","","","","627","amb","Diagnostic trial","","j","11","11","false","false","RIGHT","j","1","","RIGHT","true","","",""
"","html-keyboard-response","398","554997","0.0-703.0","18volbmw","1600","900","","","","","","","","","","","null","+","Fixation - short","","null","","","","","","","","","","","","",""
"","html-keyboard-response","399","555620","0.0-704.0","18volbmw","1600","900","","","","","","","","","","","622","amb","Diagnostic trial","","f","11","12","false","true","LEFT","f","1","","RIGHT","false","","",""
"","html-keyboard-response","400","556375","0.0-707.0","18volbmw","1600","900","","","","","","","","","","","null","+","Fixation - short","","null","","","","","","","","","","","","",""
"","html-keyboard-response","401","557018","0.0-708.0","18volbmw","1600","900","","","","","","","","","","","642","rif","Inducer trial","","j","11","","true","","","f","0","LEFT","","","","",""
"","call-function","402","557019","0.0-710.0-0.0","18volbmw","","","","","","","","","","","","","","","","","","","","","","","","","","","","","",""
"","html-keyboard-response","403","557334","0.0-710.0-1.0","18volbmw","1600","900","","","","","","","","","","","null","Wrong","Feedback","","null","","","","","","","","","","","","",""
"","call-function","404","557335","0.0-710.0-2.0","18volbmw","","","","","","","","","","","","","","","","","","","","","","","","","","","","","",""
"","html-keyboard-response","405","558840","0.0-711.0","18volbmw","1600","900","","","","","","","","","","","null","+","Fixation - long","","null","","","","","","","","","","","","",""
"","html-keyboard-response","406","570538","0.0-712.0","18volbmw","1600","900","","","","","","","","","","","11696","If faq press LEFT | If gso press RIGHT","Inducer instructions",""," ","12","","","","","","","","","","","",""
"","html-keyboard-response","407","571290","0.0-713.0","18volbmw","1600","900","","","","","","","","","","","null","+","Fixation - short","","null","","","","","","","","","","","","",""
"","html-keyboard-response","408","571838","0.0-714.0","18volbmw","1600","900","","","","","","","","","","","546","gso","Diagnostic trial","","j","12","0","false","false","RIGHT","j","1","","RIGHT","true","","",""
"","html-keyboard-response","409","572596","0.0-717.0","18volbmw","1600","900","","","","","","","","","","","null","+","Fixation - short","","null","","","","","","","","","","","","",""
"","html-keyboard-response","410","573042","0.0-718.0","18volbmw","1600","900","","","","","","","","","","","444","gso","Diagnostic trial","","j","12","1","false","true","LEFT","f","0","","RIGHT","false","","",""
"","call-function","411","573042","0.0-720.0-0.0","18volbmw","","","","","","","","","","","","","","","","","","","","","","","","","","","","","",""
"","html-keyboard-response","412","573346","0.0-720.0-1.0","18volbmw","1600","900","","","","","","","","","","","null","Wrong","Feedback","","null","","","","","","","","","","","","",""
"","call-function","413","573347","0.0-720.0-2.0","18volbmw","","","","","","","","","","","","","","","","","","","","","","","","","","","","","",""
"","html-keyboard-response","414","574102","0.0-721.0","18volbmw","1600","900","","","","","","","","","","","null","+","Fixation - short","","null","","","","","","","","","","","","",""
"","html-keyboard-response","415","574802","0.0-722.0","18volbmw","1600","900","","","","","","","","","","","699","gso","Diagnostic trial","","j","12","2","false","false","RIGHT","j","1","","RIGHT","true","","",""
"","html-keyboard-response","416","575556","0.0-725.0","18volbmw","1600","900","","","","","","","","","","","null","+","Fixation - short","","null","","","","","","","","","","","","",""
"","html-keyboard-response","417","576189","0.0-726.0","18volbmw","1600","900","","","","","","","","","","","631","faq","Diagnostic trial","","f","12","3","false","true","LEFT","f","1","","LEFT","true","","",""
"","html-keyboard-response","418","576944","0.0-729.0","18volbmw","1600","900","","","","","","","","","","","null","+","Fixation - short","","null","","","","","","","","","","","","",""
"","html-keyboard-response","419","577674","0.0-730.0","18volbmw","1600","900","","","","","","","","","","","729","gso","Diagnostic trial","","f","12","4","false","true","LEFT","f","1","","RIGHT","false","","",""
"","html-keyboard-response","420","578433","0.0-733.0","18volbmw","1600","900","","","","","","","","","","","null","+","Fixation - short","","null","","","","","","","","","","","","",""
"","html-keyboard-response","421","579094","0.0-734.0","18volbmw","1600","900","","","","","","","","","","","660","faq","Diagnostic trial","","f","12","5","false","true","LEFT","f","1","","LEFT","true","","",""
"","html-keyboard-response","422","579853","0.0-737.0","18volbmw","1600","900","","","","","","","","","","","null","+","Fixation - short","","null","","","","","","","","","","","","",""
"","html-keyboard-response","423","580345","0.0-738.0","18volbmw","1600","900","","","","","","","","","","","491","faq","Diagnostic trial","","j","12","6","false","false","RIGHT","j","1","","LEFT","false","","",""
"","html-keyboard-response","424","581098","0.0-741.0","18volbmw","1600","900","","","","","","","","","","","null","+","Fixation - short","","null","","","","","","","","","","","","",""
"","html-keyboard-response","425","582766","0.0-742.0","18volbmw","1600","900","","","","","","","","","","","1667","faq","Inducer trial","","f","12","","true","","","f","1","LEFT","","","","",""
"","html-keyboard-response","426","584279","0.0-745.0","18volbmw","1600","900","","","","","","","","","","","null","+","Fixation - long","","null","","","","","","","","","","","","",""
"","html-keyboard-response","427","594122","0.0-746.0","18volbmw","1600","900","","","","","","","","","","","9842","If vbt press LEFT | If ila press RIGHT","Inducer instructions",""," ","13","","","","","","","","","","","",""
"","html-keyboard-response","428","594893","0.0-747.0","18volbmw","1600","900","","","","","","","","","","","null","+","Fixation - short","","null","","","","","","","","","","","","",""
"","html-keyboard-response","429","595757","0.0-748.0","18volbmw","1600","900","","","","","","","","","","","863","ila","Diagnostic trial","","f","13","0","false","true","LEFT","f","1","","RIGHT","false","","",""
"","html-keyboard-response","430","596519","0.0-751.0","18volbmw","1600","900","","","","","","","","","","","null","+","Fixation - short","","null","","","","","","","","","","","","",""
"","html-keyboard-response","431","597270","0.0-752.0","18volbmw","1600","900","","","","","","","","","","","751","ila","Diagnostic trial","","j","13","1","false","false","RIGHT","j","1","","RIGHT","true","","",""
"","html-keyboard-response","432","598026","0.0-755.0","18volbmw","1600","900","","","","","","","","","","","null","+","Fixation - short","","null","","","","","","","","","","","","",""
"","html-keyboard-response","433","598535","0.0-756.0","18volbmw","1600","900","","","","","","","","","","","507","ila","Diagnostic trial","","j","13","2","false","false","RIGHT","j","1","","RIGHT","true","","",""
"","html-keyboard-response","434","599301","0.0-759.0","18volbmw","1600","900","","","","","","","","","","","null","+","Fixation - short","","null","","","","","","","","","","","","",""
"","html-keyboard-response","435","599827","0.0-760.0","18volbmw","1600","900","","","","","","","","","","","525","ila","Diagnostic trial","","f","13","3","false","true","LEFT","f","1","","RIGHT","false","","",""
"","html-keyboard-response","436","600593","0.0-763.0","18volbmw","1600","900","","","","","","","","","","","null","+","Fixation - short","","null","","","","","","","","","","","","",""
"","html-keyboard-response","437","601258","0.0-764.0","18volbmw","1600","900","","","","","","","","","","","663","vbt","Diagnostic trial","","f","13","4","false","true","LEFT","f","1","","LEFT","true","","",""
"","html-keyboard-response","438","602033","0.0-767.0","18volbmw","1600","900","","","","","","","","","","","null","+","Fixation - short","","null","","","","","","","","","","","","",""
"","html-keyboard-response","439","602619","0.0-768.0","18volbmw","1600","900","","","","","","","","","","","585","vbt","Diagnostic trial","","f","13","5","false","true","LEFT","f","1","","LEFT","true","","",""
"","html-keyboard-response","440","603386","0.0-771.0","18volbmw","1600","900","","","","","","","","","","","null","+","Fixation - short","","null","","","","","","","","","","","","",""
"","html-keyboard-response","441","604277","0.0-772.0","18volbmw","1600","900","","","","","","","","","","","890","vbt","Inducer trial","","j","13","","true","","","f","0","LEFT","","","","",""
"","call-function","442","604277","0.0-774.0-0.0","18volbmw","","","","","","","","","","","","","","","","","","","","","","","","","","","","","",""
"","html-keyboard-response","443","604588","0.0-774.0-1.0","18volbmw","1600","900","","","","","","","","","","","null","Wrong","Feedback","","null","","","","","","","","","","","","",""
"","call-function","444","604589","0.0-774.0-2.0","18volbmw","","","","","","","","","","","","","","","","","","","","","","","","","","","","","",""
"","html-keyboard-response","445","606093","0.0-775.0","18volbmw","1600","900","","","","","","","","","","","null","+","Fixation - long","","null","","","","","","","","","","","","",""
"","html-keyboard-response","446","613783","0.0-776.0","18volbmw","1600","900","","","","","","","","","","","7689","If rrd press LEFT | If cta press RIGHT","Inducer instructions",""," ","14","","","","","","","","","","","",""
"","html-keyboard-response","447","614553","0.0-777.0","18volbmw","1600","900","","","","","","","","","","","null","+","Fixation - short","","null","","","","","","","","","","","","",""
"","html-keyboard-response","448","615311","0.0-778.0","18volbmw","1600","900","","","","","","","","","","","757","cta","Diagnostic trial","","j","14","0","false","false","RIGHT","j","1","","RIGHT","true","","",""
"","html-keyboard-response","449","616077","0.0-781.0","18volbmw","1600","900","","","","","","","","","","","null","+","Fixation - short","","null","","","","","","","","","","","","",""
"","html-keyboard-response","450","616693","0.0-782.0","18volbmw","1600","900","","","","","","","","","","","614","cta","Diagnostic trial","","f","14","1","false","true","LEFT","f","1","","RIGHT","false","","",""
"","html-keyboard-response","451","617447","0.0-785.0","18volbmw","1600","900","","","","","","","","","","","null","+","Fixation - short","","null","","","","","","","","","","","","",""
"","html-keyboard-response","452","618427","0.0-786.0","18volbmw","1600","900","","","","","","","","","","","979","cta","Diagnostic trial","","j","14","2","false","false","RIGHT","j","1","","RIGHT","true","","",""
"","html-keyboard-response","453","619191","0.0-789.0","18volbmw","1600","900","","","","","","","","","","","null","+","Fixation - short","","null","","","","","","","","","","","","",""
"","html-keyboard-response","454","620200","0.0-790.0","18volbmw","1600","900","","","","","","","","","","","1008","rrd","Diagnostic trial","","j","14","3","false","false","RIGHT","j","1","","LEFT","false","","",""
"","html-keyboard-response","455","620960","0.0-793.0","18volbmw","1600","900","","","","","","","","","","","null","+","Fixation - short","","null","","","","","","","","","","","","",""
"","html-keyboard-response","456","621641","0.0-794.0","18volbmw","1600","900","","","","","","","","","","","680","cta","Diagnostic trial","","j","14","4","false","false","RIGHT","j","1","","RIGHT","true","","",""
"","html-keyboard-response","457","622407","0.0-797.0","18volbmw","1600","900","","","","","","","","","","","null","+","Fixation - short","","null","","","","","","","","","","","","",""
"","html-keyboard-response","458","623038","0.0-798.0","18volbmw","1600","900","","","","","","","","","","","630","cta","Diagnostic trial","","f","14","5","false","true","LEFT","f","1","","RIGHT","false","","",""
"","html-keyboard-response","459","623792","0.0-801.0","18volbmw","1600","900","","","","","","","","","","","null","+","Fixation - short","","null","","","","","","","","","","","","",""
"","html-keyboard-response","460","624494","0.0-802.0","18volbmw","1600","900","","","","","","","","","","","700","cta","Diagnostic trial","","f","14","6","false","true","LEFT","f","1","","RIGHT","false","","",""
"","html-keyboard-response","461","625259","0.0-805.0","18volbmw","1600","900","","","","","","","","","","","null","+","Fixation - short","","null","","","","","","","","","","","","",""
"","html-keyboard-response","462","625851","0.0-806.0","18volbmw","1600","900","","","","","","","","","","","590","rrd","Diagnostic trial","","f","14","7","false","true","LEFT","f","1","","LEFT","true","","",""
"","html-keyboard-response","463","626614","0.0-809.0","18volbmw","1600","900","","","","","","","","","","","null","+","Fixation - short","","null","","","","","","","","","","","","",""
"","html-keyboard-response","464","627253","0.0-810.0","18volbmw","1600","900","","","","","","","","","","","638","cta","Diagnostic trial","","f","14","8","false","true","LEFT","f","1","","RIGHT","false","","",""
"","html-keyboard-response","465","628019","0.0-813.0","18volbmw","1600","900","","","","","","","","","","","null","+","Fixation - short","","null","","","","","","","","","","","","",""
"","html-keyboard-response","466","628643","0.0-814.0","18volbmw","1600","900","","","","","","","","","","","624","cta","Diagnostic trial","","j","14","9","false","false","RIGHT","j","1","","RIGHT","true","","",""
"","html-keyboard-response","467","629406","0.0-817.0","18volbmw","1600","900","","","","","","","","","","","null","+","Fixation - short","","null","","","","","","","","","","","","",""
"","html-keyboard-response","468","630024","0.0-818.0","18volbmw","1600","900","","","","","","","","","","","616","cta","Diagnostic trial","","f","14","10","false","true","LEFT","f","1","","RIGHT","false","","",""
"","html-keyboard-response","469","630789","0.0-821.0","18volbmw","1600","900","","","","","","","","","","","null","+","Fixation - short","","null","","","","","","","","","","","","",""
"","html-keyboard-response","470","631359","0.0-822.0","18volbmw","1600","900","","","","","","","","","","","568","rrd","Diagnostic trial","","f","14","11","false","true","LEFT","f","1","","LEFT","true","","",""
"","html-keyboard-response","471","632120","0.0-825.0","18volbmw","1600","900","","","","","","","","","","","null","+","Fixation - short","","null","","","","","","","","","","","","",""
"","html-keyboard-response","472","632667","0.0-826.0","18volbmw","1600","900","","","","","","","","","","","545","rrd","Diagnostic trial","","f","14","12","false","true","LEFT","f","1","","LEFT","true","","",""
"","html-keyboard-response","473","633432","0.0-829.0","18volbmw","1600","900","","","","","","","","","","","null","+","Fixation - short","","null","","","","","","","","","","","","",""
"","html-keyboard-response","474","634719","0.0-830.0","18volbmw","1600","900","","","","","","","","","","","1286","cta","Inducer trial","","j","14","","true","","","j","1","RIGHT","","","","",""
"","html-keyboard-response","475","636242","0.0-833.0","18volbmw","1600","900","","","","","","","","","","","null","+","Fixation - long","","null","","","","","","","","","","","","",""
"","html-keyboard-response","476","642562","0.0-834.0","18volbmw","1600","900","","","","","","","","","","","6318","If ydi press LEFT | If wrz press RIGHT","Inducer instructions",""," ","15","","","","","","","","","","","",""
"","html-keyboard-response","477","643319","0.0-835.0","18volbmw","1600","900","","","","","","","","","","","null","+","Fixation - short","","null","","","","","","","","","","","","",""
"","html-keyboard-response","478","644207","0.0-836.0","18volbmw","1600","900","","","","","","","","","","","887","ydi","Diagnostic trial","","j","15","0","false","false","RIGHT","j","1","","LEFT","false","","",""
"","html-keyboard-response","479","644959","0.0-839.0","18volbmw","1600","900","","","","","","","","","","","null","+","Fixation - short","","null","","","","","","","","","","","","",""
"","html-keyboard-response","480","645643","0.0-840.0","18volbmw","1600","900","","","","","","","","","","","682","ydi","Diagnostic trial","","f","15","1","false","true","LEFT","f","1","","LEFT","true","","",""
"","html-keyboard-response","481","646403","0.0-843.0","18volbmw","1600","900","","","","","","","","","","","null","+","Fixation - short","","null","","","","","","","","","","","","",""
"","html-keyboard-response","482","647249","0.0-844.0","18volbmw","1600","900","","","","","","","","","","","844","ydi","Diagnostic trial","","f","15","2","false","true","LEFT","f","1","","LEFT","true","","",""
"","html-keyboard-response","483","648009","0.0-847.0","18volbmw","1600","900","","","","","","","","","","","null","+","Fixation - short","","null","","","","","","","","","","","","",""
"","html-keyboard-response","484","648511","0.0-848.0","18volbmw","1600","900","","","","","","","","","","","501","ydi","Diagnostic trial","","f","15","3","false","true","LEFT","f","1","","LEFT","true","","",""
"","html-keyboard-response","485","649276","0.0-851.0","18volbmw","1600","900","","","","","","","","","","","null","+","Fixation - short","","null","","","","","","","","","","","","",""
"","html-keyboard-response","486","650132","0.0-852.0","18volbmw","1600","900","","","","","","","","","","","855","wrz","Diagnostic trial","","j","15","4","false","false","RIGHT","j","1","","RIGHT","true","","",""
"","html-keyboard-response","487","650903","0.0-855.0","18volbmw","1600","900","","","","","","","","","","","null","+","Fixation - short","","null","","","","","","","","","","","","",""
"","html-keyboard-response","488","651529","0.0-856.0","18volbmw","1600","900","","","","","","","","","","","625","wrz","Diagnostic trial","","j","15","5","false","false","RIGHT","j","1","","RIGHT","true","","",""
"","html-keyboard-response","489","652286","0.0-859.0","18volbmw","1600","900","","","","","","","","","","","null","+","Fixation - short","","null","","","","","","","","","","","","",""
"","html-keyboard-response","490","652818","0.0-860.0","18volbmw","1600","900","","","","","","","","","","","532","ydi","Diagnostic trial","","j","15","6","false","false","RIGHT","j","1","","LEFT","false","","",""
"","html-keyboard-response","491","653574","0.0-863.0","18volbmw","1600","900","","","","","","","","","","","null","+","Fixation - short","","null","","","","","","","","","","","","",""
"","html-keyboard-response","492","654024","0.0-864.0","18volbmw","1600","900","","","","","","","","","","","448","ydi","Diagnostic trial","","j","15","7","false","false","RIGHT","j","1","","LEFT","false","","",""
"","html-keyboard-response","493","654778","0.0-867.0","18volbmw","1600","900","","","","","","","","","","","null","+","Fixation - short","","null","","","","","","","","","","","","",""
"","html-keyboard-response","494","655359","0.0-868.0","18volbmw","1600","900","","","","","","","","","","","580","ydi","Diagnostic trial","","f","15","8","false","true","LEFT","f","1","","LEFT","true","","",""
"","html-keyboard-response","495","656119","0.0-871.0","18volbmw","1600","900","","","","","","","","","","","null","+","Fixation - short","","null","","","","","","","","","","","","",""
"","html-keyboard-response","496","656869","0.0-872.0","18volbmw","1600","900","","","","","","","","","","","749","wrz","Diagnostic trial","","j","15","9","false","false","RIGHT","j","1","","RIGHT","true","","",""
"","html-keyboard-response","497","657627","0.0-875.0","18volbmw","1600","900","","","","","","","","","","","null","+","Fixation - short","","null","","","","","","","","","","","","",""
"","html-keyboard-response","498","658368","0.0-876.0","18volbmw","1600","900","","","","","","","","","","","740","wrz","Diagnostic trial","","f","15","10","false","true","LEFT","f","1","","RIGHT","false","","",""
"","html-keyboard-response","499","659134","0.0-879.0","18volbmw","1600","900","","","","","","","","","","","null","+","Fixation - short","","null","","","","","","","","","","","","",""
"","html-keyboard-response","500","659918","0.0-880.0","18volbmw","1600","900","","","","","","","","","","","782","ydi","Diagnostic trial","","f","15","11","false","true","LEFT","f","1","","LEFT","true","","",""
