"value","trial_type","trial_index","time_elapsed","internal_node_id","id","width","height","webaudio","browser","browser_version","mobile","os","fullscreen","vsync_rate","webcam","microphone","view_history","rt","stimulus","trial_info","success","response","exp_parameters","inducer_run","diagnostic_run","cue_num","post_cue","inducer_trial","italic","forced_equal_run","correct_inducer_response_side","correct_diag_response_side","correct_response_key","correct_response","congruent","force_equal","correct_indu_response_side","accuracy","interactive"
"","call-function","0","1","0.0-0.0","rxmeuvtm","","","","","","","","","","","","","","","","","","","","","","","","","","","","","","","","","",""
"","browser-check","1","1007","0.0-1.0","rxmeuvtm","2560","1271","true","chrome","123.0.0","false","Windows 10","true","60.05","false","true","","","","","","","","","","","","","","","","","","","","","","",""
"","instructions","2","491414","0.0-2.0","rxmeuvtm","","","","","","","","","","","","[{""page_index"":0,""viewing_time"":2226},{""page_index"":1,""viewing_time"":485633},{""page_index"":2,""viewing_time"":2547}]","490406","The experiment and consent","The experiment and consent","","","","","","","","","","","","","","","","","","",""
"","fullscreen","3","494574","0.0-3.0","rxmeuvtm","","","","","","","","","","","","","2159","","Full screen","true","","","","","","","","","","","","","","","","","",""
"","instructions","4","508781","0.0-4.0","rxmeuvtm","","","","","","","","","","","","[{""page_index"":0,""viewing_time"":10078},{""page_index"":1,""viewing_time"":4128}]","14206","Instructions","Basic overview explanation","","","","","","","","","","","","","","","","","","",""
"","html-keyboard-response","5","524882","0.0-5.0","rxmeuvtm","","","","","","","","","","","","","14595","If italic press LEFT | If upright press RIGHT","Diagnostic instructions",""," ","{""debug"":false,""skip_instructions"":false,""skip_practice"":false,""save_local_data"":false,""studu_name"":""exp2"",""default_background_colour"":""#cccccc"",""wrong_response_colour"":""#d22d2d"",""instruction_delay"":20000,""trial_duration"":2000,""short_fixation"":750,""long_fixation"":1500,""wrong_response_delay"":300,""too_slow_delay"":300,""instruction_font_size"":""24px"",""general_font_size"":""42px"",""fixation_size"":""48px"",""allowed_responses"":[""f"",""j""],""cue_min_length"":0,""cue_max_length"":4,""tot_post_cue_len"":72,""cue_colour"":""yellow"",""cue_shape"":""Triangle"",""cue_size"":70,""cue_duration"":1250,""avg_number_of_cues"":3,""inducer_colour"":""red"",""number_of_inducers"":24,""pre_cue_italic_forced_equal"":true,""post_cue_italic_forced_equal"":true,""prac_diagnostic_rounds"":16,""prac_inducer_rounds"":6,""prac_cue_rounds"":16,""prac_post_cue_num"":3}","","","","","","","","","","","","","","","",""
"","html-keyboard-response","6","525635","0.0-6.0","rxmeuvtm","2560","1440","","","","","","","","","","","null","+","Fixation - short","","null","","","","","","","","","","","","","","","","",""
"","html-keyboard-response","7","526265","0.0-7.0","rxmeuvtm","","","","","","","","","","","","","630","fuc","Diagnostic practice","","j","","Diagnostic practice","0","-84","true","false","false","prac equal","RIGHT","RIGHT","j","1","true","","","",""
"","html-keyboard-response","8","527017","0.0-10.0","rxmeuvtm","2560","1440","","","","","","","","","","","null","+","Fixation - short","","null","","","","","","","","","","","","","","","","",""
"","html-keyboard-response","9","527433","0.0-11.0","rxmeuvtm","","","","","","","","","","","","","416","uen","Diagnostic practice","","f","","Diagnostic practice","1","-84","true","false","true","prac equal","LEFT","LEFT","f","1","true","","","",""
"","html-keyboard-response","10","528183","0.0-14.0","rxmeuvtm","2560","1440","","","","","","","","","","","null","+","Fixation - short","","null","","","","","","","","","","","","","","","","",""
"","html-keyboard-response","11","528601","0.0-15.0","rxmeuvtm","","","","","","","","","","","","","417","fuc","Diagnostic practice","","j","","Diagnostic practice","2","-84","true","false","false","prac equal","RIGHT","RIGHT","j","1","true","","","",""
"","html-keyboard-response","12","529353","0.0-18.0","rxmeuvtm","2560","1440","","","","","","","","","","","null","+","Fixation - short","","null","","","","","","","","","","","","","","","","",""
"","html-keyboard-response","13","529849","0.0-19.0","rxmeuvtm","","","","","","","","","","","","","496","uen","Diagnostic practice","","f","","Diagnostic practice","3","-84","true","false","false","prac equal","LEFT","RIGHT","j","0","false","","","",""
"","call-function","14","529849","0.0-21.0-0.0","rxmeuvtm","","","","","","","","","","","","","","","","","","","","","","","","","","","","","","","","","",""
"","html-keyboard-response","15","530153","0.0-21.0-1.0","rxmeuvtm","2560","1440","","","","","","","","","","","null","Wrong","Feedback","","null","","","","","","","","","","","","","","","","",""
"","call-function","16","530154","0.0-21.0-2.0","rxmeuvtm","","","","","","","","","","","","","","","","","","","","","","","","","","","","","","","","","",""
"","html-keyboard-response","17","530904","0.0-22.0","rxmeuvtm","2560","1440","","","","","","","","","","","null","+","Fixation - short","","null","","","","","","","","","","","","","","","","",""
"","html-keyboard-response","18","531377","0.0-23.0","rxmeuvtm","","","","","","","","","","","","","472","fuc","Diagnostic practice","","j","","Diagnostic practice","4","-84","true","false","false","prac equal","RIGHT","RIGHT","j","1","true","","","",""
"","html-keyboard-response","19","532128","0.0-26.0","rxmeuvtm","2560","1440","","","","","","","","","","","null","+","Fixation - short","","null","","","","","","","","","","","","","","","","",""
"","html-keyboard-response","20","532609","0.0-27.0","rxmeuvtm","","","","","","","","","","","","","481","uen","Diagnostic practice","","f","","Diagnostic practice","5","-84","true","false","true","prac equal","LEFT","LEFT","f","1","true","","","",""
"","html-keyboard-response","21","533361","0.0-30.0","rxmeuvtm","2560","1440","","","","","","","","","","","null","+","Fixation - short","","null","","","","","","","","","","","","","","","","",""
"","html-keyboard-response","22","533865","0.0-31.0","rxmeuvtm","","","","","","","","","","","","","504","uen","Diagnostic practice","","f","","Diagnostic practice","6","-84","true","false","true","prac equal","LEFT","LEFT","f","1","true","","","",""
"","html-keyboard-response","23","534616","0.0-34.0","rxmeuvtm","2560","1440","","","","","","","","","","","null","+","Fixation - short","","null","","","","","","","","","","","","","","","","",""
"","html-keyboard-response","24","535041","0.0-35.0","rxmeuvtm","","","","","","","","","","","","","425","uen","Diagnostic practice","","f","","Diagnostic practice","7","-84","true","false","true","prac equal","LEFT","LEFT","f","1","true","","","",""
"","html-keyboard-response","25","535792","0.0-38.0","rxmeuvtm","2560","1440","","","","","","","","","","","null","+","Fixation - short","","null","","","","","","","","","","","","","","","","",""
"","html-keyboard-response","26","536209","0.0-39.0","rxmeuvtm","","","","","","","","","","","","","417","uen","Diagnostic practice","","f","","Diagnostic practice","8","-84","true","false","true","prac equal","LEFT","LEFT","f","1","true","","","",""
"","html-keyboard-response","27","536960","0.0-42.0","rxmeuvtm","2560","1440","","","","","","","","","","","null","+","Fixation - short","","null","","","","","","","","","","","","","","","","",""
"","html-keyboard-response","28","537313","0.0-43.0","rxmeuvtm","","","","","","","","","","","","","353","uen","Diagnostic practice","","f","","Diagnostic practice","9","-84","true","false","true","prac equal","LEFT","LEFT","f","1","true","","","",""
"","html-keyboard-response","29","538064","0.0-46.0","rxmeuvtm","2560","1440","","","","","","","","","","","null","+","Fixation - short","","null","","","","","","","","","","","","","","","","",""
"","html-keyboard-response","30","538577","0.0-47.0","rxmeuvtm","","","","","","","","","","","","","513","uen","Diagnostic practice","","j","","Diagnostic practice","10","-84","true","false","false","prac equal","LEFT","RIGHT","j","1","false","","","",""
"","html-keyboard-response","31","539328","0.0-50.0","rxmeuvtm","2560","1440","","","","","","","","","","","null","+","Fixation - short","","null","","","","","","","","","","","","","","","","",""
"","html-keyboard-response","32","539769","0.0-51.0","rxmeuvtm","","","","","","","","","","","","","441","uen","Diagnostic practice","","j","","Diagnostic practice","11","-84","true","false","false","prac equal","LEFT","RIGHT","j","1","false","","","",""
"","html-keyboard-response","33","540520","0.0-54.0","rxmeuvtm","2560","1440","","","","","","","","","","","null","+","Fixation - short","","null","","","","","","","","","","","","","","","","",""
"","html-keyboard-response","34","540897","0.0-55.0","rxmeuvtm","","","","","","","","","","","","","377","uen","Diagnostic practice","","j","","Diagnostic practice","12","-84","true","false","true","prac equal","LEFT","LEFT","f","0","true","","","",""
"","call-function","35","540897","0.0-57.0-0.0","rxmeuvtm","","","","","","","","","","","","","","","","","","","","","","","","","","","","","","","","","",""
"","html-keyboard-response","36","541198","0.0-57.0-1.0","rxmeuvtm","2560","1440","","","","","","","","","","","null","Wrong","Feedback","","null","","","","","","","","","","","","","","","","",""
"","call-function","37","541198","0.0-57.0-2.0","rxmeuvtm","","","","","","","","","","","","","","","","","","","","","","","","","","","","","","","","","",""
"","html-keyboard-response","38","541949","0.0-58.0","rxmeuvtm","2560","1440","","","","","","","","","","","null","+","Fixation - short","","null","","","","","","","","","","","","","","","","",""
"","html-keyboard-response","39","542753","0.0-59.0","rxmeuvtm","","","","","","","","","","","","","804","fuc","Diagnostic practice","","f","","Diagnostic practice","13","-84","true","false","true","prac equal","RIGHT","LEFT","f","1","false","","","",""
"","html-keyboard-response","40","543504","0.0-62.0","rxmeuvtm","2560","1440","","","","","","","","","","","null","+","Fixation - short","","null","","","","","","","","","","","","","","","","",""
"","html-keyboard-response","41","544265","0.0-63.0","rxmeuvtm","","","","","","","","","","","","","761","uen","Diagnostic practice","","j","","Diagnostic practice","14","-84","true","false","false","prac equal","LEFT","RIGHT","j","1","false","","","",""
"","html-keyboard-response","42","545017","0.0-66.0","rxmeuvtm","2560","1440","","","","","","","","","","","null","+","Fixation - short","","null","","","","","","","","","","","","","","","","",""
"","html-keyboard-response","43","546017","0.0-67.0","rxmeuvtm","","","","","","","","","","","","","1000","uen","Diagnostic practice","","j","","Diagnostic practice","15","-84","true","false","false","prac equal","LEFT","RIGHT","j","1","false","","","",""
"","html-keyboard-response","44","546768","0.0-70.0","rxmeuvtm","2560","1440","","","","","","","","","","","null","+","Fixation - short","","null","","","","","","","","","","","","","","","","",""
"","instructions","45","553246","0.0-71.0","rxmeuvtm","","","","","","","","","","","","[{""page_index"":0,""viewing_time"":6477}]","6477","Instructions","Final experiment explanation","","","","","","","","","","","","","","","","","","",""
"","html-keyboard-response","46","565865","0.0-72.0","rxmeuvtm","","","","","","","","","","","","","11117","If rbc press LEFT | If hhd press RIGHT","Inducer practice",""," ","","Practice","","","","","","","","","","","","","","",""
"","html-keyboard-response","47","566616","0.0-73.0","rxmeuvtm","2560","1440","","","","","","","","","","","null","+","Fixation - short","","null","","","","","","","","","","","","","","","","",""
"","html-keyboard-response","48","567281","0.0-74.0","rxmeuvtm","","","","","","","","","","","","","664","rbc","Inducer practice","","f","","Practice","","","","true","","","","","f","1","","true","LEFT","",""
"","html-keyboard-response","49","568031","0.0-77.0","rxmeuvtm","2560","1440","","","","","","","","","","","null","+","Fixation - short","","null","","","","","","","","","","","","","","","","",""
"","html-keyboard-response","50","574937","0.0-78.0","rxmeuvtm","","","","","","","","","","","","","6905","If pmf press LEFT | If ivr press RIGHT","Inducer practice",""," ","","Practice","","","","","","","","","","","","","","",""
"","html-keyboard-response","51","575688","0.0-79.0","rxmeuvtm","2560","1440","","","","","","","","","","","null","+","Fixation - short","","null","","","","","","","","","","","","","","","","",""
"","html-keyboard-response","52","576521","0.0-80.0","rxmeuvtm","","","","","","","","","","","","","833","ivr","Inducer practice","","j","","Practice","","","","true","","","","","j","1","","true","RIGHT","",""
"","html-keyboard-response","53","577272","0.0-83.0","rxmeuvtm","2560","1440","","","","","","","","","","","null","+","Fixation - short","","null","","","","","","","","","","","","","","","","",""
"","html-keyboard-response","54","581321","0.0-84.0","rxmeuvtm","","","","","","","","","","","","","4049","If bwe press LEFT | If wab press RIGHT","Inducer practice",""," ","","Practice","","","","","","","","","","","","","","",""
"","html-keyboard-response","55","582072","0.0-85.0","rxmeuvtm","2560","1440","","","","","","","","","","","null","+","Fixation - short","","null","","","","","","","","","","","","","","","","",""
"","html-keyboard-response","56","582545","0.0-86.0","rxmeuvtm","","","","","","","","","","","","","473","bwe","Inducer practice","","f","","Practice","","","","true","","","","","f","1","","true","LEFT","",""
"","html-keyboard-response","57","583302","0.0-89.0","rxmeuvtm","2560","1440","","","","","","","","","","","null","+","Fixation - short","","null","","","","","","","","","","","","","","","","",""
"","html-keyboard-response","58","584593","0.0-90.0","rxmeuvtm","","","","","","","","","","","","","1291","If kmh press LEFT | If upf press RIGHT","Inducer practice",""," ","","Practice","","","","","","","","","","","","","","",""
"","html-keyboard-response","59","585345","0.0-91.0","rxmeuvtm","2560","1440","","","","","","","","","","","null","+","Fixation - short","","null","","","","","","","","","","","","","","","","",""
"","html-keyboard-response","60","586249","0.0-92.0","rxmeuvtm","","","","","","","","","","","","","904","upf","Inducer practice","","j","","Practice","","","","true","","","","","j","1","","true","RIGHT","",""
"","html-keyboard-response","61","586999","0.0-95.0","rxmeuvtm","2560","1440","","","","","","","","","","","null","+","Fixation - short","","null","","","","","","","","","","","","","","","","",""
"","html-keyboard-response","62","589369","0.0-96.0","rxmeuvtm","","","","","","","","","","","","","2370","If nga press LEFT | If frn press RIGHT","Inducer practice",""," ","","Practice","","","","","","","","","","","","","","",""
"","html-keyboard-response","63","590120","0.0-97.0","rxmeuvtm","2560","1440","","","","","","","","","","","null","+","Fixation - short","","null","","","","","","","","","","","","","","","","",""
"","html-keyboard-response","64","590705","0.0-98.0","rxmeuvtm","","","","","","","","","","","","","585","nga","Inducer practice","","f","","Practice","","","","true","","","","","f","1","","true","LEFT","",""
"","html-keyboard-response","65","591455","0.0-101.0","rxmeuvtm","2560","1440","","","","","","","","","","","null","+","Fixation - short","","null","","","","","","","","","","","","","","","","",""
"","html-keyboard-response","66","592609","0.0-102.0","rxmeuvtm","","","","","","","","","","","","","1153","If jsf press LEFT | If ori press RIGHT","Inducer practice",""," ","","Practice","","","","","","","","","","","","","","",""
"","html-keyboard-response","67","593359","0.0-103.0","rxmeuvtm","2560","1440","","","","","","","","","","","null","+","Fixation - short","","null","","","","","","","","","","","","","","","","",""
"","html-keyboard-response","68","593936","0.0-104.0","rxmeuvtm","","","","","","","","","","","","","577","ori","Inducer practice","","j","","Practice","","","","true","","","","","j","1","","true","RIGHT","",""
"","html-keyboard-response","69","594687","0.0-107.0","rxmeuvtm","2560","1440","","","","","","","","","","","null","+","Fixation - short","","null","","","","","","","","","","","","","","","","",""
"","instructions","70","616211","0.0-108.0","rxmeuvtm","","","","","","","","","","","","[{""page_index"":0,""viewing_time"":21524}]","21524","Instructions","Final experiment explanation","","","","","","","","","","","","","","","","","","",""
"","html-keyboard-response","71","619304","0.0-109.0","rxmeuvtm","","","","","","","","","","","","","1592","If ois press LEFT | If quy press RIGHT","Cue practice",""," ","","Practice","","","","","","","","","","","","","","",""
"","html-keyboard-response","72","620056","0.0-110.0","rxmeuvtm","2560","1440","","","","","","","","","","","null","+","Fixation - short","","null","","","","","","","","","","","","","","","","",""
"","html-keyboard-response","73","621097","0.0-111.0","rxmeuvtm","","","","","","","","","","","","","1041","ois","Cue practice","","f","","Practice","0","13","false","false","true","both pre & post","LEFT","LEFT","f","1","true","","","",""
"","html-keyboard-response","74","621847","0.0-114.0","rxmeuvtm","2560","1440","","","","","","","","","","","null","+","Fixation - short","","null","","","","","","","","","","","","","","","","",""
"","html-keyboard-response","75","622729","0.0-115.0","rxmeuvtm","","","","","","","","","","","","","882","quy","Cue practice","","f","","Practice","1","13","false","false","true","both pre & post","RIGHT","LEFT","f","1","false","","","",""
"","html-keyboard-response","76","623479","0.0-118.0","rxmeuvtm","2560","1440","","","","","","","","","","","null","+","Fixation - short","","null","","","","","","","","","","","","","","","","",""
"","html-keyboard-response","77","624081","0.0-119.0","rxmeuvtm","","","","","","","","","","","","","601","ois","Cue practice","","f","","Practice","2","13","false","false","true","both pre & post","LEFT","LEFT","f","1","true","","","",""
"","html-keyboard-response","78","624831","0.0-122.0","rxmeuvtm","2560","1440","","","","","","","","","","","null","+","Fixation - short","","null","","","","","","","","","","","","","","","","",""
"","html-keyboard-response","79","625737","0.0-123.0","rxmeuvtm","","","","","","","","","","","","","905","ois","Cue practice","","j","","Practice","3","13","false","false","false","both pre & post","LEFT","RIGHT","j","1","false","","","",""
"","html-keyboard-response","80","626488","0.0-126.0","rxmeuvtm","2560","1440","","","","","","","","","","","null","+","Fixation - short","","null","","","","","","","","","","","","","","","","",""
"","html-keyboard-response","81","627153","0.0-127.0","rxmeuvtm","","","","","","","","","","","","","664","quy","Cue practice","","j","","Practice","4","13","false","false","false","both pre & post","RIGHT","RIGHT","j","1","true","","","",""
"","html-keyboard-response","82","627903","0.0-130.0","rxmeuvtm","2560","1440","","","","","","","","","","","null","+","Fixation - short","","null","","","","","","","","","","","","","","","","",""
"","html-keyboard-response","83","628745","0.0-131.0","rxmeuvtm","","","","","","","","","","","","","841","ois","Cue practice","","j","","Practice","5","13","false","false","false","both pre & post","LEFT","RIGHT","j","1","false","","","",""
"","html-keyboard-response","84","629495","0.0-134.0","rxmeuvtm","2560","1440","","","","","","","","","","","null","+","Fixation - short","","null","","","","","","","","","","","","","","","","",""
"","html-keyboard-response","85","630513","0.0-135.0","rxmeuvtm","","","","","","","","","","","","","1017","ois","Cue practice","","f","","Practice","6","13","false","false","true","both pre & post","LEFT","LEFT","f","1","true","","","",""
"","html-keyboard-response","86","631264","0.0-138.0","rxmeuvtm","2560","1440","","","","","","","","","","","null","+","Fixation - short","","null","","","","","","","","","","","","","","","","",""
"","html-keyboard-response","87","631921","0.0-139.0","rxmeuvtm","","","","","","","","","","","","","657","ois","Cue practice","","f","","Practice","7","13","false","false","true","both pre & post","LEFT","LEFT","f","1","true","","","",""
"","html-keyboard-response","88","632672","0.0-142.0","rxmeuvtm","2560","1440","","","","","","","","","","","null","+","Fixation - short","","null","","","","","","","","","","","","","","","","",""
"","html-keyboard-response","89","633369","0.0-143.0","rxmeuvtm","","","","","","","","","","","","","697","ois","Cue practice","","f","","Practice","8","13","false","false","false","both pre & post","LEFT","RIGHT","j","0","false","","","",""
"","call-function","90","633369","0.0-145.0-0.0","rxmeuvtm","","","","","","","","","","","","","","","","","","","","","","","","","","","","","","","","","",""
"","html-keyboard-response","91","633670","0.0-145.0-1.0","rxmeuvtm","2560","1440","","","","","","","","","","","null","Wrong","Feedback","","null","","","","","","","","","","","","","","","","",""
"","call-function","92","633670","0.0-145.0-2.0","rxmeuvtm","","","","","","","","","","","","","","","","","","","","","","","","","","","","","","","","","",""
"","html-keyboard-response","93","634421","0.0-146.0","rxmeuvtm","2560","1440","","","","","","","","","","","null","+","Fixation - short","","null","","","","","","","","","","","","","","","","",""
"","html-keyboard-response","94","635257","0.0-147.0","rxmeuvtm","","","","","","","","","","","","","835","ois","Cue practice","","f","","Practice","9","13","false","false","true","both pre & post","LEFT","LEFT","f","1","true","","","",""
"","html-keyboard-response","95","636007","0.0-150.0","rxmeuvtm","2560","1440","","","","","","","","","","","null","+","Fixation - short","","null","","","","","","","","","","","","","","","","",""
"","html-keyboard-response","96","636729","0.0-151.0","rxmeuvtm","","","","","","","","","","","","","721","quy","Cue practice","","f","","Practice","10","13","false","false","true","both pre & post","RIGHT","LEFT","f","1","false","","","",""
"","html-keyboard-response","97","637480","0.0-154.0","rxmeuvtm","2560","1440","","","","","","","","","","","null","+","Fixation - short","","null","","","","","","","","","","","","","","","","",""
"","html-keyboard-response","98","638529","0.0-155.0","rxmeuvtm","","","","","","","","","","","","","1049","ois","Cue practice","","j","","Practice","11","13","false","false","false","both pre & post","LEFT","RIGHT","j","1","false","","","",""
"","html-keyboard-response","99","639280","0.0-158.0","rxmeuvtm","2560","1440","","","","","","","","","","","null","+","Fixation - short","","null","","","","","","","","","","","","","","","","",""
"","html-keyboard-response","100","639833","0.0-159.0","rxmeuvtm","","","","","","","","","","","","","552","quy","Cue practice","","j","","Practice","12","13","false","false","false","both pre & post","RIGHT","RIGHT","j","1","true","","","",""
"","html-keyboard-response","101","640583","0.0-162.0","rxmeuvtm","2560","1440","","","","","","","","","","","null","+","Fixation - short","","null","","","","","","","","","","","","","","","","",""
"","canvas-keyboard-response","102","641834","0.0-163.0","rxmeuvtm","","","","","","","","","","","","","null","Cue","Cue","","null","","Practice","12","","","false","","","","","","","","","","",""
"","html-keyboard-response","103","642585","0.0-164.0","rxmeuvtm","2560","1440","","","","","","","","","","","null","+","Fixation - short","","null","","","","","","","","","","","","","","","","",""
"","html-keyboard-response","104","643433","0.0-165.0","rxmeuvtm","","","","","","","","","","","","","848","quy","Cue practice","","j","","Practice","13","13","true","false","false","both pre & post","RIGHT","RIGHT","j","1","true","","","",""
"","html-keyboard-response","105","644184","0.0-168.0","rxmeuvtm","2560","1440","","","","","","","","","","","null","+","Fixation - short","","null","","","","","","","","","","","","","","","","",""
"","html-keyboard-response","106","645017","0.0-169.0","rxmeuvtm","","","","","","","","","","","","","832","ois","Cue practice","","f","","Practice","14","13","true","false","true","both pre & post","LEFT","LEFT","f","1","true","","","",""
"","html-keyboard-response","107","645767","0.0-172.0","rxmeuvtm","2560","1440","","","","","","","","","","","null","+","Fixation - short","","null","","","","","","","","","","","","","","","","",""
"","html-keyboard-response","108","646217","0.0-173.0","rxmeuvtm","","","","","","","","","","","","","449","ois","Cue practice","","f","","Practice","15","13","true","false","true","both pre & post","LEFT","LEFT","f","1","true","","","",""
"","html-keyboard-response","109","646967","0.0-176.0","rxmeuvtm","2560","1440","","","","","","","","","","","null","+","Fixation - short","","null","","","","","","","","","","","","","","","","",""
"","html-keyboard-response","110","647953","0.0-177.0","rxmeuvtm","","","","","","","","","","","","","985","ois","Inducer practice","","f","","Practice","","","","true","","","","","f","1","","false","LEFT","",""
"","html-keyboard-response","111","648704","0.0-180.0","rxmeuvtm","2560","1440","","","","","","","","","","","null","+","Fixation - short","","null","","","","","","","","","","","","","","","","",""
"","instructions","112","651717","0.0-181.0","rxmeuvtm","","","","","","","","","","","","[{""page_index"":0,""viewing_time"":3013}]","3013","End practice","End of practice","","","","","","","","","","","","","","","","","","",""
"","html-keyboard-response","113","654719","0.0-182.0","rxmeuvtm","2560","1440","","","","","","","","","","","null","+","Fixation - long","","null","","","","","","","","","","","","","","","","",""
"","html-keyboard-response","114","657185","0.0-183.0","rxmeuvtm","","","","","","","","","","","","","2466","If gso press LEFT | If aor press RIGHT","Inducer instructions",""," ","","0","","","","","","","","","","","","","","",""
"","html-keyboard-response","115","657937","0.0-184.0","rxmeuvtm","2560","1440","","","","","","","","","","","null","+","Fixation - short","","null","","","","","","","","","","","","","","","","",""
"","html-keyboard-response","116","658745","0.0-185.0","rxmeuvtm","","","","","","","","","","","","","808","aor","Diagnostic trial","","j","","0","0","5","false","false","false","both pre & post","RIGHT","RIGHT","j","1","true","","","",""
"","html-keyboard-response","117","659497","0.0-188.0","rxmeuvtm","2560","1440","","","","","","","","","","","null","+","Fixation - short","","null","","","","","","","","","","","","","","","","",""
"","html-keyboard-response","118","659897","0.0-189.0","rxmeuvtm","","","","","","","","","","","","","400","aor","Diagnostic trial","","j","","0","1","5","false","false","false","both pre & post","RIGHT","RIGHT","j","1","true","","","",""
"","html-keyboard-response","119","660648","0.0-192.0","rxmeuvtm","2560","1440","","","","","","","","","","","null","+","Fixation - short","","null","","","","","","","","","","","","","","","","",""
"","html-keyboard-response","120","661841","0.0-193.0","rxmeuvtm","","","","","","","","","","","","","1192","gso","Diagnostic trial","","f","","0","2","5","false","false","false","both pre & post","LEFT","RIGHT","j","0","false","","","",""
"","call-function","121","661841","0.0-195.0-0.0","rxmeuvtm","","","","","","","","","","","","","","","","","","","","","","","","","","","","","","","","","",""
"","html-keyboard-response","122","662142","0.0-195.0-1.0","rxmeuvtm","2560","1440","","","","","","","","","","","null","Wrong","Feedback","","null","","","","","","","","","","","","","","","","",""
"","call-function","123","662142","0.0-195.0-2.0","rxmeuvtm","","","","","","","","","","","","","","","","","","","","","","","","","","","","","","","","","",""
"","html-keyboard-response","124","662893","0.0-196.0","rxmeuvtm","2560","1440","","","","","","","","","","","null","+","Fixation - short","","null","","","","","","","","","","","","","","","","",""
"","html-keyboard-response","125","664193","0.0-197.0","rxmeuvtm","","","","","","","","","","","","","1299","aor","Diagnostic trial","","f","","0","3","5","false","false","true","both pre & post","RIGHT","LEFT","f","1","false","","","",""
"","html-keyboard-response","126","664944","0.0-200.0","rxmeuvtm","2560","1440","","","","","","","","","","","null","+","Fixation - short","","null","","","","","","","","","","","","","","","","",""
"","html-keyboard-response","127","665545","0.0-201.0","rxmeuvtm","","","","","","","","","","","","","600","aor","Diagnostic trial","","j","","0","4","5","false","false","false","both pre & post","RIGHT","RIGHT","j","1","true","","","",""
"","html-keyboard-response","128","666296","0.0-204.0","rxmeuvtm","2560","1440","","","","","","","","","","","null","+","Fixation - short","","null","","","","","","","","","","","","","","","","",""
"","canvas-keyboard-response","129","667547","0.0-205.0","rxmeuvtm","","","","","","","","","","","","","null","Cue","Cue","","null","","0","4","","","false","","","","","","","","","","",""
"","html-keyboard-response","130","668297","0.0-206.0","rxmeuvtm","2560","1440","","","","","","","","","","","null","+","Fixation - short","","null","","","","","","","","","","","","","","","","",""
"","html-keyboard-response","131","669033","0.0-207.0","rxmeuvtm","","","","","","","","","","","","","736","aor","Diagnostic trial","","f","","0","5","5","true","false","true","both pre & post","RIGHT","LEFT","f","1","false","","","",""
"","html-keyboard-response","132","669785","0.0-210.0","rxmeuvtm","2560","1440","","","","","","","","","","","null","+","Fixation - short","","null","","","","","","","","","","","","","","","","",""
"","html-keyboard-response","133","670665","0.0-211.0","rxmeuvtm","","","","","","","","","","","","","880","gso","Diagnostic trial","","f","","0","6","5","true","false","true","both pre & post","LEFT","LEFT","f","1","true","","","",""
"","html-keyboard-response","134","671415","0.0-214.0","rxmeuvtm","2560","1440","","","","","","","","","","","null","+","Fixation - short","","null","","","","","","","","","","","","","","","","",""
"","html-keyboard-response","135","672585","0.0-215.0","rxmeuvtm","","","","","","","","","","","","","1170","gso","Inducer trial","","j","","0","","","","true","","","","","f","0","","false","LEFT","",""
"","call-function","136","672585","0.0-217.0-0.0","rxmeuvtm","","","","","","","","","","","","","","","","","","","","","","","","","","","","","","","","","",""
"","html-keyboard-response","137","672886","0.0-217.0-1.0","rxmeuvtm","2560","1440","","","","","","","","","","","null","Wrong","Feedback","","null","","","","","","","","","","","","","","","","",""
"","call-function","138","672886","0.0-217.0-2.0","rxmeuvtm","","","","","","","","","","","","","","","","","","","","","","","","","","","","","","","","","",""
"","html-keyboard-response","139","673637","0.0-218.0","rxmeuvtm","2560","1440","","","","","","","","","","","null","+","Fixation - short","","null","","","","","","","","","","","","","","","","",""
"","html-keyboard-response","140","674697","0.0-219.0","rxmeuvtm","","","","","","","","","","","","","1060","If edc press LEFT | If tkb press RIGHT","Inducer instructions",""," ","","1","","","","","","","","","","","","","","",""
"","html-keyboard-response","141","675448","0.0-220.0","rxmeuvtm","2560","1440","","","","","","","","","","","null","+","Fixation - short","","null","","","","","","","","","","","","","","","","",""
"","html-keyboard-response","142","676121","0.0-221.0","rxmeuvtm","","","","","","","","","","","","","673","tkb","Diagnostic trial","","j","","1","0","4","false","false","true","both pre & post","RIGHT","LEFT","f","0","false","","","",""
"","call-function","143","676121","0.0-223.0-0.0","rxmeuvtm","","","","","","","","","","","","","","","","","","","","","","","","","","","","","","","","","",""
"","html-keyboard-response","144","676422","0.0-223.0-1.0","rxmeuvtm","2560","1440","","","","","","","","","","","null","Wrong","Feedback","","null","","","","","","","","","","","","","","","","",""
"","call-function","145","676422","0.0-223.0-2.0","rxmeuvtm","","","","","","","","","","","","","","","","","","","","","","","","","","","","","","","","","",""
"","html-keyboard-response","146","677174","0.0-224.0","rxmeuvtm","2560","1440","","","","","","","","","","","null","+","Fixation - short","","null","","","","","","","","","","","","","","","","",""
"","html-keyboard-response","147","677593","0.0-225.0","rxmeuvtm","","","","","","","","","","","","","419","edc","Diagnostic trial","","f","","1","1","4","false","false","true","both pre & post","LEFT","LEFT","f","1","true","","","",""
"","html-keyboard-response","148","678344","0.0-228.0","rxmeuvtm","2560","1440","","","","","","","","","","","null","+","Fixation - short","","null","","","","","","","","","","","","","","","","",""
"","html-keyboard-response","149","678761","0.0-229.0","rxmeuvtm","","","","","","","","","","","","","417","tkb","Diagnostic trial","","f","","1","2","4","false","false","true","both pre & post","RIGHT","LEFT","f","1","false","","","",""
"","html-keyboard-response","150","679513","0.0-232.0","rxmeuvtm","2560","1440","","","","","","","","","","","null","+","Fixation - short","","null","","","","","","","","","","","","","","","","",""
"","html-keyboard-response","151","679881","0.0-233.0","rxmeuvtm","","","","","","","","","","","","","368","tkb","Diagnostic trial","","f","","1","3","4","false","false","false","both pre & post","RIGHT","RIGHT","j","0","true","","","",""
"","call-function","152","679881","0.0-235.0-0.0","rxmeuvtm","","","","","","","","","","","","","","","","","","","","","","","","","","","","","","","","","",""
"","html-keyboard-response","153","680185","0.0-235.0-1.0","rxmeuvtm","2560","1440","","","","","","","","","","","null","Wrong","Feedback","","null","","","","","","","","","","","","","","","","",""
"","call-function","154","680185","0.0-235.0-2.0","rxmeuvtm","","","","","","","","","","","","","","","","","","","","","","","","","","","","","","","","","",""
"","html-keyboard-response","155","680936","0.0-236.0","rxmeuvtm","2560","1440","","","","","","","","","","","null","+","Fixation - short","","null","","","","","","","","","","","","","","","","",""
"","canvas-keyboard-response","156","682186","0.0-237.0","rxmeuvtm","","","","","","","","","","","","","null","Cue","Cue","","null","","1","3","","","false","","","","","","","","","","",""
"","html-keyboard-response","157","682938","0.0-238.0","rxmeuvtm","2560","1440","","","","","","","","","","","null","+","Fixation - short","","null","","","","","","","","","","","","","","","","",""
"","html-keyboard-response","158","684089","0.0-239.0","rxmeuvtm","","","","","","","","","","","","","1151","edc","Diagnostic trial","","j","","1","4","4","true","false","false","both pre & post","LEFT","RIGHT","j","1","false","","","",""
"","html-keyboard-response","159","684840","0.0-242.0","rxmeuvtm","2560","1440","","","","","","","","","","","null","+","Fixation - short","","null","","","","","","","","","","","","","","","","",""
"","html-keyboard-response","160","685385","0.0-243.0","rxmeuvtm","","","","","","","","","","","","","545","edc","Diagnostic trial","","j","","1","5","4","true","false","false","both pre & post","LEFT","RIGHT","j","1","false","","","",""
"","html-keyboard-response","161","686136","0.0-246.0","rxmeuvtm","2560","1440","","","","","","","","","","","null","+","Fixation - short","","null","","","","","","","","","","","","","","","","",""
"","html-keyboard-response","162","686705","0.0-247.0","rxmeuvtm","","","","","","","","","","","","","569","edc","Diagnostic trial","","j","","1","6","4","true","false","false","both pre & post","LEFT","RIGHT","j","1","false","","","",""
"","html-keyboard-response","163","687456","0.0-250.0","rxmeuvtm","2560","1440","","","","","","","","","","","null","+","Fixation - short","","null","","","","","","","","","","","","","","","","",""
"","html-keyboard-response","164","688393","0.0-251.0","rxmeuvtm","","","","","","","","","","","","","937","edc","Diagnostic trial","","f","","1","7","4","true","false","true","both pre & post","LEFT","LEFT","f","1","true","","","",""
"","html-keyboard-response","165","689145","0.0-254.0","rxmeuvtm","2560","1440","","","","","","","","","","","null","+","Fixation - short","","null","","","","","","","","","","","","","","","","",""
"","html-keyboard-response","166","690129","0.0-255.0","rxmeuvtm","","","","","","","","","","","","","984","tkb","Inducer trial","","j","","1","","","","true","","","","","j","1","","false","RIGHT","",""
"","html-keyboard-response","167","690880","0.0-258.0","rxmeuvtm","2560","1440","","","","","","","","","","","null","+","Fixation - short","","null","","","","","","","","","","","","","","","","",""
"","html-keyboard-response","168","692121","0.0-259.0","rxmeuvtm","","","","","","","","","","","","","1241","If xet press LEFT | If jil press RIGHT","Inducer instructions",""," ","","2","","","","","","","","","","","","","","",""
"","html-keyboard-response","169","692880","0.0-260.0","rxmeuvtm","2560","1440","","","","","","","","","","","null","+","Fixation - short","","null","","","","","","","","","","","","","","","","",""
"","html-keyboard-response","170","693833","0.0-261.0","rxmeuvtm","","","","","","","","","","","","","953","jil","Diagnostic trial","","j","","2","0","7","false","false","false","both pre & post","RIGHT","RIGHT","j","1","true","","","",""
"","html-keyboard-response","171","694583","0.0-264.0","rxmeuvtm","2560","1440","","","","","","","","","","","null","+","Fixation - short","","null","","","","","","","","","","","","","","","","",""
"","html-keyboard-response","172","695161","0.0-265.0","rxmeuvtm","","","","","","","","","","","","","577","xet","Diagnostic trial","","f","","2","1","7","false","false","true","both pre & post","LEFT","LEFT","f","1","true","","","",""
"","html-keyboard-response","173","695912","0.0-268.0","rxmeuvtm","2560","1440","","","","","","","","","","","null","+","Fixation - short","","null","","","","","","","","","","","","","","","","",""
"","html-keyboard-response","174","696849","0.0-269.0","rxmeuvtm","","","","","","","","","","","","","937","xet","Diagnostic trial","","j","","2","2","7","false","false","false","both pre & post","LEFT","RIGHT","j","1","false","","","",""
"","html-keyboard-response","175","697600","0.0-272.0","rxmeuvtm","2560","1440","","","","","","","","","","","null","+","Fixation - short","","null","","","","","","","","","","","","","","","","",""
"","html-keyboard-response","176","698321","0.0-273.0","rxmeuvtm","","","","","","","","","","","","","721","xet","Diagnostic trial","","f","","2","3","7","false","false","true","both pre & post","LEFT","LEFT","f","1","true","","","",""
"","html-keyboard-response","177","699072","0.0-276.0","rxmeuvtm","2560","1440","","","","","","","","","","","null","+","Fixation - short","","null","","","","","","","","","","","","","","","","",""
"","html-keyboard-response","178","699921","0.0-277.0","rxmeuvtm","","","","","","","","","","","","","849","xet","Diagnostic trial","","f","","2","4","7","false","false","true","both pre & post","LEFT","LEFT","f","1","true","","","",""
"","html-keyboard-response","179","700671","0.0-280.0","rxmeuvtm","2560","1440","","","","","","","","","","","null","+","Fixation - short","","null","","","","","","","","","","","","","","","","",""
"","html-keyboard-response","180","701721","0.0-281.0","rxmeuvtm","","","","","","","","","","","","","1049","xet","Diagnostic trial","","j","","2","5","7","false","false","false","both pre & post","LEFT","RIGHT","j","1","false","","","",""
"","html-keyboard-response","181","702472","0.0-284.0","rxmeuvtm","2560","1440","","","","","","","","","","","null","+","Fixation - short","","null","","","","","","","","","","","","","","","","",""
"","html-keyboard-response","182","703257","0.0-285.0","rxmeuvtm","","","","","","","","","","","","","785","jil","Diagnostic trial","","f","","2","6","7","false","false","true","both pre & post","RIGHT","LEFT","f","1","false","","","",""
"","html-keyboard-response","183","704007","0.0-288.0","rxmeuvtm","2560","1440","","","","","","","","","","","null","+","Fixation - short","","null","","","","","","","","","","","","","","","","",""
"","canvas-keyboard-response","184","705258","0.0-289.0","rxmeuvtm","","","","","","","","","","","","","null","Cue","Cue","","null","","2","6","","","false","","","","","","","","","","",""
"","html-keyboard-response","185","706018","0.0-290.0","rxmeuvtm","2560","1440","","","","","","","","","","","null","+","Fixation - short","","null","","","","","","","","","","","","","","","","",""
"","html-keyboard-response","186","706841","0.0-291.0","rxmeuvtm","","","","","","","","","","","","","823","jil","Diagnostic trial","","j","","2","7","7","true","false","false","both pre & post","RIGHT","RIGHT","j","1","true","","","",""
"","html-keyboard-response","187","707592","0.0-294.0","rxmeuvtm","2560","1440","","","","","","","","","","","null","+","Fixation - short","","null","","","","","","","","","","","","","","","","",""
"","html-keyboard-response","188","708105","0.0-295.0","rxmeuvtm","","","","","","","","","","","","","513","jil","Diagnostic trial","","j","","2","8","7","true","false","false","both pre & post","RIGHT","RIGHT","j","1","true","","","",""
"","html-keyboard-response","189","708856","0.0-298.0","rxmeuvtm","2560","1440","","","","","","","","","","","null","+","Fixation - short","","null","","","","","","","","","","","","","","","","",""
"","html-keyboard-response","190","709417","0.0-299.0","rxmeuvtm","","","","","","","","","","","","","561","xet","Diagnostic trial","","f","","2","9","7","true","false","true","both pre & post","LEFT","LEFT","f","1","true","","","",""
"","html-keyboard-response","191","710168","0.0-302.0","rxmeuvtm","2560","1440","","","","","","","","","","","null","+","Fixation - short","","null","","","","","","","","","","","","","","","","",""
"","html-keyboard-response","192","710816","0.0-303.0","rxmeuvtm","","","","","","","","","","","","","649","jil","Diagnostic trial","","j","","2","10","7","true","false","false","both pre & post","RIGHT","RIGHT","j","1","true","","","",""
"","html-keyboard-response","193","711567","0.0-306.0","rxmeuvtm","2560","1440","","","","","","","","","","","null","+","Fixation - short","","null","","","","","","","","","","","","","","","","",""
"","html-keyboard-response","194","712728","0.0-307.0","rxmeuvtm","","","","","","","","","","","","","1161","jil","Inducer trial","","j","","2","","","","true","","","","","j","1","","false","RIGHT","",""
"","html-keyboard-response","195","713479","0.0-310.0","rxmeuvtm","2560","1440","","","","","","","","","","","null","+","Fixation - short","","null","","","","","","","","","","","","","","","","",""
"","html-keyboard-response","196","714352","0.0-311.0","rxmeuvtm","","","","","","","","","","","","","873","If idy press LEFT | If cui press RIGHT","Inducer instructions",""," ","","3","","","","","","","","","","","","","","",""
"","html-keyboard-response","197","715104","0.0-312.0","rxmeuvtm","2560","1440","","","","","","","","","","","null","+","Fixation - short","","null","","","","","","","","","","","","","","","","",""
"","html-keyboard-response","198","715896","0.0-313.0","rxmeuvtm","","","","","","","","","","","","","792","idy","Diagnostic trial","","j","","3","0","4","false","false","false","both pre & post","LEFT","RIGHT","j","1","false","","","",""
"","html-keyboard-response","199","716647","0.0-316.0","rxmeuvtm","2560","1440","","","","","","","","","","","null","+","Fixation - short","","null","","","","","","","","","","","","","","","","",""
"","html-keyboard-response","200","717208","0.0-317.0","rxmeuvtm","","","","","","","","","","","","","561","idy","Diagnostic trial","","f","","3","1","4","false","false","true","both pre & post","LEFT","LEFT","f","1","true","","","",""
"","html-keyboard-response","201","717959","0.0-320.0","rxmeuvtm","2560","1440","","","","","","","","","","","null","+","Fixation - short","","null","","","","","","","","","","","","","","","","",""
"","html-keyboard-response","202","718440","0.0-321.0","rxmeuvtm","","","","","","","","","","","","","481","idy","Diagnostic trial","","f","","3","2","4","false","false","true","both pre & post","LEFT","LEFT","f","1","true","","","",""
"","html-keyboard-response","203","719200","0.0-324.0","rxmeuvtm","2560","1440","","","","","","","","","","","null","+","Fixation - short","","null","","","","","","","","","","","","","","","","",""
"","html-keyboard-response","204","720072","0.0-325.0","rxmeuvtm","","","","","","","","","","","","","872","idy","Diagnostic trial","","j","","3","3","4","false","false","false","both pre & post","LEFT","RIGHT","j","1","false","","","",""
"","html-keyboard-response","205","720824","0.0-328.0","rxmeuvtm","2560","1440","","","","","","","","","","","null","+","Fixation - short","","null","","","","","","","","","","","","","","","","",""
"","canvas-keyboard-response","206","722074","0.0-329.0","rxmeuvtm","","","","","","","","","","","","","null","Cue","Cue","","null","","3","3","","","false","","","","","","","","","","",""
"","html-keyboard-response","207","722825","0.0-330.0","rxmeuvtm","2560","1440","","","","","","","","","","","null","+","Fixation - short","","null","","","","","","","","","","","","","","","","",""
"","html-keyboard-response","208","723585","0.0-331.0","rxmeuvtm","","","","","","","","","","","","","759","cui","Diagnostic trial","","f","","3","4","4","true","false","true","both pre & post","RIGHT","LEFT","f","1","false","","","",""
"","html-keyboard-response","209","724335","0.0-334.0","rxmeuvtm","2560","1440","","","","","","","","","","","null","+","Fixation - short","","null","","","","","","","","","","","","","","","","",""
"","html-keyboard-response","210","725160","0.0-335.0","rxmeuvtm","","","","","","","","","","","","","825","idy","Diagnostic trial","","f","","3","5","4","true","false","true","both pre & post","LEFT","LEFT","f","1","true","","","",""
"","html-keyboard-response","211","725911","0.0-338.0","rxmeuvtm","2560","1440","","","","","","","","","","","null","+","Fixation - short","","null","","","","","","","","","","","","","","","","",""
"","html-keyboard-response","212","726760","0.0-339.0","rxmeuvtm","","","","","","","","","","","","","849","idy","Diagnostic trial","","j","","3","6","4","true","false","false","both pre & post","LEFT","RIGHT","j","1","false","","","",""
"","html-keyboard-response","213","727511","0.0-342.0","rxmeuvtm","2560","1440","","","","","","","","","","","null","+","Fixation - short","","null","","","","","","","","","","","","","","","","",""
"","html-keyboard-response","214","728273","0.0-343.0","rxmeuvtm","","","","","","","","","","","","","761","cui","Diagnostic trial","","j","","3","7","4","true","false","false","both pre & post","RIGHT","RIGHT","j","1","true","","","",""
"","html-keyboard-response","215","729024","0.0-346.0","rxmeuvtm","2560","1440","","","","","","","","","","","null","+","Fixation - short","","null","","","","","","","","","","","","","","","","",""
"","html-keyboard-response","216","729920","0.0-347.0","rxmeuvtm","","","","","","","","","","","","","896","idy","Inducer trial","","j","","3","","","","true","","","","","f","0","","false","LEFT","",""
"","call-function","217","729920","0.0-349.0-0.0","rxmeuvtm","","","","","","","","","","","","","","","","","","","","","","","","","","","","","","","","","",""
"","html-keyboard-response","218","730233","0.0-349.0-1.0","rxmeuvtm","2560","1440","","","","","","","","","","","null","Wrong","Feedback","","null","","","","","","","","","","","","","","","","",""
"","call-function","219","730234","0.0-349.0-2.0","rxmeuvtm","","","","","","","","","","","","","","","","","","","","","","","","","","","","","","","","","",""
"","html-keyboard-response","220","730985","0.0-350.0","rxmeuvtm","2560","1440","","","","","","","","","","","null","+","Fixation - short","","null","","","","","","","","","","","","","","","","",""
"","html-keyboard-response","221","731704","0.0-351.0","rxmeuvtm","","","","","","","","","","","","","719","If efg press LEFT | If lff press RIGHT","Inducer instructions",""," ","","4","","","","","","","","","","","","","","",""
"","html-keyboard-response","222","732456","0.0-352.0","rxmeuvtm","2560","1440","","","","","","","","","","","null","+","Fixation - short","","null","","","","","","","","","","","","","","","","",""
"","html-keyboard-response","223","733544","0.0-353.0","rxmeuvtm","","","","","","","","","","","","","1088","efg","Diagnostic trial","","f","","4","0","7","false","false","true","both pre & post","LEFT","LEFT","f","1","true","","","",""
"","html-keyboard-response","224","734300","0.0-356.0","rxmeuvtm","2560","1440","","","","","","","","","","","null","+","Fixation - short","","null","","","","","","","","","","","","","","","","",""
"","html-keyboard-response","225","734696","0.0-357.0","rxmeuvtm","","","","","","","","","","","","","396","lff","Diagnostic trial","","f","","4","1","7","false","false","true","both pre & post","RIGHT","LEFT","f","1","false","","","",""
"","html-keyboard-response","226","735448","0.0-360.0","rxmeuvtm","2560","1440","","","","","","","","","","","null","+","Fixation - short","","null","","","","","","","","","","","","","","","","",""
"","html-keyboard-response","227","735856","0.0-361.0","rxmeuvtm","","","","","","","","","","","","","408","lff","Diagnostic trial","","f","","4","2","7","false","false","true","both pre & post","RIGHT","LEFT","f","1","false","","","",""
"","html-keyboard-response","228","736608","0.0-364.0","rxmeuvtm","2560","1440","","","","","","","","","","","null","+","Fixation - short","","null","","","","","","","","","","","","","","","","",""
"","html-keyboard-response","229","736992","0.0-365.0","rxmeuvtm","","","","","","","","","","","","","384","lff","Diagnostic trial","","f","","4","3","7","false","false","false","both pre & post","RIGHT","RIGHT","j","0","true","","","",""
"","call-function","230","736992","0.0-367.0-0.0","rxmeuvtm","","","","","","","","","","","","","","","","","","","","","","","","","","","","","","","","","",""
"","html-keyboard-response","231","737293","0.0-367.0-1.0","rxmeuvtm","2560","1440","","","","","","","","","","","null","Wrong","Feedback","","null","","","","","","","","","","","","","","","","",""
"","call-function","232","737293","0.0-367.0-2.0","rxmeuvtm","","","","","","","","","","","","","","","","","","","","","","","","","","","","","","","","","",""
"","html-keyboard-response","233","738044","0.0-368.0","rxmeuvtm","2560","1440","","","","","","","","","","","null","+","Fixation - short","","null","","","","","","","","","","","","","","","","",""
"","html-keyboard-response","234","738752","0.0-369.0","rxmeuvtm","","","","","","","","","","","","","708","lff","Diagnostic trial","","j","","4","4","7","false","false","false","both pre & post","RIGHT","RIGHT","j","1","true","","","",""
"","html-keyboard-response","235","739503","0.0-372.0","rxmeuvtm","2560","1440","","","","","","","","","","","null","+","Fixation - short","","null","","","","","","","","","","","","","","","","",""
"","html-keyboard-response","236","740112","0.0-373.0","rxmeuvtm","","","","","","","","","","","","","610","lff","Diagnostic trial","","j","","4","5","7","false","false","false","both pre & post","RIGHT","RIGHT","j","1","true","","","",""
"","html-keyboard-response","237","740863","0.0-376.0","rxmeuvtm","2560","1440","","","","","","","","","","","null","+","Fixation - short","","null","","","","","","","","","","","","","","","","",""
"","html-keyboard-response","238","741472","0.0-377.0","rxmeuvtm","","","","","","","","","","","","","609","efg","Diagnostic trial","","j","","4","6","7","false","false","false","both pre & post","LEFT","RIGHT","j","1","false","","","",""
"","html-keyboard-response","239","742223","0.0-380.0","rxmeuvtm","2560","1440","","","","","","","","","","","null","+","Fixation - short","","null","","","","","","","","","","","","","","","","",""
"","canvas-keyboard-response","240","743474","0.0-381.0","rxmeuvtm","","","","","","","","","","","","","null","Cue","Cue","","null","","4","6","","","false","","","","","","","","","","",""
"","html-keyboard-response","241","744225","0.0-382.0","rxmeuvtm","2560","1440","","","","","","","","","","","null","+","Fixation - short","","null","","","","","","","","","","","","","","","","",""
"","html-keyboard-response","242","745280","0.0-383.0","rxmeuvtm","","","","","","","","","","","","","1055","lff","Diagnostic trial","","j","","4","7","7","true","false","false","both pre & post","RIGHT","RIGHT","j","1","true","","","",""
"","html-keyboard-response","243","746031","0.0-386.0","rxmeuvtm","2560","1440","","","","","","","","","","","null","+","Fixation - short","","null","","","","","","","","","","","","","","","","",""
"","html-keyboard-response","244","746769","0.0-387.0","rxmeuvtm","","","","","","","","","","","","","738","efg","Diagnostic trial","","j","","4","8","7","true","false","false","both pre & post","LEFT","RIGHT","j","1","false","","","",""
"","html-keyboard-response","245","747520","0.0-390.0","rxmeuvtm","2560","1440","","","","","","","","","","","null","+","Fixation - short","","null","","","","","","","","","","","","","","","","",""
"","html-keyboard-response","246","748216","0.0-391.0","rxmeuvtm","","","","","","","","","","","","","696","lff","Diagnostic trial","","f","","4","9","7","true","false","true","both pre & post","RIGHT","LEFT","f","1","false","","","",""
"","html-keyboard-response","247","748967","0.0-394.0","rxmeuvtm","2560","1440","","","","","","","","","","","null","+","Fixation - short","","null","","","","","","","","","","","","","","","","",""
"","html-keyboard-response","248","749928","0.0-395.0","rxmeuvtm","","","","","","","","","","","","","961","lff","Diagnostic trial","","j","","4","10","7","true","false","false","both pre & post","RIGHT","RIGHT","j","1","true","","","",""
"","html-keyboard-response","249","750679","0.0-398.0","rxmeuvtm","2560","1440","","","","","","","","","","","null","+","Fixation - short","","null","","","","","","","","","","","","","","","","",""
"","html-keyboard-response","250","751712","0.0-399.0","rxmeuvtm","","","","","","","","","","","","","1033","efg","Inducer trial","","j","","4","","","","true","","","","","f","0","","false","LEFT","",""
"","call-function","251","751712","0.0-401.0-0.0","rxmeuvtm","","","","","","","","","","","","","","","","","","","","","","","","","","","","","","","","","",""
"","html-keyboard-response","252","752014","0.0-401.0-1.0","rxmeuvtm","2560","1440","","","","","","","","","","","null","Wrong","Feedback","","null","","","","","","","","","","","","","","","","",""
"","call-function","253","752014","0.0-401.0-2.0","rxmeuvtm","","","","","","","","","","","","","","","","","","","","","","","","","","","","","","","","","",""
"","html-keyboard-response","254","752767","0.0-402.0","rxmeuvtm","2560","1440","","","","","","","","","","","null","+","Fixation - short","","null","","","","","","","","","","","","","","","","",""
"","html-keyboard-response","255","753552","0.0-403.0","rxmeuvtm","","","","","","","","","","","","","786","If otr press LEFT | If rrd press RIGHT","Inducer instructions",""," ","","5","","","","","","","","","","","","","","",""
"","html-keyboard-response","256","754303","0.0-404.0","rxmeuvtm","2560","1440","","","","","","","","","","","null","+","Fixation - short","","null","","","","","","","","","","","","","","","","",""
"","html-keyboard-response","257","755200","0.0-405.0","rxmeuvtm","","","","","","","","","","","","","897","otr","Diagnostic trial","","j","","5","0","10","false","false","false","both pre & post","LEFT","RIGHT","j","1","false","","","",""
"","html-keyboard-response","258","755951","0.0-408.0","rxmeuvtm","2560","1440","","","","","","","","","","","null","+","Fixation - short","","null","","","","","","","","","","","","","","","","",""
"","html-keyboard-response","259","756680","0.0-409.0","rxmeuvtm","","","","","","","","","","","","","730","otr","Diagnostic trial","","j","","5","1","10","false","false","false","both pre & post","LEFT","RIGHT","j","1","false","","","",""
"","html-keyboard-response","260","757431","0.0-412.0","rxmeuvtm","2560","1440","","","","","","","","","","","null","+","Fixation - short","","null","","","","","","","","","","","","","","","","",""
"","html-keyboard-response","261","758432","0.0-413.0","rxmeuvtm","","","","","","","","","","","","","1001","rrd","Diagnostic trial","","f","","5","2","10","false","false","true","both pre & post","RIGHT","LEFT","f","1","false","","","",""
"","html-keyboard-response","262","759183","0.0-416.0","rxmeuvtm","2560","1440","","","","","","","","","","","null","+","Fixation - short","","null","","","","","","","","","","","","","","","","",""
"","html-keyboard-response","263","759680","0.0-417.0","rxmeuvtm","","","","","","","","","","","","","497","otr","Diagnostic trial","","j","","5","3","10","false","false","false","both pre & post","LEFT","RIGHT","j","1","false","","","",""
"","html-keyboard-response","264","760432","0.0-420.0","rxmeuvtm","2560","1440","","","","","","","","","","","null","+","Fixation - short","","null","","","","","","","","","","","","","","","","",""
"","html-keyboard-response","265","761640","0.0-421.0","rxmeuvtm","","","","","","","","","","","","","1208","rrd","Diagnostic trial","","f","","5","4","10","false","false","true","both pre & post","RIGHT","LEFT","f","1","false","","","",""
"","html-keyboard-response","266","762391","0.0-424.0","rxmeuvtm","2560","1440","","","","","","","","","","","null","+","Fixation - short","","null","","","","","","","","","","","","","","","","",""
"","html-keyboard-response","267","762872","0.0-425.0","rxmeuvtm","","","","","","","","","","","","","481","rrd","Diagnostic trial","","f","","5","5","10","false","false","true","both pre & post","RIGHT","LEFT","f","1","false","","","",""
"","html-keyboard-response","268","763624","0.0-428.0","rxmeuvtm","2560","1440","","","","","","","","","","","null","+","Fixation - short","","null","","","","","","","","","","","","","","","","",""
"","html-keyboard-response","269","764224","0.0-429.0","rxmeuvtm","","","","","","","","","","","","","601","otr","Diagnostic trial","","j","","5","6","10","false","false","false","both pre & post","LEFT","RIGHT","j","1","false","","","",""
"","html-keyboard-response","270","764976","0.0-432.0","rxmeuvtm","2560","1440","","","","","","","","","","","null","+","Fixation - short","","null","","","","","","","","","","","","","","","","",""
"","html-keyboard-response","271","765505","0.0-433.0","rxmeuvtm","","","","","","","","","","","","","529","otr","Diagnostic trial","","f","","5","7","10","false","false","true","both pre & post","LEFT","LEFT","f","1","true","","","",""
"","html-keyboard-response","272","766257","0.0-436.0","rxmeuvtm","2560","1440","","","","","","","","","","","null","+","Fixation - short","","null","","","","","","","","","","","","","","","","",""
"","html-keyboard-response","273","767024","0.0-437.0","rxmeuvtm","","","","","","","","","","","","","767","rrd","Diagnostic trial","","j","","5","8","10","false","false","false","both pre & post","RIGHT","RIGHT","j","1","true","","","",""
"","html-keyboard-response","274","767776","0.0-440.0","rxmeuvtm","2560","1440","","","","","","","","","","","null","+","Fixation - short","","null","","","","","","","","","","","","","","","","",""
"","html-keyboard-response","275","768584","0.0-441.0","rxmeuvtm","","","","","","","","","","","","","809","otr","Diagnostic trial","","f","","5","9","10","false","false","true","both pre & post","LEFT","LEFT","f","1","true","","","",""
"","html-keyboard-response","276","769336","0.0-444.0","rxmeuvtm","2560","1440","","","","","","","","","","","null","+","Fixation - short","","null","","","","","","","","","","","","","","","","",""
"","canvas-keyboard-response","277","770587","0.0-445.0","rxmeuvtm","","","","","","","","","","","","","null","Cue","Cue","","null","","5","9","","","false","","","","","","","","","","",""
"","html-keyboard-response","278","771338","0.0-446.0","rxmeuvtm","2560","1440","","","","","","","","","","","null","+","Fixation - short","","null","","","","","","","","","","","","","","","","",""
"","html-keyboard-response","279","772009","0.0-447.0","rxmeuvtm","","","","","","","","","","","","","671","rrd","Diagnostic trial","","j","","5","10","10","true","false","false","both pre & post","RIGHT","RIGHT","j","1","true","","","",""
"","html-keyboard-response","280","772760","0.0-450.0","rxmeuvtm","2560","1440","","","","","","","","","","","null","+","Fixation - short","","null","","","","","","","","","","","","","","","","",""
"","html-keyboard-response","281","773425","0.0-451.0","rxmeuvtm","","","","","","","","","","","","","665","otr","Diagnostic trial","","f","","5","11","10","true","false","true","both pre & post","LEFT","LEFT","f","1","true","","","",""
"","html-keyboard-response","282","774176","0.0-454.0","rxmeuvtm","2560","1440","","","","","","","","","","","null","+","Fixation - short","","null","","","","","","","","","","","","","","","","",""
"","html-keyboard-response","283","774849","0.0-455.0","rxmeuvtm","","","","","","","","","","","","","673","otr","Diagnostic trial","","j","","5","12","10","true","false","false","both pre & post","LEFT","RIGHT","j","1","false","","","",""
"","html-keyboard-response","284","775600","0.0-458.0","rxmeuvtm","2560","1440","","","","","","","","","","","null","+","Fixation - short","","null","","","","","","","","","","","","","","","","",""
"","html-keyboard-response","285","776249","0.0-459.0","rxmeuvtm","","","","","","","","","","","","","648","rrd","Diagnostic trial","","f","","5","13","10","true","false","true","both pre & post","RIGHT","LEFT","f","1","false","","","",""
"","html-keyboard-response","286","777000","0.0-462.0","rxmeuvtm","2560","1440","","","","","","","","","","","null","+","Fixation - short","","null","","","","","","","","","","","","","","","","",""
"","html-keyboard-response","287","778017","0.0-463.0","rxmeuvtm","","","","","","","","","","","","","1016","otr","Inducer trial","","j","","5","","","","true","","","","","f","0","","false","LEFT","",""
"","call-function","288","778017","0.0-465.0-0.0","rxmeuvtm","","","","","","","","","","","","","","","","","","","","","","","","","","","","","","","","","",""
"","html-keyboard-response","289","778319","0.0-465.0-1.0","rxmeuvtm","2560","1440","","","","","","","","","","","null","Wrong","Feedback","","null","","","","","","","","","","","","","","","","",""
"","call-function","290","778319","0.0-465.0-2.0","rxmeuvtm","","","","","","","","","","","","","","","","","","","","","","","","","","","","","","","","","",""
"","html-keyboard-response","291","779069","0.0-466.0","rxmeuvtm","2560","1440","","","","","","","","","","","null","+","Fixation - short","","null","","","","","","","","","","","","","","","","",""
"","html-keyboard-response","292","781809","0.0-467.0","rxmeuvtm","","","","","","","","","","","","","2739","If ecl press LEFT | If snx press RIGHT","Inducer instructions",""," ","","6","","","","","","","","","","","","","","",""
"","html-keyboard-response","293","782559","0.0-468.0","rxmeuvtm","2560","1440","","","","","","","","","","","null","+","Fixation - short","","null","","","","","","","","","","","","","","","","",""
"","html-keyboard-response","294","783345","0.0-469.0","rxmeuvtm","","","","","","","","","","","","","785","snx","Diagnostic trial","","j","","6","0","8","false","false","false","both pre & post","RIGHT","RIGHT","j","1","true","","","",""
"","html-keyboard-response","295","784096","0.0-472.0","rxmeuvtm","2560","1440","","","","","","","","","","","null","+","Fixation - short","","null","","","","","","","","","","","","","","","","",""
"","html-keyboard-response","296","784793","0.0-473.0","rxmeuvtm","","","","","","","","","","","","","697","snx","Diagnostic trial","","j","","6","1","8","false","false","false","both pre & post","RIGHT","RIGHT","j","1","true","","","",""
"","html-keyboard-response","297","785543","0.0-476.0","rxmeuvtm","2560","1440","","","","","","","","","","","null","+","Fixation - short","","null","","","","","","","","","","","","","","","","",""
"","html-keyboard-response","298","786065","0.0-477.0","rxmeuvtm","","","","","","","","","","","","","522","snx","Diagnostic trial","","j","","6","2","8","false","false","false","both pre & post","RIGHT","RIGHT","j","1","true","","","",""
"","html-keyboard-response","299","786817","0.0-480.0","rxmeuvtm","2560","1440","","","","","","","","","","","null","+","Fixation - short","","null","","","","","","","","","","","","","","","","",""
"","html-keyboard-response","300","787257","0.0-481.0","rxmeuvtm","","","","","","","","","","","","","440","snx","Diagnostic trial","","j","","6","3","8","false","false","false","both pre & post","RIGHT","RIGHT","j","1","true","","","",""
"","html-keyboard-response","301","788007","0.0-484.0","rxmeuvtm","2560","1440","","","","","","","","","","","null","+","Fixation - short","","null","","","","","","","","","","","","","","","","",""
"","html-keyboard-response","302","788577","0.0-485.0","rxmeuvtm","","","","","","","","","","","","","569","snx","Diagnostic trial","","f","","6","4","8","false","false","true","both pre & post","RIGHT","LEFT","f","1","false","","","",""
"","html-keyboard-response","303","789328","0.0-488.0","rxmeuvtm","2560","1440","","","","","","","","","","","null","+","Fixation - short","","null","","","","","","","","","","","","","","","","",""
"","html-keyboard-response","304","789849","0.0-489.0","rxmeuvtm","","","","","","","","","","","","","521","snx","Diagnostic trial","","j","","6","5","8","false","false","false","both pre & post","RIGHT","RIGHT","j","1","true","","","",""
"","html-keyboard-response","305","790600","0.0-492.0","rxmeuvtm","2560","1440","","","","","","","","","","","null","+","Fixation - short","","null","","","","","","","","","","","","","","","","",""
"","html-keyboard-response","306","791185","0.0-493.0","rxmeuvtm","","","","","","","","","","","","","584","snx","Diagnostic trial","","f","","6","6","8","false","false","true","both pre & post","RIGHT","LEFT","f","1","false","","","",""
"","html-keyboard-response","307","791935","0.0-496.0","rxmeuvtm","2560","1440","","","","","","","","","","","null","+","Fixation - short","","null","","","","","","","","","","","","","","","","",""
"","html-keyboard-response","308","792585","0.0-497.0","rxmeuvtm","","","","","","","","","","","","","649","snx","Diagnostic trial","","j","","6","7","8","false","false","false","both pre & post","RIGHT","RIGHT","j","1","true","","","",""
"","html-keyboard-response","309","793336","0.0-500.0","rxmeuvtm","2560","1440","","","","","","","","","","","null","+","Fixation - short","","null","","","","","","","","","","","","","","","","",""
"","canvas-keyboard-response","310","794587","0.0-501.0","rxmeuvtm","","","","","","","","","","","","","null","Cue","Cue","","null","","6","7","","","false","","","","","","","","","","",""
"","html-keyboard-response","311","795338","0.0-502.0","rxmeuvtm","2560","1440","","","","","","","","","","","null","+","Fixation - short","","null","","","","","","","","","","","","","","","","",""
"","html-keyboard-response","312","796337","0.0-503.0","rxmeuvtm","","","","","","","","","","","","","999","snx","Diagnostic trial","","f","","6","8","8","true","false","true","both pre & post","RIGHT","LEFT","f","1","false","","","",""
"","html-keyboard-response","313","797089","0.0-506.0","rxmeuvtm","2560","1440","","","","","","","","","","","null","+","Fixation - short","","null","","","","","","","","","","","","","","","","",""
"","html-keyboard-response","314","798201","0.0-507.0","rxmeuvtm","","","","","","","","","","","","","1112","ecl","Diagnostic trial","","f","","6","9","8","true","false","true","both pre & post","LEFT","LEFT","f","1","true","","","",""
"","html-keyboard-response","315","798957","0.0-510.0","rxmeuvtm","2560","1440","","","","","","","","","","","null","+","Fixation - short","","null","","","","","","","","","","","","","","","","",""
"","html-keyboard-response","316","799537","0.0-511.0","rxmeuvtm","","","","","","","","","","","","","580","ecl","Diagnostic trial","","f","","6","10","8","true","false","true","both pre & post","LEFT","LEFT","f","1","true","","","",""
"","html-keyboard-response","317","800288","0.0-514.0","rxmeuvtm","2560","1440","","","","","","","","","","","null","+","Fixation - short","","null","","","","","","","","","","","","","","","","",""
"","html-keyboard-response","318","801609","0.0-515.0","rxmeuvtm","","","","","","","","","","","","","1321","snx","Inducer trial","","f","","6","","","","true","","","","","j","0","","false","RIGHT","",""
"","call-function","319","801609","0.0-517.0-0.0","rxmeuvtm","","","","","","","","","","","","","","","","","","","","","","","","","","","","","","","","","",""
"","html-keyboard-response","320","801910","0.0-517.0-1.0","rxmeuvtm","2560","1440","","","","","","","","","","","null","Wrong","Feedback","","null","","","","","","","","","","","","","","","","",""
"","call-function","321","801910","0.0-517.0-2.0","rxmeuvtm","","","","","","","","","","","","","","","","","","","","","","","","","","","","","","","","","",""
"","html-keyboard-response","322","802661","0.0-518.0","rxmeuvtm","2560","1440","","","","","","","","","","","null","+","Fixation - short","","null","","","","","","","","","","","","","","","","",""
"","html-keyboard-response","323","804681","0.0-519.0","rxmeuvtm","","","","","","","","","","","","","2019","If mik press LEFT | If vnn press RIGHT","Inducer instructions",""," ","","7","","","","","","","","","","","","","","",""
"","html-keyboard-response","324","805431","0.0-520.0","rxmeuvtm","2560","1440","","","","","","","","","","","null","+","Fixation - short","","null","","","","","","","","","","","","","","","","",""
"","html-keyboard-response","325","806481","0.0-521.0","rxmeuvtm","","","","","","","","","","","","","1049","vnn","Diagnostic trial","","f","","7","0","8","false","false","true","both pre & post","RIGHT","LEFT","f","1","false","","","",""
"","html-keyboard-response","326","807232","0.0-524.0","rxmeuvtm","2560","1440","","","","","","","","","","","null","+","Fixation - short","","null","","","","","","","","","","","","","","","","",""
"","html-keyboard-response","327","807753","0.0-525.0","rxmeuvtm","","","","","","","","","","","","","521","vnn","Diagnostic trial","","f","","7","1","8","false","false","true","both pre & post","RIGHT","LEFT","f","1","false","","","",""
"","html-keyboard-response","328","808504","0.0-528.0","rxmeuvtm","2560","1440","","","","","","","","","","","null","+","Fixation - short","","null","","","","","","","","","","","","","","","","",""
"","html-keyboard-response","329","809697","0.0-529.0","rxmeuvtm","","","","","","","","","","","","","1192","vnn","Diagnostic trial","","j","","7","2","8","false","false","false","both pre & post","RIGHT","RIGHT","j","1","true","","","",""
"","html-keyboard-response","330","810449","0.0-532.0","rxmeuvtm","2560","1440","","","","","","","","","","","null","+","Fixation - short","","null","","","","","","","","","","","","","","","","",""
"","html-keyboard-response","331","810873","0.0-533.0","rxmeuvtm","","","","","","","","","","","","","424","vnn","Diagnostic trial","","j","","7","3","8","false","false","false","both pre & post","RIGHT","RIGHT","j","1","true","","","",""
"","html-keyboard-response","332","811624","0.0-536.0","rxmeuvtm","2560","1440","","","","","","","","","","","null","+","Fixation - short","","null","","","","","","","","","","","","","","","","",""
"","html-keyboard-response","333","812545","0.0-537.0","rxmeuvtm","","","","","","","","","","","","","921","mik","Diagnostic trial","","f","","7","4","8","false","false","true","both pre & post","LEFT","LEFT","f","1","true","","","",""
"","html-keyboard-response","334","813296","0.0-540.0","rxmeuvtm","2560","1440","","","","","","","","","","","null","+","Fixation - short","","null","","","","","","","","","","","","","","","","",""
"","html-keyboard-response","335","813881","0.0-541.0","rxmeuvtm","","","","","","","","","","","","","585","mik","Diagnostic trial","","j","","7","5","8","false","false","false","both pre & post","LEFT","RIGHT","j","1","false","","","",""
"","html-keyboard-response","336","814631","0.0-544.0","rxmeuvtm","2560","1440","","","","","","","","","","","null","+","Fixation - short","","null","","","","","","","","","","","","","","","","",""
"","html-keyboard-response","337","815137","0.0-545.0","rxmeuvtm","","","","","","","","","","","","","505","mik","Diagnostic trial","","j","","7","6","8","false","false","false","both pre & post","LEFT","RIGHT","j","1","false","","","",""
"","html-keyboard-response","338","815887","0.0-548.0","rxmeuvtm","2560","1440","","","","","","","","","","","null","+","Fixation - short","","null","","","","","","","","","","","","","","","","",""
"","html-keyboard-response","339","816281","0.0-549.0","rxmeuvtm","","","","","","","","","","","","","393","mik","Diagnostic trial","","f","","7","7","8","false","false","true","both pre & post","LEFT","LEFT","f","1","true","","","",""
"","html-keyboard-response","340","817033","0.0-552.0","rxmeuvtm","2560","1440","","","","","","","","","","","null","+","Fixation - short","","null","","","","","","","","","","","","","","","","",""
"","canvas-keyboard-response","341","818285","0.0-553.0","rxmeuvtm","","","","","","","","","","","","","null","Cue","Cue","","null","","7","7","","","false","","","","","","","","","","",""
"","html-keyboard-response","342","819036","0.0-554.0","rxmeuvtm","2560","1440","","","","","","","","","","","null","+","Fixation - short","","null","","","","","","","","","","","","","","","","",""
"","html-keyboard-response","343","819697","0.0-555.0","rxmeuvtm","","","","","","","","","","","","","661","mik","Diagnostic trial","","f","","7","8","8","true","false","true","both pre & post","LEFT","LEFT","f","1","true","","","",""
"","html-keyboard-response","344","820448","0.0-558.0","rxmeuvtm","2560","1440","","","","","","","","","","","null","+","Fixation - short","","null","","","","","","","","","","","","","","","","",""
"","html-keyboard-response","345","821137","0.0-559.0","rxmeuvtm","","","","","","","","","","","","","689","mik","Diagnostic trial","","j","","7","9","8","true","false","false","both pre & post","LEFT","RIGHT","j","1","false","","","",""
"","html-keyboard-response","346","821887","0.0-562.0","rxmeuvtm","2560","1440","","","","","","","","","","","null","+","Fixation - short","","null","","","","","","","","","","","","","","","","",""
"","html-keyboard-response","347","822393","0.0-563.0","rxmeuvtm","","","","","","","","","","","","","505","mik","Diagnostic trial","","j","","7","10","8","true","false","false","both pre & post","LEFT","RIGHT","j","1","false","","","",""
"","html-keyboard-response","348","823143","0.0-566.0","rxmeuvtm","2560","1440","","","","","","","","","","","null","+","Fixation - short","","null","","","","","","","","","","","","","","","","",""
"","html-keyboard-response","349","823697","0.0-567.0","rxmeuvtm","","","","","","","","","","","","","554","mik","Diagnostic trial","","j","","7","11","8","true","false","false","both pre & post","LEFT","RIGHT","j","1","false","","","",""
"","html-keyboard-response","350","824448","0.0-570.0","rxmeuvtm","2560","1440","","","","","","","","","","","null","+","Fixation - short","","null","","","","","","","","","","","","","","","","",""
"","html-keyboard-response","351","825337","0.0-571.0","rxmeuvtm","","","","","","","","","","","","","889","mik","Inducer trial","","j","","7","","","","true","","","","","f","0","","false","LEFT","",""
"","call-function","352","825337","0.0-573.0-0.0","rxmeuvtm","","","","","","","","","","","","","","","","","","","","","","","","","","","","","","","","","",""
"","html-keyboard-response","353","825638","0.0-573.0-1.0","rxmeuvtm","2560","1440","","","","","","","","","","","null","Wrong","Feedback","","null","","","","","","","","","","","","","","","","",""
"","call-function","354","825638","0.0-573.0-2.0","rxmeuvtm","","","","","","","","","","","","","","","","","","","","","","","","","","","","","","","","","",""
"","html-keyboard-response","355","826389","0.0-574.0","rxmeuvtm","2560","1440","","","","","","","","","","","null","+","Fixation - short","","null","","","","","","","","","","","","","","","","",""
"","html-keyboard-response","356","827057","0.0-575.0","rxmeuvtm","","","","","","","","","","","","","667","If dul press LEFT | If jup press RIGHT","Inducer instructions",""," ","","8","","","","","","","","","","","","","","",""
"","html-keyboard-response","357","827808","0.0-576.0","rxmeuvtm","2560","1440","","","","","","","","","","","null","+","Fixation - short","","null","","","","","","","","","","","","","","","","",""
"","html-keyboard-response","358","828505","0.0-577.0","rxmeuvtm","","","","","","","","","","","","","697","jup","Diagnostic trial","","f","","8","0","8","false","false","true","both pre & post","RIGHT","LEFT","f","1","false","","","",""
"","html-keyboard-response","359","829259","0.0-580.0","rxmeuvtm","2560","1440","","","","","","","","","","","null","+","Fixation - short","","null","","","","","","","","","","","","","","","","",""
"","html-keyboard-response","360","829625","0.0-581.0","rxmeuvtm","","","","","","","","","","","","","365","dul","Diagnostic trial","","f","","8","1","8","false","false","true","both pre & post","LEFT","LEFT","f","1","true","","","",""
"","html-keyboard-response","361","830376","0.0-584.0","rxmeuvtm","2560","1440","","","","","","","","","","","null","+","Fixation - short","","null","","","","","","","","","","","","","","","","",""
"","html-keyboard-response","362","830761","0.0-585.0","rxmeuvtm","","","","","","","","","","","","","385","jup","Diagnostic trial","","f","","8","2","8","false","false","true","both pre & post","RIGHT","LEFT","f","1","false","","","",""
"","html-keyboard-response","363","831517","0.0-588.0","rxmeuvtm","2560","1440","","","","","","","","","","","null","+","Fixation - short","","null","","","","","","","","","","","","","","","","",""
"","html-keyboard-response","364","832129","0.0-589.0","rxmeuvtm","","","","","","","","","","","","","612","jup","Diagnostic trial","","j","","8","3","8","false","false","false","both pre & post","RIGHT","RIGHT","j","1","true","","","",""
"","html-keyboard-response","365","832879","0.0-592.0","rxmeuvtm","2560","1440","","","","","","","","","","","null","+","Fixation - short","","null","","","","","","","","","","","","","","","","",""
"","html-keyboard-response","366","833401","0.0-593.0","rxmeuvtm","","","","","","","","","","","","","521","jup","Diagnostic trial","","j","","8","4","8","false","false","false","both pre & post","RIGHT","RIGHT","j","1","true","","","",""
"","html-keyboard-response","367","834166","0.0-596.0","rxmeuvtm","2560","1440","","","","","","","","","","","null","+","Fixation - short","","null","","","","","","","","","","","","","","","","",""
"","html-keyboard-response","368","834673","0.0-597.0","rxmeuvtm","","","","","","","","","","","","","507","jup","Diagnostic trial","","j","","8","5","8","false","false","false","both pre & post","RIGHT","RIGHT","j","1","true","","","",""
"","html-keyboard-response","369","835424","0.0-600.0","rxmeuvtm","2560","1440","","","","","","","","","","","null","+","Fixation - short","","null","","","","","","","","","","","","","","","","",""
"","html-keyboard-response","370","835833","0.0-601.0","rxmeuvtm","","","","","","","","","","","","","408","jup","Diagnostic trial","","j","","8","6","8","false","false","false","both pre & post","RIGHT","RIGHT","j","1","true","","","",""
"","html-keyboard-response","371","836584","0.0-604.0","rxmeuvtm","2560","1440","","","","","","","","","","","null","+","Fixation - short","","null","","","","","","","","","","","","","","","","",""
"","html-keyboard-response","372","837161","0.0-605.0","rxmeuvtm","","","","","","","","","","","","","577","dul","Diagnostic trial","","f","","8","7","8","false","false","true","both pre & post","LEFT","LEFT","f","1","true","","","",""
"","html-keyboard-response","373","837912","0.0-608.0","rxmeuvtm","2560","1440","","","","","","","","","","","null","+","Fixation - short","","null","","","","","","","","","","","","","","","","",""
"","canvas-keyboard-response","374","839163","0.0-609.0","rxmeuvtm","","","","","","","","","","","","","null","Cue","Cue","","null","","8","7","","","false","","","","","","","","","","",""
"","html-keyboard-response","375","839914","0.0-610.0","rxmeuvtm","2560","1440","","","","","","","","","","","null","+","Fixation - short","","null","","","","","","","","","","","","","","","","",""
"","html-keyboard-response","376","840657","0.0-611.0","rxmeuvtm","","","","","","","","","","","","","742","dul","Diagnostic trial","","f","","8","8","8","true","false","true","both pre & post","LEFT","LEFT","f","1","true","","","",""
"","html-keyboard-response","377","841408","0.0-614.0","rxmeuvtm","2560","1440","","","","","","","","","","","null","+","Fixation - short","","null","","","","","","","","","","","","","","","","",""
"","html-keyboard-response","378","842105","0.0-615.0","rxmeuvtm","","","","","","","","","","","","","696","dul","Diagnostic trial","","j","","8","9","8","true","false","false","both pre & post","LEFT","RIGHT","j","1","false","","","",""
"","html-keyboard-response","379","842856","0.0-618.0","rxmeuvtm","2560","1440","","","","","","","","","","","null","+","Fixation - short","","null","","","","","","","","","","","","","","","","",""
"","html-keyboard-response","380","843433","0.0-619.0","rxmeuvtm","","","","","","","","","","","","","577","dul","Diagnostic trial","","j","","8","10","8","true","false","false","both pre & post","LEFT","RIGHT","j","1","false","","","",""
"","html-keyboard-response","381","844184","0.0-622.0","rxmeuvtm","2560","1440","","","","","","","","","","","null","+","Fixation - short","","null","","","","","","","","","","","","","","","","",""
"","html-keyboard-response","382","844833","0.0-623.0","rxmeuvtm","","","","","","","","","","","","","649","jup","Diagnostic trial","","f","","8","11","8","true","false","true","both pre & post","RIGHT","LEFT","f","1","false","","","",""
"","html-keyboard-response","383","845583","0.0-626.0","rxmeuvtm","2560","1440","","","","","","","","","","","null","+","Fixation - short","","null","","","","","","","","","","","","","","","","",""
"","html-keyboard-response","384","846545","0.0-627.0","rxmeuvtm","","","","","","","","","","","","","962","jup","Inducer trial","","j","","8","","","","true","","","","","j","1","","false","RIGHT","",""
"","html-keyboard-response","385","847300","0.0-630.0","rxmeuvtm","2560","1440","","","","","","","","","","","null","+","Fixation - short","","null","","","","","","","","","","","","","","","","",""
"","html-keyboard-response","386","848417","0.0-631.0","rxmeuvtm","","","","","","","","","","","","","1117","If zpl press LEFT | If ttm press RIGHT","Inducer instructions",""," ","","9","","","","","","","","","","","","","","",""
"","html-keyboard-response","387","849168","0.0-632.0","rxmeuvtm","2560","1440","","","","","","","","","","","null","+","Fixation - short","","null","","","","","","","","","","","","","","","","",""
"","html-keyboard-response","388","849945","0.0-633.0","rxmeuvtm","","","","","","","","","","","","","777","zpl","Diagnostic trial","","j","","9","0","8","false","false","true","both pre & post","LEFT","LEFT","f","0","true","","","",""
"","call-function","389","849945","0.0-635.0-0.0","rxmeuvtm","","","","","","","","","","","","","","","","","","","","","","","","","","","","","","","","","",""
"","html-keyboard-response","390","850246","0.0-635.0-1.0","rxmeuvtm","2560","1440","","","","","","","","","","","null","Wrong","Feedback","","null","","","","","","","","","","","","","","","","",""
"","call-function","391","850246","0.0-635.0-2.0","rxmeuvtm","","","","","","","","","","","","","","","","","","","","","","","","","","","","","","","","","",""
"","html-keyboard-response","392","850997","0.0-636.0","rxmeuvtm","2560","1440","","","","","","","","","","","null","+","Fixation - short","","null","","","","","","","","","","","","","","","","",""
"","html-keyboard-response","393","851353","0.0-637.0","rxmeuvtm","","","","","","","","","","","","","356","zpl","Diagnostic trial","","f","","9","1","8","false","false","true","both pre & post","LEFT","LEFT","f","1","true","","","",""
"","html-keyboard-response","394","852103","0.0-640.0","rxmeuvtm","2560","1440","","","","","","","","","","","null","+","Fixation - short","","null","","","","","","","","","","","","","","","","",""
"","html-keyboard-response","395","852497","0.0-641.0","rxmeuvtm","","","","","","","","","","","","","393","zpl","Diagnostic trial","","f","","9","2","8","false","false","true","both pre & post","LEFT","LEFT","f","1","true","","","",""
"","html-keyboard-response","396","853248","0.0-644.0","rxmeuvtm","2560","1440","","","","","","","","","","","null","+","Fixation - short","","null","","","","","","","","","","","","","","","","",""
"","html-keyboard-response","397","853793","0.0-645.0","rxmeuvtm","","","","","","","","","","","","","545","ttm","Diagnostic trial","","j","","9","3","8","false","false","false","both pre & post","RIGHT","RIGHT","j","1","true","","","",""
"","html-keyboard-response","398","854544","0.0-648.0","rxmeuvtm","2560","1440","","","","","","","","","","","null","+","Fixation - short","","null","","","","","","","","","","","","","","","","",""
"","html-keyboard-response","399","855033","0.0-649.0","rxmeuvtm","","","","","","","","","","","","","489","zpl","Diagnostic trial","","f","","9","4","8","false","false","true","both pre & post","LEFT","LEFT","f","1","true","","","",""
"","html-keyboard-response","400","855784","0.0-652.0","rxmeuvtm","2560","1440","","","","","","","","","","","null","+","Fixation - short","","null","","","","","","","","","","","","","","","","",""
"","html-keyboard-response","401","856177","0.0-653.0","rxmeuvtm","","","","","","","","","","","","","392","ttm","Diagnostic trial","","j","","9","5","8","false","false","true","both pre & post","RIGHT","LEFT","f","0","false","","","",""
"","call-function","402","856177","0.0-655.0-0.0","rxmeuvtm","","","","","","","","","","","","","","","","","","","","","","","","","","","","","","","","","",""
"","html-keyboard-response","403","856477","0.0-655.0-1.0","rxmeuvtm","2560","1440","","","","","","","","","","","null","Wrong","Feedback","","null","","","","","","","","","","","","","","","","",""
"","call-function","404","856477","0.0-655.0-2.0","rxmeuvtm","","","","","","","","","","","","","","","","","","","","","","","","","","","","","","","","","",""
"","html-keyboard-response","405","857229","0.0-656.0","rxmeuvtm","2560","1440","","","","","","","","","","","null","+","Fixation - short","","null","","","","","","","","","","","","","","","","",""
"","html-keyboard-response","406","857625","0.0-657.0","rxmeuvtm","","","","","","","","","","","","","396","ttm","Diagnostic trial","","f","","9","6","8","false","false","true","both pre & post","RIGHT","LEFT","f","1","false","","","",""
"","html-keyboard-response","407","858375","0.0-660.0","rxmeuvtm","2560","1440","","","","","","","","","","","null","+","Fixation - short","","null","","","","","","","","","","","","","","","","",""
"","html-keyboard-response","408","858769","0.0-661.0","rxmeuvtm","","","","","","","","","","","","","394","ttm","Diagnostic trial","","f","","9","7","8","false","false","false","both pre & post","RIGHT","RIGHT","j","0","true","","","",""
"","call-function","409","858770","0.0-663.0-0.0","rxmeuvtm","","","","","","","","","","","","","","","","","","","","","","","","","","","","","","","","","",""
"","html-keyboard-response","410","859070","0.0-663.0-1.0","rxmeuvtm","2560","1440","","","","","","","","","","","null","Wrong","Feedback","","null","","","","","","","","","","","","","","","","",""
"","call-function","411","859071","0.0-663.0-2.0","rxmeuvtm","","","","","","","","","","","","","","","","","","","","","","","","","","","","","","","","","",""
"","html-keyboard-response","412","859822","0.0-664.0","rxmeuvtm","2560","1440","","","","","","","","","","","null","+","Fixation - short","","null","","","","","","","","","","","","","","","","",""
"","canvas-keyboard-response","413","861073","0.0-665.0","rxmeuvtm","","","","","","","","","","","","","null","Cue","Cue","","null","","9","7","","","false","","","","","","","","","","",""
"","html-keyboard-response","414","861823","0.0-666.0","rxmeuvtm","2560","1440","","","","","","","","","","","null","+","Fixation - short","","null","","","","","","","","","","","","","","","","",""
"","html-keyboard-response","415","862721","0.0-667.0","rxmeuvtm","","","","","","","","","","","","","898","zpl","Diagnostic trial","","j","","9","8","8","true","false","false","both pre & post","LEFT","RIGHT","j","1","false","","","",""
"","html-keyboard-response","416","863473","0.0-670.0","rxmeuvtm","2560","1440","","","","","","","","","","","null","+","Fixation - short","","null","","","","","","","","","","","","","","","","",""
"","html-keyboard-response","417","864065","0.0-671.0","rxmeuvtm","","","","","","","","","","","","","592","ttm","Diagnostic trial","","j","","9","9","8","true","false","false","both pre & post","RIGHT","RIGHT","j","1","true","","","",""
"","html-keyboard-response","418","864816","0.0-674.0","rxmeuvtm","2560","1440","","","","","","","","","","","null","+","Fixation - short","","null","","","","","","","","","","","","","","","","",""
"","html-keyboard-response","419","865417","0.0-675.0","rxmeuvtm","","","","","","","","","","","","","601","ttm","Diagnostic trial","","f","","9","10","8","true","false","true","both pre & post","RIGHT","LEFT","f","1","false","","","",""
"","html-keyboard-response","420","866169","0.0-678.0","rxmeuvtm","2560","1440","","","","","","","","","","","null","+","Fixation - short","","null","","","","","","","","","","","","","","","","",""
"","html-keyboard-response","421","866689","0.0-679.0","rxmeuvtm","","","","","","","","","","","","","520","ttm","Diagnostic trial","","f","","9","11","8","true","false","true","both pre & post","RIGHT","LEFT","f","1","false","","","",""
"","html-keyboard-response","422","867443","0.0-682.0","rxmeuvtm","2560","1440","","","","","","","","","","","null","+","Fixation - short","","null","","","","","","","","","","","","","","","","",""
"","html-keyboard-response","423","868537","0.0-683.0","rxmeuvtm","","","","","","","","","","","","","1094","zpl","Inducer trial","","j","","9","","","","true","","","","","f","0","","false","LEFT","",""
"","call-function","424","868537","0.0-685.0-0.0","rxmeuvtm","","","","","","","","","","","","","","","","","","","","","","","","","","","","","","","","","",""
"","html-keyboard-response","425","868838","0.0-685.0-1.0","rxmeuvtm","2560","1440","","","","","","","","","","","null","Wrong","Feedback","","null","","","","","","","","","","","","","","","","",""
"","call-function","426","868838","0.0-685.0-2.0","rxmeuvtm","","","","","","","","","","","","","","","","","","","","","","","","","","","","","","","","","",""
"","html-keyboard-response","427","869589","0.0-686.0","rxmeuvtm","2560","1440","","","","","","","","","","","null","+","Fixation - short","","null","","","","","","","","","","","","","","","","",""
"","html-keyboard-response","428","870321","0.0-687.0","rxmeuvtm","","","","","","","","","","","","","732","If sdw press LEFT | If swr press RIGHT","Inducer instructions",""," ","","10","","","","","","","","","","","","","","",""
"","html-keyboard-response","429","871073","0.0-688.0","rxmeuvtm","2560","1440","","","","","","","","","","","null","+","Fixation - short","","null","","","","","","","","","","","","","","","","",""
"","html-keyboard-response","430","872273","0.0-689.0","rxmeuvtm","","","","","","","","","","","","","1200","sdw","Diagnostic trial","","j","","10","0","9","false","false","false","both pre & post","LEFT","RIGHT","j","1","false","","","",""
"","html-keyboard-response","431","873025","0.0-692.0","rxmeuvtm","2560","1440","","","","","","","","","","","null","+","Fixation - short","","null","","","","","","","","","","","","","","","","",""
"","html-keyboard-response","432","873529","0.0-693.0","rxmeuvtm","","","","","","","","","","","","","504","swr","Diagnostic trial","","j","","10","1","9","false","false","false","both pre & post","RIGHT","RIGHT","j","1","true","","","",""
"","html-keyboard-response","433","874281","0.0-696.0","rxmeuvtm","2560","1440","","","","","","","","","","","null","+","Fixation - short","","null","","","","","","","","","","","","","","","","",""
"","html-keyboard-response","434","875313","0.0-697.0","rxmeuvtm","","","","","","","","","","","","","1032","sdw","Diagnostic trial","","j","","10","2","9","false","false","false","both pre & post","LEFT","RIGHT","j","1","false","","","",""
"","html-keyboard-response","435","876064","0.0-700.0","rxmeuvtm","2560","1440","","","","","","","","","","","null","+","Fixation - short","","null","","","","","","","","","","","","","","","","",""
"","html-keyboard-response","436","876873","0.0-701.0","rxmeuvtm","","","","","","","","","","","","","809","sdw","Diagnostic trial","","f","","10","3","9","false","false","true","both pre & post","LEFT","LEFT","f","1","true","","","",""
"","html-keyboard-response","437","877624","0.0-704.0","rxmeuvtm","2560","1440","","","","","","","","","","","null","+","Fixation - short","","null","","","","","","","","","","","","","","","","",""
"","html-keyboard-response","438","878009","0.0-705.0","rxmeuvtm","","","","","","","","","","","","","385","sdw","Diagnostic trial","","f","","10","4","9","false","false","false","both pre & post","LEFT","RIGHT","j","0","false","","","",""
"","call-function","439","878009","0.0-707.0-0.0","rxmeuvtm","","","","","","","","","","","","","","","","","","","","","","","","","","","","","","","","","",""
"","html-keyboard-response","440","878310","0.0-707.0-1.0","rxmeuvtm","2560","1440","","","","","","","","","","","null","Wrong","Feedback","","null","","","","","","","","","","","","","","","","",""
"","call-function","441","878310","0.0-707.0-2.0","rxmeuvtm","","","","","","","","","","","","","","","","","","","","","","","","","","","","","","","","","",""
"","html-keyboard-response","442","879060","0.0-708.0","rxmeuvtm","2560","1440","","","","","","","","","","","null","+","Fixation - short","","null","","","","","","","","","","","","","","","","",""
"","html-keyboard-response","443","879721","0.0-709.0","rxmeuvtm","","","","","","","","","","","","","660","swr","Diagnostic trial","","j","","10","5","9","false","false","false","both pre & post","RIGHT","RIGHT","j","1","true","","","",""
"","html-keyboard-response","444","880472","0.0-712.0","rxmeuvtm","2560","1440","","","","","","","","","","","null","+","Fixation - short","","null","","","","","","","","","","","","","","","","",""
"","html-keyboard-response","445","880913","0.0-713.0","rxmeuvtm","","","","","","","","","","","","","441","sdw","Diagnostic trial","","f","","10","6","9","false","false","true","both pre & post","LEFT","LEFT","f","1","true","","","",""
"","html-keyboard-response","446","881666","0.0-716.0","rxmeuvtm","2560","1440","","","","","","","","","","","null","+","Fixation - short","","null","","","","","","","","","","","","","","","","",""
"","html-keyboard-response","447","882273","0.0-717.0","rxmeuvtm","","","","","","","","","","","","","607","sdw","Diagnostic trial","","f","","10","7","9","false","false","true","both pre & post","LEFT","LEFT","f","1","true","","","",""
"","html-keyboard-response","448","883023","0.0-720.0","rxmeuvtm","2560","1440","","","","","","","","","","","null","+","Fixation - short","","null","","","","","","","","","","","","","","","","",""
"","html-keyboard-response","449","883737","0.0-721.0","rxmeuvtm","","","","","","","","","","","","","713","sdw","Diagnostic trial","","f","","10","8","9","false","false","true","both pre & post","LEFT","LEFT","f","1","true","","","",""
"","html-keyboard-response","450","884488","0.0-724.0","rxmeuvtm","2560","1440","","","","","","","","","","","null","+","Fixation - short","","null","","","","","","","","","","","","","","","","",""
"","canvas-keyboard-response","451","885740","0.0-725.0","rxmeuvtm","","","","","","","","","","","","","null","Cue","Cue","","null","","10","8","","","false","","","","","","","","","","",""
"","html-keyboard-response","452","886491","0.0-726.0","rxmeuvtm","2560","1440","","","","","","","","","","","null","+","Fixation - short","","null","","","","","","","","","","","","","","","","",""
"","html-keyboard-response","453","887705","0.0-727.0","rxmeuvtm","","","","","","","","","","","","","1214","sdw","Diagnostic trial","","f","","10","9","9","true","false","true","both pre & post","LEFT","LEFT","f","1","true","","","",""
"","html-keyboard-response","454","888459","0.0-730.0","rxmeuvtm","2560","1440","","","","","","","","","","","null","+","Fixation - short","","null","","","","","","","","","","","","","","","","",""
"","html-keyboard-response","455","889545","0.0-731.0","rxmeuvtm","","","","","","","","","","","","","1086","sdw","Inducer trial","","f","","10","","","","true","","","","","f","1","","false","LEFT","",""
"","html-keyboard-response","456","890295","0.0-734.0","rxmeuvtm","2560","1440","","","","","","","","","","","null","+","Fixation - short","","null","","","","","","","","","","","","","","","","",""
"","html-keyboard-response","457","890920","0.0-735.0","rxmeuvtm","","","","","","","","","","","","","625","If amb press LEFT | If vib press RIGHT","Inducer instructions",""," ","","11","","","","","","","","","","","","","","",""
"","html-keyboard-response","458","891672","0.0-736.0","rxmeuvtm","2560","1440","","","","","","","","","","","null","+","Fixation - short","","null","","","","","","","","","","","","","","","","",""
"","html-keyboard-response","459","892552","0.0-737.0","rxmeuvtm","","","","","","","","","","","","","880","vib","Diagnostic trial","","f","","11","0","9","false","false","true","both pre & post","RIGHT","LEFT","f","1","false","","","",""
"","html-keyboard-response","460","893314","0.0-740.0","rxmeuvtm","2560","1440","","","","","","","","","","","null","+","Fixation - short","","null","","","","","","","","","","","","","","","","",""
"","html-keyboard-response","461","893696","0.0-741.0","rxmeuvtm","","","","","","","","","","","","","382","amb","Diagnostic trial","","f","","11","1","9","false","false","true","both pre & post","LEFT","LEFT","f","1","true","","","",""
"","html-keyboard-response","462","894447","0.0-744.0","rxmeuvtm","2560","1440","","","","","","","","","","","null","+","Fixation - short","","null","","","","","","","","","","","","","","","","",""
