"value","trial_type","trial_index","time_elapsed","internal_node_id","id","width","height","webaudio","browser","browser_version","mobile","os","fullscreen","vsync_rate","webcam","microphone","view_history","rt","stimulus","trial_info","success","response","exp_parameters","inducer_run","diagnostic_run","cue_num","post_cue","inducer_trial","italic","forced_equal_run","correct_inducer_response_side","correct_diag_response_side","correct_response_key","correct_response","congruent","force_equal","correct_indu_response_side","accuracy","interactive"
"","call-function","0","1","0.0-0.0","6qjq2mpl","","","","","","","","","","","","","","","","","","","","","","","","","","","","","","","","","",""
"","browser-check","1","413","0.0-1.0","6qjq2mpl","888","1317","true","chrome","123.0.0","false","Windows 10","true","146.13","false","true","","","","","","","","","","","","","","","","","","","","","","",""
"","instructions","2","39069","0.0-2.0","6qjq2mpl","","","","","","","","","","","","[{""page_index"":0,""viewing_time"":22007},{""page_index"":1,""viewing_time"":13570},{""page_index"":2,""viewing_time"":3078}]","38655","The experiment and consent","The experiment and consent","","","","","","","","","","","","","","","","","","",""
"","fullscreen","3","49335","0.0-3.0","6qjq2mpl","","","","","","","","","","","","","9265","","Full screen","true","","","","","","","","","","","","","","","","","",""
"","instructions","4","78966","0.0-4.0","6qjq2mpl","","","","","","","","","","","","[{""page_index"":0,""viewing_time"":22287},{""page_index"":1,""viewing_time"":7344}]","29631","Instructions","Basic overview explanation","","","","","","","","","","","","","","","","","","",""
"","html-keyboard-response","5","88944","0.0-5.0","6qjq2mpl","","","","","","","","","","","","","8470","If italic press LEFT | If upright press RIGHT","Diagnostic instructions",""," ","{""debug"":false,""skip_instructions"":false,""skip_practice"":false,""save_local_data"":false,""studu_name"":""exp2"",""default_background_colour"":""#cccccc"",""wrong_response_colour"":""#d22d2d"",""instruction_delay"":20000,""trial_duration"":2000,""short_fixation"":750,""long_fixation"":1500,""wrong_response_delay"":300,""too_slow_delay"":300,""instruction_font_size"":""24px"",""general_font_size"":""42px"",""fixation_size"":""48px"",""allowed_responses"":[""f"",""j""],""cue_min_length"":0,""cue_max_length"":4,""tot_post_cue_len"":72,""cue_colour"":""red"",""cue_shape"":""Circle"",""cue_size"":70,""cue_duration"":1250,""avg_number_of_cues"":3,""inducer_colour"":""yellow"",""number_of_inducers"":24,""pre_cue_italic_forced_equal"":true,""post_cue_italic_forced_equal"":true,""prac_diagnostic_rounds"":16,""prac_inducer_rounds"":6,""prac_cue_rounds"":16,""prac_post_cue_num"":3}","","","","","","","","","","","","","","","",""
"","html-keyboard-response","6","89707","0.0-6.0","6qjq2mpl","2560","1440","","","","","","","","","","","null","+","Fixation - short","","null","","","","","","","","","","","","","","","","",""
"","html-keyboard-response","7","90415","0.0-7.0","6qjq2mpl","","","","","","","","","","","","","707","ydi","Diagnostic practice","","j","","Diagnostic practice","0","-84","true","false","false","prac equal","LEFT","RIGHT","j","1","false","","","",""
"","html-keyboard-response","8","91179","0.0-10.0","6qjq2mpl","2560","1440","","","","","","","","","","","null","+","Fixation - short","","null","","","","","","","","","","","","","","","","",""
"","html-keyboard-response","9","91679","0.0-11.0","6qjq2mpl","","","","","","","","","","","","","499","ydi","Diagnostic practice","","f","","Diagnostic practice","1","-84","true","false","true","prac equal","LEFT","LEFT","f","1","true","","","",""
"","html-keyboard-response","10","92433","0.0-14.0","6qjq2mpl","2560","1440","","","","","","","","","","","null","+","Fixation - short","","null","","","","","","","","","","","","","","","","",""
"","html-keyboard-response","11","92860","0.0-15.0","6qjq2mpl","","","","","","","","","","","","","426","ebe","Diagnostic practice","","j","","Diagnostic practice","2","-84","true","false","false","prac equal","RIGHT","RIGHT","j","1","true","","","",""
"","html-keyboard-response","12","93612","0.0-18.0","6qjq2mpl","2560","1440","","","","","","","","","","","null","+","Fixation - short","","null","","","","","","","","","","","","","","","","",""
"","html-keyboard-response","13","94176","0.0-19.0","6qjq2mpl","","","","","","","","","","","","","563","ebe","Diagnostic practice","","f","","Diagnostic practice","3","-84","true","false","true","prac equal","RIGHT","LEFT","f","1","false","","","",""
"","html-keyboard-response","14","94937","0.0-22.0","6qjq2mpl","2560","1440","","","","","","","","","","","null","+","Fixation - short","","null","","","","","","","","","","","","","","","","",""
"","html-keyboard-response","15","95464","0.0-23.0","6qjq2mpl","","","","","","","","","","","","","527","ebe","Diagnostic practice","","f","","Diagnostic practice","4","-84","true","false","true","prac equal","RIGHT","LEFT","f","1","false","","","",""
"","html-keyboard-response","16","96222","0.0-26.0","6qjq2mpl","2560","1440","","","","","","","","","","","null","+","Fixation - short","","null","","","","","","","","","","","","","","","","",""
"","html-keyboard-response","17","96664","0.0-27.0","6qjq2mpl","","","","","","","","","","","","","441","ydi","Diagnostic practice","","f","","Diagnostic practice","5","-84","true","false","true","prac equal","LEFT","LEFT","f","1","true","","","",""
"","html-keyboard-response","18","97416","0.0-30.0","6qjq2mpl","2560","1440","","","","","","","","","","","null","+","Fixation - short","","null","","","","","","","","","","","","","","","","",""
"","html-keyboard-response","19","97936","0.0-31.0","6qjq2mpl","","","","","","","","","","","","","520","ebe","Diagnostic practice","","j","","Diagnostic practice","6","-84","true","false","false","prac equal","RIGHT","RIGHT","j","1","true","","","",""
"","html-keyboard-response","20","98701","0.0-34.0","6qjq2mpl","2560","1440","","","","","","","","","","","null","+","Fixation - short","","null","","","","","","","","","","","","","","","","",""
"","html-keyboard-response","21","99128","0.0-35.0","6qjq2mpl","","","","","","","","","","","","","427","ydi","Diagnostic practice","","j","","Diagnostic practice","7","-84","true","false","false","prac equal","LEFT","RIGHT","j","1","false","","","",""
"","html-keyboard-response","22","99889","0.0-38.0","6qjq2mpl","2560","1440","","","","","","","","","","","null","+","Fixation - short","","null","","","","","","","","","","","","","","","","",""
"","html-keyboard-response","23","100308","0.0-39.0","6qjq2mpl","","","","","","","","","","","","","419","ydi","Diagnostic practice","","j","","Diagnostic practice","8","-84","true","false","false","prac equal","LEFT","RIGHT","j","1","false","","","",""
"","html-keyboard-response","24","101067","0.0-42.0","6qjq2mpl","2560","1440","","","","","","","","","","","null","+","Fixation - short","","null","","","","","","","","","","","","","","","","",""
"","html-keyboard-response","25","102008","0.0-43.0","6qjq2mpl","","","","","","","","","","","","","941","ydi","Diagnostic practice","","f","","Diagnostic practice","9","-84","true","false","true","prac equal","LEFT","LEFT","f","1","true","","","",""
"","html-keyboard-response","26","102770","0.0-46.0","6qjq2mpl","2560","1440","","","","","","","","","","","null","+","Fixation - short","","null","","","","","","","","","","","","","","","","",""
"","html-keyboard-response","27","103292","0.0-47.0","6qjq2mpl","","","","","","","","","","","","","522","ebe","Diagnostic practice","","j","","Diagnostic practice","10","-84","true","false","false","prac equal","RIGHT","RIGHT","j","1","true","","","",""
"","html-keyboard-response","28","104055","0.0-50.0","6qjq2mpl","2560","1440","","","","","","","","","","","null","+","Fixation - short","","null","","","","","","","","","","","","","","","","",""
"","html-keyboard-response","29","104516","0.0-51.0","6qjq2mpl","","","","","","","","","","","","","461","ebe","Diagnostic practice","","f","","Diagnostic practice","11","-84","true","false","true","prac equal","RIGHT","LEFT","f","1","false","","","",""
"","html-keyboard-response","30","105281","0.0-54.0","6qjq2mpl","2560","1440","","","","","","","","","","","null","+","Fixation - short","","null","","","","","","","","","","","","","","","","",""
"","html-keyboard-response","31","105860","0.0-55.0","6qjq2mpl","","","","","","","","","","","","","579","ebe","Diagnostic practice","","j","","Diagnostic practice","12","-84","true","false","false","prac equal","RIGHT","RIGHT","j","1","true","","","",""
"","html-keyboard-response","32","106613","0.0-58.0","6qjq2mpl","2560","1440","","","","","","","","","","","null","+","Fixation - short","","null","","","","","","","","","","","","","","","","",""
"","html-keyboard-response","33","107049","0.0-59.0","6qjq2mpl","","","","","","","","","","","","","435","ebe","Diagnostic practice","","j","","Diagnostic practice","13","-84","true","false","false","prac equal","RIGHT","RIGHT","j","1","true","","","",""
"","html-keyboard-response","34","107806","0.0-62.0","6qjq2mpl","2560","1440","","","","","","","","","","","null","+","Fixation - short","","null","","","","","","","","","","","","","","","","",""
"","html-keyboard-response","35","108536","0.0-63.0","6qjq2mpl","","","","","","","","","","","","","730","ydi","Diagnostic practice","","f","","Diagnostic practice","14","-84","true","false","true","prac equal","LEFT","LEFT","f","1","true","","","",""
"","html-keyboard-response","36","109296","0.0-66.0","6qjq2mpl","2560","1440","","","","","","","","","","","null","+","Fixation - short","","null","","","","","","","","","","","","","","","","",""
"","html-keyboard-response","37","111143","0.0-67.0","6qjq2mpl","","","","","","","","","","","","","1847","ebe","Diagnostic practice","","f","","Diagnostic practice","15","-84","true","false","true","prac equal","RIGHT","LEFT","f","1","false","","","",""
"","html-keyboard-response","38","111899","0.0-70.0","6qjq2mpl","2560","1440","","","","","","","","","","","null","+","Fixation - short","","null","","","","","","","","","","","","","","","","",""
"","instructions","39","179033","0.0-71.0","6qjq2mpl","","","","","","","","","","","","[{""page_index"":0,""viewing_time"":67134}]","67134","Instructions","Final experiment explanation","","","","","","","","","","","","","","","","","","",""
"","html-keyboard-response","40","186144","0.0-72.0","6qjq2mpl","","","","","","","","","","","","","5599","If nga press LEFT | If cer press RIGHT","Inducer practice",""," ","","Practice","","","","","","","","","","","","","","",""
"","html-keyboard-response","41","186907","0.0-73.0","6qjq2mpl","2560","1440","","","","","","","","","","","null","+","Fixation - short","","null","","","","","","","","","","","","","","","","",""
"","html-keyboard-response","42","187488","0.0-74.0","6qjq2mpl","","","","","","","","","","","","","581","nga","Inducer practice","","f","","Practice","","","","true","","","","","f","1","","true","LEFT","",""
"","html-keyboard-response","43","188241","0.0-77.0","6qjq2mpl","2560","1440","","","","","","","","","","","null","+","Fixation - short","","null","","","","","","","","","","","","","","","","",""
"","html-keyboard-response","44","190672","0.0-78.0","6qjq2mpl","","","","","","","","","","","","","2431","If rrd press LEFT | If psl press RIGHT","Inducer practice",""," ","","Practice","","","","","","","","","","","","","","",""
"","html-keyboard-response","45","191431","0.0-79.0","6qjq2mpl","2560","1440","","","","","","","","","","","null","+","Fixation - short","","null","","","","","","","","","","","","","","","","",""
"","html-keyboard-response","46","191972","0.0-80.0","6qjq2mpl","","","","","","","","","","","","","540","psl","Inducer practice","","j","","Practice","","","","true","","","","","j","1","","true","RIGHT","",""
"","html-keyboard-response","47","192733","0.0-83.0","6qjq2mpl","2560","1440","","","","","","","","","","","null","+","Fixation - short","","null","","","","","","","","","","","","","","","","",""
"","html-keyboard-response","48","195224","0.0-84.0","6qjq2mpl","","","","","","","","","","","","","2491","If mvv press LEFT | If lff press RIGHT","Inducer practice",""," ","","Practice","","","","","","","","","","","","","","",""
"","html-keyboard-response","49","195986","0.0-85.0","6qjq2mpl","2560","1440","","","","","","","","","","","null","+","Fixation - short","","null","","","","","","","","","","","","","","","","",""
"","html-keyboard-response","50","196392","0.0-86.0","6qjq2mpl","","","","","","","","","","","","","405","lff","Inducer practice","","j","","Practice","","","","true","","","","","j","1","","true","RIGHT","",""
"","html-keyboard-response","51","197148","0.0-89.0","6qjq2mpl","2560","1440","","","","","","","","","","","null","+","Fixation - short","","null","","","","","","","","","","","","","","","","",""
"","html-keyboard-response","52","198895","0.0-90.0","6qjq2mpl","","","","","","","","","","","","","1748","If xet press LEFT | If jlm press RIGHT","Inducer practice",""," ","","Practice","","","","","","","","","","","","","","",""
"","html-keyboard-response","53","199653","0.0-91.0","6qjq2mpl","2560","1440","","","","","","","","","","","null","+","Fixation - short","","null","","","","","","","","","","","","","","","","",""
"","html-keyboard-response","54","200139","0.0-92.0","6qjq2mpl","","","","","","","","","","","","","486","xet","Inducer practice","","f","","Practice","","","","true","","","","","f","1","","true","LEFT","",""
"","html-keyboard-response","55","200891","0.0-95.0","6qjq2mpl","2560","1440","","","","","","","","","","","null","+","Fixation - short","","null","","","","","","","","","","","","","","","","",""
"","html-keyboard-response","56","202055","0.0-96.0","6qjq2mpl","","","","","","","","","","","","","1164","If oez press LEFT | If sjn press RIGHT","Inducer practice",""," ","","Practice","","","","","","","","","","","","","","",""
"","html-keyboard-response","57","202816","0.0-97.0","6qjq2mpl","2560","1440","","","","","","","","","","","null","+","Fixation - short","","null","","","","","","","","","","","","","","","","",""
"","html-keyboard-response","58","203311","0.0-98.0","6qjq2mpl","","","","","","","","","","","","","495","sjn","Inducer practice","","j","","Practice","","","","true","","","","","j","1","","true","RIGHT","",""
"","html-keyboard-response","59","204065","0.0-101.0","6qjq2mpl","2560","1440","","","","","","","","","","","null","+","Fixation - short","","null","","","","","","","","","","","","","","","","",""
"","html-keyboard-response","60","205184","0.0-102.0","6qjq2mpl","","","","","","","","","","","","","1119","If saj press LEFT | If vbt press RIGHT","Inducer practice",""," ","","Practice","","","","","","","","","","","","","","",""
"","html-keyboard-response","61","205941","0.0-103.0","6qjq2mpl","2560","1440","","","","","","","","","","","null","+","Fixation - short","","null","","","","","","","","","","","","","","","","",""
"","html-keyboard-response","62","206363","0.0-104.0","6qjq2mpl","","","","","","","","","","","","","422","saj","Inducer practice","","f","","Practice","","","","true","","","","","f","1","","true","LEFT","",""
"","html-keyboard-response","63","207118","0.0-107.0","6qjq2mpl","2560","1440","","","","","","","","","","","null","+","Fixation - short","","null","","","","","","","","","","","","","","","","",""
"","instructions","64","252500","0.0-108.0","6qjq2mpl","","","","","","","","","","","","[{""page_index"":0,""viewing_time"":45380}]","45380","Instructions","Final experiment explanation","","","","","","","","","","","","","","","","","","",""
"","html-keyboard-response","65","260169","0.0-109.0","6qjq2mpl","","","","","","","","","","","","","6165","If ccx press LEFT | If mts press RIGHT","Cue practice",""," ","","Practice","","","","","","","","","","","","","","",""
"","html-keyboard-response","66","260930","0.0-110.0","6qjq2mpl","2560","1440","","","","","","","","","","","null","+","Fixation - short","","null","","","","","","","","","","","","","","","","",""
"","html-keyboard-response","67","261733","0.0-111.0","6qjq2mpl","","","","","","","","","","","","","803","ccx","Cue practice","","f","","Practice","0","13","false","false","true","both pre & post","LEFT","LEFT","f","1","true","","","",""
"","html-keyboard-response","68","262491","0.0-114.0","6qjq2mpl","2560","1440","","","","","","","","","","","null","+","Fixation - short","","null","","","","","","","","","","","","","","","","",""
"","html-keyboard-response","69","263317","0.0-115.0","6qjq2mpl","","","","","","","","","","","","","825","ccx","Cue practice","","f","","Practice","1","13","false","false","true","both pre & post","LEFT","LEFT","f","1","true","","","",""
"","html-keyboard-response","70","264068","0.0-118.0","6qjq2mpl","2560","1440","","","","","","","","","","","null","+","Fixation - short","","null","","","","","","","","","","","","","","","","",""
"","html-keyboard-response","71","266660","0.0-119.0","6qjq2mpl","","","","","","","","","","","","","2592","mts","Cue practice","","j","","Practice","2","13","false","false","true","both pre & post","RIGHT","LEFT","f","0","false","","","",""
"","call-function","72","266661","0.0-121.0-0.0","6qjq2mpl","","","","","","","","","","","","","","","","","","","","","","","","","","","","","","","","","",""
"","html-keyboard-response","73","266974","0.0-121.0-1.0","6qjq2mpl","2560","1440","","","","","","","","","","","null","Wrong","Feedback","","null","","","","","","","","","","","","","","","","",""
"","call-function","74","266974","0.0-121.0-2.0","6qjq2mpl","","","","","","","","","","","","","","","","","","","","","","","","","","","","","","","","","",""
"","html-keyboard-response","75","267732","0.0-122.0","6qjq2mpl","2560","1440","","","","","","","","","","","null","+","Fixation - short","","null","","","","","","","","","","","","","","","","",""
"","html-keyboard-response","76","268552","0.0-123.0","6qjq2mpl","","","","","","","","","","","","","820","mts","Cue practice","","f","","Practice","3","13","false","false","true","both pre & post","RIGHT","LEFT","f","1","false","","","",""
"","html-keyboard-response","77","269317","0.0-126.0","6qjq2mpl","2560","1440","","","","","","","","","","","null","+","Fixation - short","","null","","","","","","","","","","","","","","","","",""
"","html-keyboard-response","78","270236","0.0-127.0","6qjq2mpl","","","","","","","","","","","","","919","mts","Cue practice","","j","","Practice","4","13","false","false","false","both pre & post","RIGHT","RIGHT","j","1","true","","","",""
"","html-keyboard-response","79","270988","0.0-130.0","6qjq2mpl","2560","1440","","","","","","","","","","","null","+","Fixation - short","","null","","","","","","","","","","","","","","","","",""
"","html-keyboard-response","80","271961","0.0-131.0","6qjq2mpl","","","","","","","","","","","","","972","mts","Cue practice","","j","","Practice","5","13","false","false","false","both pre & post","RIGHT","RIGHT","j","1","true","","","",""
"","html-keyboard-response","81","272713","0.0-134.0","6qjq2mpl","2560","1440","","","","","","","","","","","null","+","Fixation - short","","null","","","","","","","","","","","","","","","","",""
"","html-keyboard-response","82","273305","0.0-135.0","6qjq2mpl","","","","","","","","","","","","","592","mts","Cue practice","","j","","Practice","6","13","false","false","false","both pre & post","RIGHT","RIGHT","j","1","true","","","",""
"","html-keyboard-response","83","274063","0.0-138.0","6qjq2mpl","2560","1440","","","","","","","","","","","null","+","Fixation - short","","null","","","","","","","","","","","","","","","","",""
"","html-keyboard-response","84","274616","0.0-139.0","6qjq2mpl","","","","","","","","","","","","","553","mts","Cue practice","","f","","Practice","7","13","false","false","true","both pre & post","RIGHT","LEFT","f","1","false","","","",""
"","html-keyboard-response","85","275379","0.0-142.0","6qjq2mpl","2560","1440","","","","","","","","","","","null","+","Fixation - short","","null","","","","","","","","","","","","","","","","",""
"","html-keyboard-response","86","276248","0.0-143.0","6qjq2mpl","","","","","","","","","","","","","869","mts","Cue practice","","j","","Practice","8","13","false","false","false","both pre & post","RIGHT","RIGHT","j","1","true","","","",""
"","html-keyboard-response","87","277009","0.0-146.0","6qjq2mpl","2560","1440","","","","","","","","","","","null","+","Fixation - short","","null","","","","","","","","","","","","","","","","",""
"","html-keyboard-response","88","277608","0.0-147.0","6qjq2mpl","","","","","","","","","","","","","599","ccx","Cue practice","","f","","Practice","9","13","false","false","true","both pre & post","LEFT","LEFT","f","1","true","","","",""
"","html-keyboard-response","89","278362","0.0-150.0","6qjq2mpl","2560","1440","","","","","","","","","","","null","+","Fixation - short","","null","","","","","","","","","","","","","","","","",""
"","html-keyboard-response","90","281312","0.0-151.0","6qjq2mpl","","","","","","","","","","","","","2950","ccx","Cue practice","","f","","Practice","10","13","false","false","false","both pre & post","LEFT","RIGHT","j","0","false","","","",""
"","call-function","91","281312","0.0-153.0-0.0","6qjq2mpl","","","","","","","","","","","","","","","","","","","","","","","","","","","","","","","","","",""
"","html-keyboard-response","92","281617","0.0-153.0-1.0","6qjq2mpl","2560","1440","","","","","","","","","","","null","Wrong","Feedback","","null","","","","","","","","","","","","","","","","",""
"","call-function","93","281617","0.0-153.0-2.0","6qjq2mpl","","","","","","","","","","","","","","","","","","","","","","","","","","","","","","","","","",""
"","html-keyboard-response","94","282372","0.0-154.0","6qjq2mpl","2560","1440","","","","","","","","","","","null","+","Fixation - short","","null","","","","","","","","","","","","","","","","",""
"","html-keyboard-response","95","285771","0.0-155.0","6qjq2mpl","","","","","","","","","","","","","3399","mts","Cue practice","","j","","Practice","11","13","false","false","false","both pre & post","RIGHT","RIGHT","j","1","true","","","",""
"","html-keyboard-response","96","286535","0.0-158.0","6qjq2mpl","2560","1440","","","","","","","","","","","null","+","Fixation - short","","null","","","","","","","","","","","","","","","","",""
"","html-keyboard-response","97","287703","0.0-159.0","6qjq2mpl","","","","","","","","","","","","","1167","mts","Cue practice","","f","","Practice","12","13","false","false","true","both pre & post","RIGHT","LEFT","f","1","false","","","",""
"","html-keyboard-response","98","288459","0.0-162.0","6qjq2mpl","2560","1440","","","","","","","","","","","null","+","Fixation - short","","null","","","","","","","","","","","","","","","","",""
"","canvas-keyboard-response","99","289713","0.0-163.0","6qjq2mpl","","","","","","","","","","","","","null","Cue","Cue","","null","","Practice","12","","","false","","","","","","","","","","",""
"","html-keyboard-response","100","290466","0.0-164.0","6qjq2mpl","2560","1440","","","","","","","","","","","null","+","Fixation - short","","null","","","","","","","","","","","","","","","","",""
"","html-keyboard-response","101","291495","0.0-165.0","6qjq2mpl","","","","","","","","","","","","","1028","ccx","Cue practice","","f","","Practice","13","13","true","false","true","both pre & post","LEFT","LEFT","f","1","true","","","",""
"","html-keyboard-response","102","292246","0.0-168.0","6qjq2mpl","2560","1440","","","","","","","","","","","null","+","Fixation - short","","null","","","","","","","","","","","","","","","","",""
"","html-keyboard-response","103","294931","0.0-169.0","6qjq2mpl","","","","","","","","","","","","","2685","ccx","Cue practice","","j","","Practice","14","13","true","false","false","both pre & post","LEFT","RIGHT","j","1","false","","","",""
"","html-keyboard-response","104","295686","0.0-172.0","6qjq2mpl","2560","1440","","","","","","","","","","","null","+","Fixation - short","","null","","","","","","","","","","","","","","","","",""
"","html-keyboard-response","105","296967","0.0-173.0","6qjq2mpl","","","","","","","","","","","","","1281","mts","Cue practice","","f","","Practice","15","13","true","false","true","both pre & post","RIGHT","LEFT","f","1","false","","","",""
"","html-keyboard-response","106","297729","0.0-176.0","6qjq2mpl","2560","1440","","","","","","","","","","","null","+","Fixation - short","","null","","","","","","","","","","","","","","","","",""
"","html-keyboard-response","107","303291","0.0-177.0","6qjq2mpl","","","","","","","","","","","","","5562","mts","Inducer practice","","f","","Practice","","","","true","","","","","j","0","","false","RIGHT","",""
"","call-function","108","303291","0.0-179.0-0.0","6qjq2mpl","","","","","","","","","","","","","","","","","","","","","","","","","","","","","","","","","",""
"","html-keyboard-response","109","303604","0.0-179.0-1.0","6qjq2mpl","2560","1440","","","","","","","","","","","null","Wrong","Feedback","","null","","","","","","","","","","","","","","","","",""
"","call-function","110","303604","0.0-179.0-2.0","6qjq2mpl","","","","","","","","","","","","","","","","","","","","","","","","","","","","","","","","","",""
"","html-keyboard-response","111","304360","0.0-180.0","6qjq2mpl","2560","1440","","","","","","","","","","","null","+","Fixation - short","","null","","","","","","","","","","","","","","","","",""
"","instructions","112","309574","0.0-181.0","6qjq2mpl","","","","","","","","","","","","[{""page_index"":0,""viewing_time"":5213}]","5213","End practice","End of practice","","","","","","","","","","","","","","","","","","",""
"","html-keyboard-response","113","312584","0.0-182.0","6qjq2mpl","2560","1440","","","","","","","","","","","null","+","Fixation - long","","null","","","","","","","","","","","","","","","","",""
"","html-keyboard-response","114","326751","0.0-183.0","6qjq2mpl","","","","","","","","","","","","","14166","If vib press LEFT | If flh press RIGHT","Inducer instructions",""," ","","0","","","","","","","","","","","","","","",""
"","html-keyboard-response","115","327515","0.0-184.0","6qjq2mpl","2560","1440","","","","","","","","","","","null","+","Fixation - short","","null","","","","","","","","","","","","","","","","",""
"","html-keyboard-response","116","328297","0.0-185.0","6qjq2mpl","","","","","","","","","","","","","782","flh","Diagnostic trial","","j","","0","0","10","false","false","false","both pre & post","RIGHT","RIGHT","j","1","true","","","",""
"","html-keyboard-response","117","329051","0.0-188.0","6qjq2mpl","2560","1440","","","","","","","","","","","null","+","Fixation - short","","null","","","","","","","","","","","","","","","","",""
"","html-keyboard-response","118","329633","0.0-189.0","6qjq2mpl","","","","","","","","","","","","","581","flh","Diagnostic trial","","j","","0","1","10","false","false","false","both pre & post","RIGHT","RIGHT","j","1","true","","","",""
"","html-keyboard-response","119","330396","0.0-192.0","6qjq2mpl","2560","1440","","","","","","","","","","","null","+","Fixation - short","","null","","","","","","","","","","","","","","","","",""
"","html-keyboard-response","120","331009","0.0-193.0","6qjq2mpl","","","","","","","","","","","","","612","vib","Diagnostic trial","","f","","0","2","10","false","false","true","both pre & post","LEFT","LEFT","f","1","true","","","",""
"","html-keyboard-response","121","331761","0.0-196.0","6qjq2mpl","2560","1440","","","","","","","","","","","null","+","Fixation - short","","null","","","","","","","","","","","","","","","","",""
"","html-keyboard-response","122","332331","0.0-197.0","6qjq2mpl","","","","","","","","","","","","","570","vib","Diagnostic trial","","f","","0","3","10","false","false","true","both pre & post","LEFT","LEFT","f","1","true","","","",""
"","html-keyboard-response","123","333090","0.0-200.0","6qjq2mpl","2560","1440","","","","","","","","","","","null","+","Fixation - short","","null","","","","","","","","","","","","","","","","",""
"","html-keyboard-response","124","335106","0.0-201.0","6qjq2mpl","","","","","","","","","","","","","null","vib","Diagnostic trial","","null","","0","4","10","false","false","false","both pre & post","LEFT","RIGHT","j","NaN","false","","","",""
"","call-function","125","335106","0.0-202.0-0.0","6qjq2mpl","","","","","","","","","","","","","","","","","","","","","","","","","","","","","","","","","",""
"","html-keyboard-response","126","335415","0.0-202.0-1.0","6qjq2mpl","2560","1440","","","","","","","","","","","null","Slow","Feedback","","null","","","","","","","","","","","","","","","","",""
"","call-function","127","335415","0.0-202.0-2.0","6qjq2mpl","","","","","","","","","","","","","","","","","","","","","","","","","","","","","","","","","",""
"","html-keyboard-response","128","336173","0.0-204.0","6qjq2mpl","2560","1440","","","","","","","","","","","null","+","Fixation - short","","null","","","","","","","","","","","","","","","","",""
"","html-keyboard-response","129","337049","0.0-205.0","6qjq2mpl","","","","","","","","","","","","","876","vib","Diagnostic trial","","f","","0","5","10","false","false","true","both pre & post","LEFT","LEFT","f","1","true","","","",""
"","html-keyboard-response","130","337814","0.0-208.0","6qjq2mpl","2560","1440","","","","","","","","","","","null","+","Fixation - short","","null","","","","","","","","","","","","","","","","",""
"","html-keyboard-response","131","338891","0.0-209.0","6qjq2mpl","","","","","","","","","","","","","1076","flh","Diagnostic trial","","j","","0","6","10","false","false","false","both pre & post","RIGHT","RIGHT","j","1","true","","","",""
"","html-keyboard-response","132","339646","0.0-212.0","6qjq2mpl","2560","1440","","","","","","","","","","","null","+","Fixation - short","","null","","","","","","","","","","","","","","","","",""
"","html-keyboard-response","133","340909","0.0-213.0","6qjq2mpl","","","","","","","","","","","","","1263","flh","Diagnostic trial","","f","","0","7","10","false","false","true","both pre & post","RIGHT","LEFT","f","1","false","","","",""
"","html-keyboard-response","134","341667","0.0-216.0","6qjq2mpl","2560","1440","","","","","","","","","","","null","+","Fixation - short","","null","","","","","","","","","","","","","","","","",""
"","html-keyboard-response","135","342697","0.0-217.0","6qjq2mpl","","","","","","","","","","","","","1030","vib","Diagnostic trial","","f","","0","8","10","false","false","false","both pre & post","LEFT","RIGHT","j","0","false","","","",""
"","call-function","136","342698","0.0-219.0-0.0","6qjq2mpl","","","","","","","","","","","","","","","","","","","","","","","","","","","","","","","","","",""
"","html-keyboard-response","137","343012","0.0-219.0-1.0","6qjq2mpl","2560","1440","","","","","","","","","","","null","Wrong","Feedback","","null","","","","","","","","","","","","","","","","",""
"","call-function","138","343012","0.0-219.0-2.0","6qjq2mpl","","","","","","","","","","","","","","","","","","","","","","","","","","","","","","","","","",""
"","html-keyboard-response","139","343767","0.0-220.0","6qjq2mpl","2560","1440","","","","","","","","","","","null","+","Fixation - short","","null","","","","","","","","","","","","","","","","",""
"","html-keyboard-response","140","344697","0.0-221.0","6qjq2mpl","","","","","","","","","","","","","929","vib","Diagnostic trial","","j","","0","9","10","false","false","false","both pre & post","LEFT","RIGHT","j","1","false","","","",""
"","html-keyboard-response","141","345458","0.0-224.0","6qjq2mpl","2560","1440","","","","","","","","","","","null","+","Fixation - short","","null","","","","","","","","","","","","","","","","",""
"","canvas-keyboard-response","142","346713","0.0-225.0","6qjq2mpl","","","","","","","","","","","","","null","Cue","Cue","","null","","0","9","","","false","","","","","","","","","","",""
"","html-keyboard-response","143","347472","0.0-226.0","6qjq2mpl","2560","1440","","","","","","","","","","","null","+","Fixation - short","","null","","","","","","","","","","","","","","","","",""
"","html-keyboard-response","144","348429","0.0-227.0","6qjq2mpl","","","","","","","","","","","","","957","flh","Diagnostic trial","","f","","0","10","10","true","false","true","both pre & post","RIGHT","LEFT","f","1","false","","","",""
"","html-keyboard-response","145","349188","0.0-230.0","6qjq2mpl","2560","1440","","","","","","","","","","","null","+","Fixation - short","","null","","","","","","","","","","","","","","","","",""
"","html-keyboard-response","146","349820","0.0-231.0","6qjq2mpl","","","","","","","","","","","","","632","vib","Diagnostic trial","","f","","0","11","10","true","false","true","both pre & post","LEFT","LEFT","f","1","true","","","",""
"","html-keyboard-response","147","350572","0.0-234.0","6qjq2mpl","2560","1440","","","","","","","","","","","null","+","Fixation - short","","null","","","","","","","","","","","","","","","","",""
"","html-keyboard-response","148","351164","0.0-235.0","6qjq2mpl","","","","","","","","","","","","","592","vib","Diagnostic trial","","f","","0","12","10","true","false","true","both pre & post","LEFT","LEFT","f","1","true","","","",""
"","html-keyboard-response","149","351917","0.0-238.0","6qjq2mpl","2560","1440","","","","","","","","","","","null","+","Fixation - short","","null","","","","","","","","","","","","","","","","",""
"","html-keyboard-response","150","353924","0.0-239.0","6qjq2mpl","","","","","","","","","","","","","null","vib","Inducer trial","","null","","0","","","","true","","","","","f","NaN","","false","LEFT","",""
"","call-function","151","353924","0.0-240.0-0.0","6qjq2mpl","","","","","","","","","","","","","","","","","","","","","","","","","","","","","","","","","",""
"","html-keyboard-response","152","354234","0.0-240.0-1.0","6qjq2mpl","2560","1440","","","","","","","","","","","null","Slow","Feedback","","null","","","","","","","","","","","","","","","","",""
"","call-function","153","354234","0.0-240.0-2.0","6qjq2mpl","","","","","","","","","","","","","","","","","","","","","","","","","","","","","","","","","",""
"","html-keyboard-response","154","354994","0.0-242.0","6qjq2mpl","2560","1440","","","","","","","","","","","null","+","Fixation - short","","null","","","","","","","","","","","","","","","","",""
"","html-keyboard-response","155","371580","0.0-243.0","6qjq2mpl","","","","","","","","","","","","","16586","If dlg press LEFT | If afp press RIGHT","Inducer instructions",""," ","","1","","","","","","","","","","","","","","",""
"","html-keyboard-response","156","372344","0.0-244.0","6qjq2mpl","2560","1440","","","","","","","","","","","null","+","Fixation - short","","null","","","","","","","","","","","","","","","","",""
"","html-keyboard-response","157","373015","0.0-245.0","6qjq2mpl","","","","","","","","","","","","","671","afp","Diagnostic trial","","j","","1","0","6","false","false","false","both pre & post","RIGHT","RIGHT","j","1","true","","","",""
"","html-keyboard-response","158","373775","0.0-248.0","6qjq2mpl","2560","1440","","","","","","","","","","","null","+","Fixation - short","","null","","","","","","","","","","","","","","","","",""
"","html-keyboard-response","159","374263","0.0-249.0","6qjq2mpl","","","","","","","","","","","","","488","afp","Diagnostic trial","","j","","1","1","6","false","false","false","both pre & post","RIGHT","RIGHT","j","1","true","","","",""
"","html-keyboard-response","160","375015","0.0-252.0","6qjq2mpl","2560","1440","","","","","","","","","","","null","+","Fixation - short","","null","","","","","","","","","","","","","","","","",""
"","html-keyboard-response","161","375555","0.0-253.0","6qjq2mpl","","","","","","","","","","","","","540","dlg","Diagnostic trial","","f","","1","2","6","false","false","true","both pre & post","LEFT","LEFT","f","1","true","","","",""
"","html-keyboard-response","162","376317","0.0-256.0","6qjq2mpl","2560","1440","","","","","","","","","","","null","+","Fixation - short","","null","","","","","","","","","","","","","","","","",""
"","html-keyboard-response","163","376839","0.0-257.0","6qjq2mpl","","","","","","","","","","","","","522","afp","Diagnostic trial","","f","","1","3","6","false","false","true","both pre & post","RIGHT","LEFT","f","1","false","","","",""
"","html-keyboard-response","164","377592","0.0-260.0","6qjq2mpl","2560","1440","","","","","","","","","","","null","+","Fixation - short","","null","","","","","","","","","","","","","","","","",""
"","html-keyboard-response","165","378215","0.0-261.0","6qjq2mpl","","","","","","","","","","","","","623","afp","Diagnostic trial","","j","","1","4","6","false","false","false","both pre & post","RIGHT","RIGHT","j","1","true","","","",""
"","html-keyboard-response","166","378970","0.0-264.0","6qjq2mpl","2560","1440","","","","","","","","","","","null","+","Fixation - short","","null","","","","","","","","","","","","","","","","",""
"","html-keyboard-response","167","379495","0.0-265.0","6qjq2mpl","","","","","","","","","","","","","525","dlg","Diagnostic trial","","f","","1","5","6","false","false","true","both pre & post","LEFT","LEFT","f","1","true","","","",""
"","html-keyboard-response","168","380251","0.0-268.0","6qjq2mpl","2560","1440","","","","","","","","","","","null","+","Fixation - short","","null","","","","","","","","","","","","","","","","",""
"","canvas-keyboard-response","169","381516","0.0-269.0","6qjq2mpl","","","","","","","","","","","","","null","Cue","Cue","","null","","1","5","","","false","","","","","","","","","","",""
"","html-keyboard-response","170","382273","0.0-270.0","6qjq2mpl","2560","1440","","","","","","","","","","","null","+","Fixation - short","","null","","","","","","","","","","","","","","","","",""
"","html-keyboard-response","171","382859","0.0-271.0","6qjq2mpl","","","","","","","","","","","","","586","dlg","Diagnostic trial","","f","","1","6","6","true","false","true","both pre & post","LEFT","LEFT","f","1","true","","","",""
"","html-keyboard-response","172","383620","0.0-274.0","6qjq2mpl","2560","1440","","","","","","","","","","","null","+","Fixation - short","","null","","","","","","","","","","","","","","","","",""
"","html-keyboard-response","173","385427","0.0-275.0","6qjq2mpl","","","","","","","","","","","","","1807","dlg","Inducer trial","","f","","1","","","","true","","","","","f","1","","false","LEFT","",""
"","html-keyboard-response","174","386180","0.0-278.0","6qjq2mpl","2560","1440","","","","","","","","","","","null","+","Fixation - short","","null","","","","","","","","","","","","","","","","",""
"","html-keyboard-response","175","389855","0.0-279.0","6qjq2mpl","","","","","","","","","","","","","3675","If vsc press LEFT | If efg press RIGHT","Inducer instructions",""," ","","2","","","","","","","","","","","","","","",""
"","html-keyboard-response","176","390618","0.0-280.0","6qjq2mpl","2560","1440","","","","","","","","","","","null","+","Fixation - short","","null","","","","","","","","","","","","","","","","",""
"","html-keyboard-response","177","391199","0.0-281.0","6qjq2mpl","","","","","","","","","","","","","581","vsc","Diagnostic trial","","f","","2","0","9","false","false","true","both pre & post","LEFT","LEFT","f","1","true","","","",""
"","html-keyboard-response","178","391963","0.0-284.0","6qjq2mpl","2560","1440","","","","","","","","","","","null","+","Fixation - short","","null","","","","","","","","","","","","","","","","",""
"","html-keyboard-response","179","392351","0.0-285.0","6qjq2mpl","","","","","","","","","","","","","387","vsc","Diagnostic trial","","f","","2","1","9","false","false","true","both pre & post","LEFT","LEFT","f","1","true","","","",""
"","html-keyboard-response","180","393112","0.0-288.0","6qjq2mpl","2560","1440","","","","","","","","","","","null","+","Fixation - short","","null","","","","","","","","","","","","","","","","",""
"","html-keyboard-response","181","393490","0.0-289.0","6qjq2mpl","","","","","","","","","","","","","378","vsc","Diagnostic trial","","f","","2","2","9","false","false","true","both pre & post","LEFT","LEFT","f","1","true","","","",""
"","html-keyboard-response","182","394241","0.0-292.0","6qjq2mpl","2560","1440","","","","","","","","","","","null","+","Fixation - short","","null","","","","","","","","","","","","","","","","",""
"","html-keyboard-response","183","394903","0.0-293.0","6qjq2mpl","","","","","","","","","","","","","661","vsc","Diagnostic trial","","f","","2","3","9","false","false","false","both pre & post","LEFT","RIGHT","j","0","false","","","",""
"","call-function","184","394903","0.0-295.0-0.0","6qjq2mpl","","","","","","","","","","","","","","","","","","","","","","","","","","","","","","","","","",""
"","html-keyboard-response","185","395215","0.0-295.0-1.0","6qjq2mpl","2560","1440","","","","","","","","","","","null","Wrong","Feedback","","null","","","","","","","","","","","","","","","","",""
"","call-function","186","395215","0.0-295.0-2.0","6qjq2mpl","","","","","","","","","","","","","","","","","","","","","","","","","","","","","","","","","",""
"","html-keyboard-response","187","395974","0.0-296.0","6qjq2mpl","2560","1440","","","","","","","","","","","null","+","Fixation - short","","null","","","","","","","","","","","","","","","","",""
"","html-keyboard-response","188","397990","0.0-297.0","6qjq2mpl","","","","","","","","","","","","","null","vsc","Diagnostic trial","","null","","2","4","9","false","false","false","both pre & post","LEFT","RIGHT","j","NaN","false","","","",""
"","call-function","189","397990","0.0-298.0-0.0","6qjq2mpl","","","","","","","","","","","","","","","","","","","","","","","","","","","","","","","","","",""
"","html-keyboard-response","190","398303","0.0-298.0-1.0","6qjq2mpl","2560","1440","","","","","","","","","","","null","Slow","Feedback","","null","","","","","","","","","","","","","","","","",""
"","call-function","191","398303","0.0-298.0-2.0","6qjq2mpl","","","","","","","","","","","","","","","","","","","","","","","","","","","","","","","","","",""
"","html-keyboard-response","192","399063","0.0-300.0","6qjq2mpl","2560","1440","","","","","","","","","","","null","+","Fixation - short","","null","","","","","","","","","","","","","","","","",""
"","html-keyboard-response","193","400334","0.0-301.0","6qjq2mpl","","","","","","","","","","","","","1270","efg","Diagnostic trial","","j","","2","5","9","false","false","false","both pre & post","RIGHT","RIGHT","j","1","true","","","",""
"","html-keyboard-response","194","401097","0.0-304.0","6qjq2mpl","2560","1440","","","","","","","","","","","null","+","Fixation - short","","null","","","","","","","","","","","","","","","","",""
"","html-keyboard-response","195","401826","0.0-305.0","6qjq2mpl","","","","","","","","","","","","","728","efg","Diagnostic trial","","f","","2","6","9","false","false","true","both pre & post","RIGHT","LEFT","f","1","false","","","",""
"","html-keyboard-response","196","402587","0.0-308.0","6qjq2mpl","2560","1440","","","","","","","","","","","null","+","Fixation - short","","null","","","","","","","","","","","","","","","","",""
"","html-keyboard-response","197","403174","0.0-309.0","6qjq2mpl","","","","","","","","","","","","","587","efg","Diagnostic trial","","f","","2","7","9","false","false","true","both pre & post","RIGHT","LEFT","f","1","false","","","",""
"","html-keyboard-response","198","403935","0.0-312.0","6qjq2mpl","2560","1440","","","","","","","","","","","null","+","Fixation - short","","null","","","","","","","","","","","","","","","","",""
"","html-keyboard-response","199","404530","0.0-313.0","6qjq2mpl","","","","","","","","","","","","","595","vsc","Diagnostic trial","","f","","2","8","9","false","false","true","both pre & post","LEFT","LEFT","f","1","true","","","",""
"","html-keyboard-response","200","405287","0.0-316.0","6qjq2mpl","2560","1440","","","","","","","","","","","null","+","Fixation - short","","null","","","","","","","","","","","","","","","","",""
"","canvas-keyboard-response","201","406543","0.0-317.0","6qjq2mpl","","","","","","","","","","","","","null","Cue","Cue","","null","","2","8","","","false","","","","","","","","","","",""
"","html-keyboard-response","202","407303","0.0-318.0","6qjq2mpl","2560","1440","","","","","","","","","","","null","+","Fixation - short","","null","","","","","","","","","","","","","","","","",""
"","html-keyboard-response","203","408062","0.0-319.0","6qjq2mpl","","","","","","","","","","","","","759","vsc","Diagnostic trial","","j","","2","9","9","true","false","false","both pre & post","LEFT","RIGHT","j","1","false","","","",""
"","html-keyboard-response","204","408825","0.0-322.0","6qjq2mpl","2560","1440","","","","","","","","","","","null","+","Fixation - short","","null","","","","","","","","","","","","","","","","",""
"","html-keyboard-response","205","409266","0.0-323.0","6qjq2mpl","","","","","","","","","","","","","440","vsc","Diagnostic trial","","j","","2","10","9","true","false","false","both pre & post","LEFT","RIGHT","j","1","false","","","",""
"","html-keyboard-response","206","410017","0.0-326.0","6qjq2mpl","2560","1440","","","","","","","","","","","null","+","Fixation - short","","null","","","","","","","","","","","","","","","","",""
"","html-keyboard-response","207","410430","0.0-327.0","6qjq2mpl","","","","","","","","","","","","","412","vsc","Diagnostic trial","","j","","2","11","9","true","false","false","both pre & post","LEFT","RIGHT","j","1","false","","","",""
"","html-keyboard-response","208","411184","0.0-330.0","6qjq2mpl","2560","1440","","","","","","","","","","","null","+","Fixation - short","","null","","","","","","","","","","","","","","","","",""
"","html-keyboard-response","209","411746","0.0-331.0","6qjq2mpl","","","","","","","","","","","","","562","efg","Diagnostic trial","","f","","2","12","9","true","false","true","both pre & post","RIGHT","LEFT","f","1","false","","","",""
"","html-keyboard-response","210","412503","0.0-334.0","6qjq2mpl","2560","1440","","","","","","","","","","","null","+","Fixation - short","","null","","","","","","","","","","","","","","","","",""
"","html-keyboard-response","211","413817","0.0-335.0","6qjq2mpl","","","","","","","","","","","","","1315","vsc","Inducer trial","","f","","2","","","","true","","","","","f","1","","false","LEFT","",""
"","html-keyboard-response","212","414575","0.0-338.0","6qjq2mpl","2560","1440","","","","","","","","","","","null","+","Fixation - short","","null","","","","","","","","","","","","","","","","",""
"","html-keyboard-response","213","424173","0.0-339.0","6qjq2mpl","","","","","","","","","","","","","9598","If bwe press LEFT | If cpt press RIGHT","Inducer instructions",""," ","","3","","","","","","","","","","","","","","",""
"","html-keyboard-response","214","424932","0.0-340.0","6qjq2mpl","2560","1440","","","","","","","","","","","null","+","Fixation - short","","null","","","","","","","","","","","","","","","","",""
"","html-keyboard-response","215","425397","0.0-341.0","6qjq2mpl","","","","","","","","","","","","","465","bwe","Diagnostic trial","","f","","3","0","6","false","false","true","both pre & post","LEFT","LEFT","f","1","true","","","",""
"","html-keyboard-response","216","426155","0.0-344.0","6qjq2mpl","2560","1440","","","","","","","","","","","null","+","Fixation - short","","null","","","","","","","","","","","","","","","","",""
"","html-keyboard-response","217","426829","0.0-345.0","6qjq2mpl","","","","","","","","","","","","","674","cpt","Diagnostic trial","","j","","3","1","6","false","false","false","both pre & post","RIGHT","RIGHT","j","1","true","","","",""
"","html-keyboard-response","218","427593","0.0-348.0","6qjq2mpl","2560","1440","","","","","","","","","","","null","+","Fixation - short","","null","","","","","","","","","","","","","","","","",""
"","html-keyboard-response","219","428525","0.0-349.0","6qjq2mpl","","","","","","","","","","","","","932","cpt","Diagnostic trial","","f","","3","2","6","false","false","true","both pre & post","RIGHT","LEFT","f","1","false","","","",""
"","html-keyboard-response","220","429287","0.0-352.0","6qjq2mpl","2560","1440","","","","","","","","","","","null","+","Fixation - short","","null","","","","","","","","","","","","","","","","",""
"","html-keyboard-response","221","430381","0.0-353.0","6qjq2mpl","","","","","","","","","","","","","1093","bwe","Diagnostic trial","","j","","3","3","6","false","false","false","both pre & post","LEFT","RIGHT","j","1","false","","","",""
"","html-keyboard-response","222","431132","0.0-356.0","6qjq2mpl","2560","1440","","","","","","","","","","","null","+","Fixation - short","","null","","","","","","","","","","","","","","","","",""
"","html-keyboard-response","223","431813","0.0-357.0","6qjq2mpl","","","","","","","","","","","","","680","cpt","Diagnostic trial","","j","","3","4","6","false","false","false","both pre & post","RIGHT","RIGHT","j","1","true","","","",""
"","html-keyboard-response","224","432579","0.0-360.0","6qjq2mpl","2560","1440","","","","","","","","","","","null","+","Fixation - short","","null","","","","","","","","","","","","","","","","",""
"","html-keyboard-response","225","433077","0.0-361.0","6qjq2mpl","","","","","","","","","","","","","498","bwe","Diagnostic trial","","j","","3","5","6","false","false","false","both pre & post","LEFT","RIGHT","j","1","false","","","",""
"","html-keyboard-response","226","433829","0.0-364.0","6qjq2mpl","2560","1440","","","","","","","","","","","null","+","Fixation - short","","null","","","","","","","","","","","","","","","","",""
"","canvas-keyboard-response","227","435090","0.0-365.0","6qjq2mpl","","","","","","","","","","","","","null","Cue","Cue","","null","","3","5","","","false","","","","","","","","","","",""
"","html-keyboard-response","228","435853","0.0-366.0","6qjq2mpl","2560","1440","","","","","","","","","","","null","+","Fixation - short","","null","","","","","","","","","","","","","","","","",""
"","html-keyboard-response","229","436604","0.0-367.0","6qjq2mpl","","","","","","","","","","","","","751","bwe","Diagnostic trial","","j","","3","6","6","true","false","false","both pre & post","LEFT","RIGHT","j","1","false","","","",""
"","html-keyboard-response","230","437361","0.0-370.0","6qjq2mpl","2560","1440","","","","","","","","","","","null","+","Fixation - short","","null","","","","","","","","","","","","","","","","",""
"","html-keyboard-response","231","437968","0.0-371.0","6qjq2mpl","","","","","","","","","","","","","607","cpt","Diagnostic trial","","f","","3","7","6","true","false","true","both pre & post","RIGHT","LEFT","f","1","false","","","",""
"","html-keyboard-response","232","438729","0.0-374.0","6qjq2mpl","2560","1440","","","","","","","","","","","null","+","Fixation - short","","null","","","","","","","","","","","","","","","","",""
"","html-keyboard-response","233","439308","0.0-375.0","6qjq2mpl","","","","","","","","","","","","","579","bwe","Diagnostic trial","","j","","3","8","6","true","false","false","both pre & post","LEFT","RIGHT","j","1","false","","","",""
"","html-keyboard-response","234","440060","0.0-378.0","6qjq2mpl","2560","1440","","","","","","","","","","","null","+","Fixation - short","","null","","","","","","","","","","","","","","","","",""
"","html-keyboard-response","235","441124","0.0-379.0","6qjq2mpl","","","","","","","","","","","","","1064","cpt","Inducer trial","","f","","3","","","","true","","","","","j","0","","false","RIGHT","",""
"","call-function","236","441125","0.0-381.0-0.0","6qjq2mpl","","","","","","","","","","","","","","","","","","","","","","","","","","","","","","","","","",""
"","html-keyboard-response","237","441426","0.0-381.0-1.0","6qjq2mpl","2560","1440","","","","","","","","","","","null","Wrong","Feedback","","null","","","","","","","","","","","","","","","","",""
"","call-function","238","441427","0.0-381.0-2.0","6qjq2mpl","","","","","","","","","","","","","","","","","","","","","","","","","","","","","","","","","",""
"","html-keyboard-response","239","442187","0.0-382.0","6qjq2mpl","2560","1440","","","","","","","","","","","null","+","Fixation - short","","null","","","","","","","","","","","","","","","","",""
"","html-keyboard-response","240","446480","0.0-383.0","6qjq2mpl","","","","","","","","","","","","","4293","If hlb press LEFT | If edc press RIGHT","Inducer instructions",""," ","","4","","","","","","","","","","","","","","",""
"","html-keyboard-response","241","447243","0.0-384.0","6qjq2mpl","2560","1440","","","","","","","","","","","null","+","Fixation - short","","null","","","","","","","","","","","","","","","","",""
"","html-keyboard-response","242","447705","0.0-385.0","6qjq2mpl","","","","","","","","","","","","","462","hlb","Diagnostic trial","","f","","4","0","11","false","false","true","both pre & post","LEFT","LEFT","f","1","true","","","",""
"","html-keyboard-response","243","448461","0.0-388.0","6qjq2mpl","2560","1440","","","","","","","","","","","null","+","Fixation - short","","null","","","","","","","","","","","","","","","","",""
"","html-keyboard-response","244","449024","0.0-389.0","6qjq2mpl","","","","","","","","","","","","","562","edc","Diagnostic trial","","j","","4","1","11","false","false","false","both pre & post","RIGHT","RIGHT","j","1","true","","","",""
"","html-keyboard-response","245","449778","0.0-392.0","6qjq2mpl","2560","1440","","","","","","","","","","","null","+","Fixation - short","","null","","","","","","","","","","","","","","","","",""
"","html-keyboard-response","246","450201","0.0-393.0","6qjq2mpl","","","","","","","","","","","","","422","hlb","Diagnostic trial","","f","","4","2","11","false","false","true","both pre & post","LEFT","LEFT","f","1","true","","","",""
"","html-keyboard-response","247","450955","0.0-396.0","6qjq2mpl","2560","1440","","","","","","","","","","","null","+","Fixation - short","","null","","","","","","","","","","","","","","","","",""
"","html-keyboard-response","248","451396","0.0-397.0","6qjq2mpl","","","","","","","","","","","","","441","hlb","Diagnostic trial","","f","","4","3","11","false","false","true","both pre & post","LEFT","LEFT","f","1","true","","","",""
"","html-keyboard-response","249","452150","0.0-400.0","6qjq2mpl","2560","1440","","","","","","","","","","","null","+","Fixation - short","","null","","","","","","","","","","","","","","","","",""
"","html-keyboard-response","250","452512","0.0-401.0","6qjq2mpl","","","","","","","","","","","","","362","hlb","Diagnostic trial","","f","","4","4","11","false","false","true","both pre & post","LEFT","LEFT","f","1","true","","","",""
"","html-keyboard-response","251","453272","0.0-404.0","6qjq2mpl","2560","1440","","","","","","","","","","","null","+","Fixation - short","","null","","","","","","","","","","","","","","","","",""
"","html-keyboard-response","252","453705","0.0-405.0","6qjq2mpl","","","","","","","","","","","","","432","edc","Diagnostic trial","","f","","4","5","11","false","false","true","both pre & post","RIGHT","LEFT","f","1","false","","","",""
"","html-keyboard-response","253","454467","0.0-408.0","6qjq2mpl","2560","1440","","","","","","","","","","","null","+","Fixation - short","","null","","","","","","","","","","","","","","","","",""
"","html-keyboard-response","254","454952","0.0-409.0","6qjq2mpl","","","","","","","","","","","","","485","hlb","Diagnostic trial","","j","","4","6","11","false","false","false","both pre & post","LEFT","RIGHT","j","1","false","","","",""
"","html-keyboard-response","255","455704","0.0-412.0","6qjq2mpl","2560","1440","","","","","","","","","","","null","+","Fixation - short","","null","","","","","","","","","","","","","","","","",""
"","html-keyboard-response","256","456204","0.0-413.0","6qjq2mpl","","","","","","","","","","","","","501","hlb","Diagnostic trial","","j","","4","7","11","false","false","false","both pre & post","LEFT","RIGHT","j","1","false","","","",""
"","html-keyboard-response","257","456957","0.0-416.0","6qjq2mpl","2560","1440","","","","","","","","","","","null","+","Fixation - short","","null","","","","","","","","","","","","","","","","",""
"","html-keyboard-response","258","457388","0.0-417.0","6qjq2mpl","","","","","","","","","","","","","430","hlb","Diagnostic trial","","f","","4","8","11","false","false","true","both pre & post","LEFT","LEFT","f","1","true","","","",""
"","html-keyboard-response","259","458151","0.0-420.0","6qjq2mpl","2560","1440","","","","","","","","","","","null","+","Fixation - short","","null","","","","","","","","","","","","","","","","",""
"","html-keyboard-response","260","458996","0.0-421.0","6qjq2mpl","","","","","","","","","","","","","845","hlb","Diagnostic trial","","j","","4","9","11","false","false","false","both pre & post","LEFT","RIGHT","j","1","false","","","",""
"","html-keyboard-response","261","459748","0.0-424.0","6qjq2mpl","2560","1440","","","","","","","","","","","null","+","Fixation - short","","null","","","","","","","","","","","","","","","","",""
"","html-keyboard-response","262","460388","0.0-425.0","6qjq2mpl","","","","","","","","","","","","","640","hlb","Diagnostic trial","","j","","4","10","11","false","false","false","both pre & post","LEFT","RIGHT","j","1","false","","","",""
"","html-keyboard-response","263","461144","0.0-428.0","6qjq2mpl","2560","1440","","","","","","","","","","","null","+","Fixation - short","","null","","","","","","","","","","","","","","","","",""
"","canvas-keyboard-response","264","462399","0.0-429.0","6qjq2mpl","","","","","","","","","","","","","null","Cue","Cue","","null","","4","10","","","false","","","","","","","","","","",""
"","html-keyboard-response","265","463157","0.0-430.0","6qjq2mpl","2560","1440","","","","","","","","","","","null","+","Fixation - short","","null","","","","","","","","","","","","","","","","",""
"","html-keyboard-response","266","464007","0.0-431.0","6qjq2mpl","","","","","","","","","","","","","850","hlb","Diagnostic trial","","f","","4","11","11","true","false","true","both pre & post","LEFT","LEFT","f","1","true","","","",""
"","html-keyboard-response","267","464773","0.0-434.0","6qjq2mpl","2560","1440","","","","","","","","","","","null","+","Fixation - short","","null","","","","","","","","","","","","","","","","",""
"","html-keyboard-response","268","465296","0.0-435.0","6qjq2mpl","","","","","","","","","","","","","522","edc","Diagnostic trial","","j","","4","12","11","true","false","false","both pre & post","RIGHT","RIGHT","j","1","true","","","",""
"","html-keyboard-response","269","466056","0.0-438.0","6qjq2mpl","2560","1440","","","","","","","","","","","null","+","Fixation - short","","null","","","","","","","","","","","","","","","","",""
"","html-keyboard-response","270","466927","0.0-439.0","6qjq2mpl","","","","","","","","","","","","","871","hlb","Inducer trial","","f","","4","","","","true","","","","","f","1","","false","LEFT","",""
"","html-keyboard-response","271","467683","0.0-442.0","6qjq2mpl","2560","1440","","","","","","","","","","","null","+","Fixation - short","","null","","","","","","","","","","","","","","","","",""
"","html-keyboard-response","272","469800","0.0-443.0","6qjq2mpl","","","","","","","","","","","","","2116","If jey press LEFT | If pte press RIGHT","Inducer instructions",""," ","","5","","","","","","","","","","","","","","",""
"","html-keyboard-response","273","470559","0.0-444.0","6qjq2mpl","2560","1440","","","","","","","","","","","null","+","Fixation - short","","null","","","","","","","","","","","","","","","","",""
"","html-keyboard-response","274","471533","0.0-445.0","6qjq2mpl","","","","","","","","","","","","","974","jey","Diagnostic trial","","f","","5","0","4","false","false","false","both pre & post","LEFT","RIGHT","j","0","false","","","",""
"","call-function","275","471533","0.0-447.0-0.0","6qjq2mpl","","","","","","","","","","","","","","","","","","","","","","","","","","","","","","","","","",""
"","html-keyboard-response","276","471840","0.0-447.0-1.0","6qjq2mpl","2560","1440","","","","","","","","","","","null","Wrong","Feedback","","null","","","","","","","","","","","","","","","","",""
"","call-function","277","471840","0.0-447.0-2.0","6qjq2mpl","","","","","","","","","","","","","","","","","","","","","","","","","","","","","","","","","",""
"","html-keyboard-response","278","472599","0.0-448.0","6qjq2mpl","2560","1440","","","","","","","","","","","null","+","Fixation - short","","null","","","","","","","","","","","","","","","","",""
"","html-keyboard-response","279","473343","0.0-449.0","6qjq2mpl","","","","","","","","","","","","","743","pte","Diagnostic trial","","f","","5","1","4","false","false","true","both pre & post","RIGHT","LEFT","f","1","false","","","",""
"","html-keyboard-response","280","474100","0.0-452.0","6qjq2mpl","2560","1440","","","","","","","","","","","null","+","Fixation - short","","null","","","","","","","","","","","","","","","","",""
"","html-keyboard-response","281","474559","0.0-453.0","6qjq2mpl","","","","","","","","","","","","","459","jey","Diagnostic trial","","f","","5","2","4","false","false","true","both pre & post","LEFT","LEFT","f","1","true","","","",""
"","html-keyboard-response","282","475324","0.0-456.0","6qjq2mpl","2560","1440","","","","","","","","","","","null","+","Fixation - short","","null","","","","","","","","","","","","","","","","",""
"","html-keyboard-response","283","475808","0.0-457.0","6qjq2mpl","","","","","","","","","","","","","484","pte","Diagnostic trial","","j","","5","3","4","false","false","false","both pre & post","RIGHT","RIGHT","j","1","true","","","",""
"","html-keyboard-response","284","476560","0.0-460.0","6qjq2mpl","2560","1440","","","","","","","","","","","null","+","Fixation - short","","null","","","","","","","","","","","","","","","","",""
"","canvas-keyboard-response","285","477819","0.0-461.0","6qjq2mpl","","","","","","","","","","","","","null","Cue","Cue","","null","","5","3","","","false","","","","","","","","","","",""
"","html-keyboard-response","286","478582","0.0-462.0","6qjq2mpl","2560","1440","","","","","","","","","","","null","+","Fixation - short","","null","","","","","","","","","","","","","","","","",""
"","html-keyboard-response","287","479699","0.0-463.0","6qjq2mpl","","","","","","","","","","","","","1116","pte","Diagnostic trial","","f","","5","4","4","true","false","true","both pre & post","RIGHT","LEFT","f","1","false","","","",""
"","html-keyboard-response","288","480457","0.0-466.0","6qjq2mpl","2560","1440","","","","","","","","","","","null","+","Fixation - short","","null","","","","","","","","","","","","","","","","",""
"","html-keyboard-response","289","481651","0.0-467.0","6qjq2mpl","","","","","","","","","","","","","1193","jey","Diagnostic trial","","f","","5","5","4","true","false","true","both pre & post","LEFT","LEFT","f","1","true","","","",""
"","html-keyboard-response","290","482415","0.0-470.0","6qjq2mpl","2560","1440","","","","","","","","","","","null","+","Fixation - short","","null","","","","","","","","","","","","","","","","",""
"","html-keyboard-response","291","482838","0.0-471.0","6qjq2mpl","","","","","","","","","","","","","423","jey","Diagnostic trial","","f","","5","6","4","true","false","true","both pre & post","LEFT","LEFT","f","1","true","","","",""
"","html-keyboard-response","292","483597","0.0-474.0","6qjq2mpl","2560","1440","","","","","","","","","","","null","+","Fixation - short","","null","","","","","","","","","","","","","","","","",""
"","html-keyboard-response","293","484106","0.0-475.0","6qjq2mpl","","","","","","","","","","","","","509","pte","Diagnostic trial","","f","","5","7","4","true","false","true","both pre & post","RIGHT","LEFT","f","1","false","","","",""
"","html-keyboard-response","294","484871","0.0-478.0","6qjq2mpl","2560","1440","","","","","","","","","","","null","+","Fixation - short","","null","","","","","","","","","","","","","","","","",""
"","html-keyboard-response","295","485414","0.0-479.0","6qjq2mpl","","","","","","","","","","","","","543","jey","Inducer trial","","f","","5","","","","true","","","","","f","1","","false","LEFT","",""
"","html-keyboard-response","296","486168","0.0-482.0","6qjq2mpl","2560","1440","","","","","","","","","","","null","+","Fixation - short","","null","","","","","","","","","","","","","","","","",""
"","html-keyboard-response","297","488498","0.0-483.0","6qjq2mpl","","","","","","","","","","","","","2330","If wwt press LEFT | If dof press RIGHT","Inducer instructions",""," ","","6","","","","","","","","","","","","","","",""
"","html-keyboard-response","298","489255","0.0-484.0","6qjq2mpl","2560","1440","","","","","","","","","","","null","+","Fixation - short","","null","","","","","","","","","","","","","","","","",""
"","html-keyboard-response","299","490090","0.0-485.0","6qjq2mpl","","","","","","","","","","","","","835","dof","Diagnostic trial","","f","","6","0","4","false","false","true","both pre & post","RIGHT","LEFT","f","1","false","","","",""
"","html-keyboard-response","300","490850","0.0-488.0","6qjq2mpl","2560","1440","","","","","","","","","","","null","+","Fixation - short","","null","","","","","","","","","","","","","","","","",""
"","html-keyboard-response","301","491407","0.0-489.0","6qjq2mpl","","","","","","","","","","","","","557","dof","Diagnostic trial","","f","","6","1","4","false","false","true","both pre & post","RIGHT","LEFT","f","1","false","","","",""
"","html-keyboard-response","302","492166","0.0-492.0","6qjq2mpl","2560","1440","","","","","","","","","","","null","+","Fixation - short","","null","","","","","","","","","","","","","","","","",""
"","html-keyboard-response","303","492680","0.0-493.0","6qjq2mpl","","","","","","","","","","","","","514","dof","Diagnostic trial","","j","","6","2","4","false","false","false","both pre & post","RIGHT","RIGHT","j","1","true","","","",""
"","html-keyboard-response","304","493442","0.0-496.0","6qjq2mpl","2560","1440","","","","","","","","","","","null","+","Fixation - short","","null","","","","","","","","","","","","","","","","",""
"","html-keyboard-response","305","493962","0.0-497.0","6qjq2mpl","","","","","","","","","","","","","520","dof","Diagnostic trial","","f","","6","3","4","false","false","true","both pre & post","RIGHT","LEFT","f","1","false","","","",""
"","html-keyboard-response","306","494718","0.0-500.0","6qjq2mpl","2560","1440","","","","","","","","","","","null","+","Fixation - short","","null","","","","","","","","","","","","","","","","",""
"","canvas-keyboard-response","307","495975","0.0-501.0","6qjq2mpl","","","","","","","","","","","","","null","Cue","Cue","","null","","6","3","","","false","","","","","","","","","","",""
"","html-keyboard-response","308","496734","0.0-502.0","6qjq2mpl","2560","1440","","","","","","","","","","","null","+","Fixation - short","","null","","","","","","","","","","","","","","","","",""
"","html-keyboard-response","309","497319","0.0-503.0","6qjq2mpl","","","","","","","","","","","","","584","dof","Diagnostic trial","","f","","6","4","4","true","false","true","both pre & post","RIGHT","LEFT","f","1","false","","","",""
"","html-keyboard-response","310","498076","0.0-506.0","6qjq2mpl","2560","1440","","","","","","","","","","","null","+","Fixation - short","","null","","","","","","","","","","","","","","","","",""
"","html-keyboard-response","311","498710","0.0-507.0","6qjq2mpl","","","","","","","","","","","","","634","dof","Diagnostic trial","","j","","6","5","4","true","false","false","both pre & post","RIGHT","RIGHT","j","1","true","","","",""
"","html-keyboard-response","312","499467","0.0-510.0","6qjq2mpl","2560","1440","","","","","","","","","","","null","+","Fixation - short","","null","","","","","","","","","","","","","","","","",""
"","html-keyboard-response","313","500125","0.0-511.0","6qjq2mpl","","","","","","","","","","","","","657","wwt","Diagnostic trial","","j","","6","6","4","true","false","false","both pre & post","LEFT","RIGHT","j","1","false","","","",""
"","html-keyboard-response","314","500882","0.0-514.0","6qjq2mpl","2560","1440","","","","","","","","","","","null","+","Fixation - short","","null","","","","","","","","","","","","","","","","",""
"","html-keyboard-response","315","501426","0.0-515.0","6qjq2mpl","","","","","","","","","","","","","543","dof","Diagnostic trial","","f","","6","7","4","true","false","true","both pre & post","RIGHT","LEFT","f","1","false","","","",""
"","html-keyboard-response","316","502187","0.0-518.0","6qjq2mpl","2560","1440","","","","","","","","","","","null","+","Fixation - short","","null","","","","","","","","","","","","","","","","",""
"","html-keyboard-response","317","502725","0.0-519.0","6qjq2mpl","","","","","","","","","","","","","538","wwt","Inducer trial","","f","","6","","","","true","","","","","f","1","","false","LEFT","",""
"","html-keyboard-response","318","503490","0.0-522.0","6qjq2mpl","2560","1440","","","","","","","","","","","null","+","Fixation - short","","null","","","","","","","","","","","","","","","","",""
"","html-keyboard-response","319","504889","0.0-523.0","6qjq2mpl","","","","","","","","","","","","","1400","If sdw press LEFT | If anz press RIGHT","Inducer instructions",""," ","","7","","","","","","","","","","","","","","",""
"","html-keyboard-response","320","505650","0.0-524.0","6qjq2mpl","2560","1440","","","","","","","","","","","null","+","Fixation - short","","null","","","","","","","","","","","","","","","","",""
"","html-keyboard-response","321","506505","0.0-525.0","6qjq2mpl","","","","","","","","","","","","","855","sdw","Diagnostic trial","","j","","7","0","5","false","false","false","both pre & post","LEFT","RIGHT","j","1","false","","","",""
"","html-keyboard-response","322","507271","0.0-528.0","6qjq2mpl","2560","1440","","","","","","","","","","","null","+","Fixation - short","","null","","","","","","","","","","","","","","","","",""
"","html-keyboard-response","323","507821","0.0-529.0","6qjq2mpl","","","","","","","","","","","","","550","anz","Diagnostic trial","","j","","7","1","5","false","false","false","both pre & post","RIGHT","RIGHT","j","1","true","","","",""
"","html-keyboard-response","324","508586","0.0-532.0","6qjq2mpl","2560","1440","","","","","","","","","","","null","+","Fixation - short","","null","","","","","","","","","","","","","","","","",""
"","html-keyboard-response","325","508989","0.0-533.0","6qjq2mpl","","","","","","","","","","","","","403","sdw","Diagnostic trial","","f","","7","2","5","false","false","true","both pre & post","LEFT","LEFT","f","1","true","","","",""
"","html-keyboard-response","326","509746","0.0-536.0","6qjq2mpl","2560","1440","","","","","","","","","","","null","+","Fixation - short","","null","","","","","","","","","","","","","","","","",""
"","html-keyboard-response","327","510358","0.0-537.0","6qjq2mpl","","","","","","","","","","","","","612","sdw","Diagnostic trial","","j","","7","3","5","false","false","false","both pre & post","LEFT","RIGHT","j","1","false","","","",""
"","html-keyboard-response","328","511122","0.0-540.0","6qjq2mpl","2560","1440","","","","","","","","","","","null","+","Fixation - short","","null","","","","","","","","","","","","","","","","",""
"","html-keyboard-response","329","511625","0.0-541.0","6qjq2mpl","","","","","","","","","","","","","504","anz","Diagnostic trial","","j","","7","4","5","false","false","false","both pre & post","RIGHT","RIGHT","j","1","true","","","",""
"","html-keyboard-response","330","512378","0.0-544.0","6qjq2mpl","2560","1440","","","","","","","","","","","null","+","Fixation - short","","null","","","","","","","","","","","","","","","","",""
"","canvas-keyboard-response","331","513633","0.0-545.0","6qjq2mpl","","","","","","","","","","","","","null","Cue","Cue","","null","","7","4","","","false","","","","","","","","","","",""
"","html-keyboard-response","332","514390","0.0-546.0","6qjq2mpl","2560","1440","","","","","","","","","","","null","+","Fixation - short","","null","","","","","","","","","","","","","","","","",""
"","html-keyboard-response","333","515006","0.0-547.0","6qjq2mpl","","","","","","","","","","","","","616","sdw","Diagnostic trial","","f","","7","5","5","true","false","true","both pre & post","LEFT","LEFT","f","1","true","","","",""
"","html-keyboard-response","334","515761","0.0-550.0","6qjq2mpl","2560","1440","","","","","","","","","","","null","+","Fixation - short","","null","","","","","","","","","","","","","","","","",""
"","html-keyboard-response","335","516285","0.0-551.0","6qjq2mpl","","","","","","","","","","","","","525","anz","Diagnostic trial","","j","","7","6","5","true","false","false","both pre & post","RIGHT","RIGHT","j","1","true","","","",""
"","html-keyboard-response","336","517046","0.0-554.0","6qjq2mpl","2560","1440","","","","","","","","","","","null","+","Fixation - short","","null","","","","","","","","","","","","","","","","",""
"","html-keyboard-response","337","517609","0.0-555.0","6qjq2mpl","","","","","","","","","","","","","563","sdw","Diagnostic trial","","j","","7","7","5","true","false","false","both pre & post","LEFT","RIGHT","j","1","false","","","",""
"","html-keyboard-response","338","518367","0.0-558.0","6qjq2mpl","2560","1440","","","","","","","","","","","null","+","Fixation - short","","null","","","","","","","","","","","","","","","","",""
"","html-keyboard-response","339","518809","0.0-559.0","6qjq2mpl","","","","","","","","","","","","","441","sdw","Diagnostic trial","","j","","7","8","5","true","false","false","both pre & post","LEFT","RIGHT","j","1","false","","","",""
"","html-keyboard-response","340","519562","0.0-562.0","6qjq2mpl","2560","1440","","","","","","","","","","","null","+","Fixation - short","","null","","","","","","","","","","","","","","","","",""
"","html-keyboard-response","341","520589","0.0-563.0","6qjq2mpl","","","","","","","","","","","","","1027","anz","Inducer trial","","j","","7","","","","true","","","","","j","1","","false","RIGHT","",""
"","html-keyboard-response","342","521346","0.0-566.0","6qjq2mpl","2560","1440","","","","","","","","","","","null","+","Fixation - short","","null","","","","","","","","","","","","","","","","",""
"","html-keyboard-response","343","522848","0.0-567.0","6qjq2mpl","","","","","","","","","","","","","1503","If pmf press LEFT | If otr press RIGHT","Inducer instructions",""," ","","8","","","","","","","","","","","","","","",""
"","html-keyboard-response","344","523607","0.0-568.0","6qjq2mpl","2560","1440","","","","","","","","","","","null","+","Fixation - short","","null","","","","","","","","","","","","","","","","",""
"","html-keyboard-response","345","524444","0.0-569.0","6qjq2mpl","","","","","","","","","","","","","837","pmf","Diagnostic trial","","j","","8","0","9","false","false","false","both pre & post","LEFT","RIGHT","j","1","false","","","",""
"","html-keyboard-response","346","525201","0.0-572.0","6qjq2mpl","2560","1440","","","","","","","","","","","null","+","Fixation - short","","null","","","","","","","","","","","","","","","","",""
"","html-keyboard-response","347","525717","0.0-573.0","6qjq2mpl","","","","","","","","","","","","","516","pmf","Diagnostic trial","","f","","8","1","9","false","false","true","both pre & post","LEFT","LEFT","f","1","true","","","",""
"","html-keyboard-response","348","526473","0.0-576.0","6qjq2mpl","2560","1440","","","","","","","","","","","null","+","Fixation - short","","null","","","","","","","","","","","","","","","","",""
"","html-keyboard-response","349","526976","0.0-577.0","6qjq2mpl","","","","","","","","","","","","","503","otr","Diagnostic trial","","f","","8","2","9","false","false","true","both pre & post","RIGHT","LEFT","f","1","false","","","",""
"","html-keyboard-response","350","527737","0.0-580.0","6qjq2mpl","2560","1440","","","","","","","","","","","null","+","Fixation - short","","null","","","","","","","","","","","","","","","","",""
"","html-keyboard-response","351","528132","0.0-581.0","6qjq2mpl","","","","","","","","","","","","","394","otr","Diagnostic trial","","f","","8","3","9","false","false","true","both pre & post","RIGHT","LEFT","f","1","false","","","",""
"","html-keyboard-response","352","528884","0.0-584.0","6qjq2mpl","2560","1440","","","","","","","","","","","null","+","Fixation - short","","null","","","","","","","","","","","","","","","","",""
"","html-keyboard-response","353","529253","0.0-585.0","6qjq2mpl","","","","","","","","","","","","","369","pmf","Diagnostic trial","","f","","8","4","9","false","false","true","both pre & post","LEFT","LEFT","f","1","true","","","",""
"","html-keyboard-response","354","530018","0.0-588.0","6qjq2mpl","2560","1440","","","","","","","","","","","null","+","Fixation - short","","null","","","","","","","","","","","","","","","","",""
"","html-keyboard-response","355","530529","0.0-589.0","6qjq2mpl","","","","","","","","","","","","","511","otr","Diagnostic trial","","j","","8","5","9","false","false","false","both pre & post","RIGHT","RIGHT","j","1","true","","","",""
"","html-keyboard-response","356","531286","0.0-592.0","6qjq2mpl","2560","1440","","","","","","","","","","","null","+","Fixation - short","","null","","","","","","","","","","","","","","","","",""
"","html-keyboard-response","357","532068","0.0-593.0","6qjq2mpl","","","","","","","","","","","","","782","pmf","Diagnostic trial","","j","","8","6","9","false","false","false","both pre & post","LEFT","RIGHT","j","1","false","","","",""
"","html-keyboard-response","358","532832","0.0-596.0","6qjq2mpl","2560","1440","","","","","","","","","","","null","+","Fixation - short","","null","","","","","","","","","","","","","","","","",""
"","html-keyboard-response","359","533413","0.0-597.0","6qjq2mpl","","","","","","","","","","","","","580","otr","Diagnostic trial","","f","","8","7","9","false","false","true","both pre & post","RIGHT","LEFT","f","1","false","","","",""
"","html-keyboard-response","360","534168","0.0-600.0","6qjq2mpl","2560","1440","","","","","","","","","","","null","+","Fixation - short","","null","","","","","","","","","","","","","","","","",""
"","html-keyboard-response","361","534824","0.0-601.0","6qjq2mpl","","","","","","","","","","","","","657","pmf","Diagnostic trial","","j","","8","8","9","false","false","false","both pre & post","LEFT","RIGHT","j","1","false","","","",""
"","html-keyboard-response","362","535575","0.0-604.0","6qjq2mpl","2560","1440","","","","","","","","","","","null","+","Fixation - short","","null","","","","","","","","","","","","","","","","",""
"","canvas-keyboard-response","363","536831","0.0-605.0","6qjq2mpl","","","","","","","","","","","","","null","Cue","Cue","","null","","8","8","","","false","","","","","","","","","","",""
"","html-keyboard-response","364","537593","0.0-606.0","6qjq2mpl","2560","1440","","","","","","","","","","","null","+","Fixation - short","","null","","","","","","","","","","","","","","","","",""
"","html-keyboard-response","365","538485","0.0-607.0","6qjq2mpl","","","","","","","","","","","","","892","otr","Diagnostic trial","","f","","8","9","9","true","false","true","both pre & post","RIGHT","LEFT","f","1","false","","","",""
"","html-keyboard-response","366","539243","0.0-610.0","6qjq2mpl","2560","1440","","","","","","","","","","","null","+","Fixation - short","","null","","","","","","","","","","","","","","","","",""
"","html-keyboard-response","367","540712","0.0-611.0","6qjq2mpl","","","","","","","","","","","","","1469","otr","Inducer trial","","j","","8","","","","true","","","","","j","1","","false","RIGHT","",""
"","html-keyboard-response","368","541465","0.0-614.0","6qjq2mpl","2560","1440","","","","","","","","","","","null","+","Fixation - short","","null","","","","","","","","","","","","","","","","",""
"","html-keyboard-response","369","542220","0.0-615.0","6qjq2mpl","","","","","","","","","","","","","755","If tkb press LEFT | If feg press RIGHT","Inducer instructions",""," ","","9","","","","","","","","","","","","","","",""
"","html-keyboard-response","370","542983","0.0-616.0","6qjq2mpl","2560","1440","","","","","","","","","","","null","+","Fixation - short","","null","","","","","","","","","","","","","","","","",""
"","html-keyboard-response","371","543907","0.0-617.0","6qjq2mpl","","","","","","","","","","","","","924","tkb","Diagnostic trial","","j","","9","0","6","false","false","false","both pre & post","LEFT","RIGHT","j","1","false","","","",""
"","html-keyboard-response","372","544659","0.0-620.0","6qjq2mpl","2560","1440","","","","","","","","","","","null","+","Fixation - short","","null","","","","","","","","","","","","","","","","",""
"","html-keyboard-response","373","545152","0.0-621.0","6qjq2mpl","","","","","","","","","","","","","493","feg","Diagnostic trial","","j","","9","1","6","false","false","false","both pre & post","RIGHT","RIGHT","j","1","true","","","",""
"","html-keyboard-response","374","545917","0.0-624.0","6qjq2mpl","2560","1440","","","","","","","","","","","null","+","Fixation - short","","null","","","","","","","","","","","","","","","","",""
"","html-keyboard-response","375","546355","0.0-625.0","6qjq2mpl","","","","","","","","","","","","","438","feg","Diagnostic trial","","j","","9","2","6","false","false","false","both pre & post","RIGHT","RIGHT","j","1","true","","","",""
"","html-keyboard-response","376","547107","0.0-628.0","6qjq2mpl","2560","1440","","","","","","","","","","","null","+","Fixation - short","","null","","","","","","","","","","","","","","","","",""
"","html-keyboard-response","377","547588","0.0-629.0","6qjq2mpl","","","","","","","","","","","","","481","tkb","Diagnostic trial","","j","","9","3","6","false","false","false","both pre & post","LEFT","RIGHT","j","1","false","","","",""
"","html-keyboard-response","378","548349","0.0-632.0","6qjq2mpl","2560","1440","","","","","","","","","","","null","+","Fixation - short","","null","","","","","","","","","","","","","","","","",""
"","html-keyboard-response","379","548948","0.0-633.0","6qjq2mpl","","","","","","","","","","","","","599","tkb","Diagnostic trial","","f","","9","4","6","false","false","true","both pre & post","LEFT","LEFT","f","1","true","","","",""
"","html-keyboard-response","380","549711","0.0-636.0","6qjq2mpl","2560","1440","","","","","","","","","","","null","+","Fixation - short","","null","","","","","","","","","","","","","","","","",""
"","html-keyboard-response","381","550263","0.0-637.0","6qjq2mpl","","","","","","","","","","","","","552","feg","Diagnostic trial","","f","","9","5","6","false","false","true","both pre & post","RIGHT","LEFT","f","1","false","","","",""
"","html-keyboard-response","382","551015","0.0-640.0","6qjq2mpl","2560","1440","","","","","","","","","","","null","+","Fixation - short","","null","","","","","","","","","","","","","","","","",""
"","canvas-keyboard-response","383","552270","0.0-641.0","6qjq2mpl","","","","","","","","","","","","","null","Cue","Cue","","null","","9","5","","","false","","","","","","","","","","",""
"","html-keyboard-response","384","553033","0.0-642.0","6qjq2mpl","2560","1440","","","","","","","","","","","null","+","Fixation - short","","null","","","","","","","","","","","","","","","","",""
"","html-keyboard-response","385","553584","0.0-643.0","6qjq2mpl","","","","","","","","","","","","","551","feg","Diagnostic trial","","j","","9","6","6","true","false","false","both pre & post","RIGHT","RIGHT","j","1","true","","","",""
"","html-keyboard-response","386","554347","0.0-646.0","6qjq2mpl","2560","1440","","","","","","","","","","","null","+","Fixation - short","","null","","","","","","","","","","","","","","","","",""
"","html-keyboard-response","387","554856","0.0-647.0","6qjq2mpl","","","","","","","","","","","","","508","tkb","Diagnostic trial","","f","","9","7","6","true","false","true","both pre & post","LEFT","LEFT","f","1","true","","","",""
"","html-keyboard-response","388","555622","0.0-650.0","6qjq2mpl","2560","1440","","","","","","","","","","","null","+","Fixation - short","","null","","","","","","","","","","","","","","","","",""
"","html-keyboard-response","389","556288","0.0-651.0","6qjq2mpl","","","","","","","","","","","","","666","feg","Diagnostic trial","","f","","9","8","6","true","false","true","both pre & post","RIGHT","LEFT","f","1","false","","","",""
"","html-keyboard-response","390","557047","0.0-654.0","6qjq2mpl","2560","1440","","","","","","","","","","","null","+","Fixation - short","","null","","","","","","","","","","","","","","","","",""
"","html-keyboard-response","391","557560","0.0-655.0","6qjq2mpl","","","","","","","","","","","","","513","feg","Diagnostic trial","","f","","9","9","6","true","false","true","both pre & post","RIGHT","LEFT","f","1","false","","","",""
"","html-keyboard-response","392","558321","0.0-658.0","6qjq2mpl","2560","1440","","","","","","","","","","","null","+","Fixation - short","","null","","","","","","","","","","","","","","","","",""
"","html-keyboard-response","393","558887","0.0-659.0","6qjq2mpl","","","","","","","","","","","","","565","feg","Inducer trial","","j","","9","","","","true","","","","","j","1","","false","RIGHT","",""
"","html-keyboard-response","394","559641","0.0-662.0","6qjq2mpl","2560","1440","","","","","","","","","","","null","+","Fixation - short","","null","","","","","","","","","","","","","","","","",""
"","html-keyboard-response","395","561108","0.0-663.0","6qjq2mpl","","","","","","","","","","","","","1466","If uen press LEFT | If fja press RIGHT","Inducer instructions",""," ","","10","","","","","","","","","","","","","","",""
"","html-keyboard-response","396","561858","0.0-664.0","6qjq2mpl","2560","1440","","","","","","","","","","","null","+","Fixation - short","","null","","","","","","","","","","","","","","","","",""
"","html-keyboard-response","397","562499","0.0-665.0","6qjq2mpl","","","","","","","","","","","","","641","uen","Diagnostic trial","","f","","10","0","6","false","false","true","both pre & post","LEFT","LEFT","f","1","true","","","",""
"","html-keyboard-response","398","563254","0.0-668.0","6qjq2mpl","2560","1440","","","","","","","","","","","null","+","Fixation - short","","null","","","","","","","","","","","","","","","","",""
"","html-keyboard-response","399","563707","0.0-669.0","6qjq2mpl","","","","","","","","","","","","","452","fja","Diagnostic trial","","j","","10","1","6","false","false","false","both pre & post","RIGHT","RIGHT","j","1","true","","","",""
"","html-keyboard-response","400","564461","0.0-672.0","6qjq2mpl","2560","1440","","","","","","","","","","","null","+","Fixation - short","","null","","","","","","","","","","","","","","","","",""
"","html-keyboard-response","401","564935","0.0-673.0","6qjq2mpl","","","","","","","","","","","","","474","fja","Diagnostic trial","","j","","10","2","6","false","false","false","both pre & post","RIGHT","RIGHT","j","1","true","","","",""
"","html-keyboard-response","402","565687","0.0-676.0","6qjq2mpl","2560","1440","","","","","","","","","","","null","+","Fixation - short","","null","","","","","","","","","","","","","","","","",""
"","html-keyboard-response","403","566110","0.0-677.0","6qjq2mpl","","","","","","","","","","","","","423","fja","Diagnostic trial","","j","","10","3","6","false","false","false","both pre & post","RIGHT","RIGHT","j","1","true","","","",""
"","html-keyboard-response","404","566873","0.0-680.0","6qjq2mpl","2560","1440","","","","","","","","","","","null","+","Fixation - short","","null","","","","","","","","","","","","","","","","",""
"","html-keyboard-response","405","567242","0.0-681.0","6qjq2mpl","","","","","","","","","","","","","369","uen","Diagnostic trial","","f","","10","4","6","false","false","true","both pre & post","LEFT","LEFT","f","1","true","","","",""
"","html-keyboard-response","406","568008","0.0-684.0","6qjq2mpl","2560","1440","","","","","","","","","","","null","+","Fixation - short","","null","","","","","","","","","","","","","","","","",""
"","html-keyboard-response","407","568474","0.0-685.0","6qjq2mpl","","","","","","","","","","","","","466","fja","Diagnostic trial","","j","","10","5","6","false","false","false","both pre & post","RIGHT","RIGHT","j","1","true","","","",""
"","html-keyboard-response","408","569235","0.0-688.0","6qjq2mpl","2560","1440","","","","","","","","","","","null","+","Fixation - short","","null","","","","","","","","","","","","","","","","",""
"","canvas-keyboard-response","409","570491","0.0-689.0","6qjq2mpl","","","","","","","","","","","","","null","Cue","Cue","","null","","10","5","","","false","","","","","","","","","","",""
"","html-keyboard-response","410","571252","0.0-690.0","6qjq2mpl","2560","1440","","","","","","","","","","","null","+","Fixation - short","","null","","","","","","","","","","","","","","","","",""
"","html-keyboard-response","411","571787","0.0-691.0","6qjq2mpl","","","","","","","","","","","","","534","fja","Diagnostic trial","","j","","10","6","6","true","false","false","both pre & post","RIGHT","RIGHT","j","1","true","","","",""
"","html-keyboard-response","412","572544","0.0-694.0","6qjq2mpl","2560","1440","","","","","","","","","","","null","+","Fixation - short","","null","","","","","","","","","","","","","","","","",""
"","html-keyboard-response","413","573682","0.0-695.0","6qjq2mpl","","","","","","","","","","","","","1138","fja","Inducer trial","","j","","10","","","","true","","","","","j","1","","false","RIGHT","",""
"","html-keyboard-response","414","574437","0.0-698.0","6qjq2mpl","2560","1440","","","","","","","","","","","null","+","Fixation - short","","null","","","","","","","","","","","","","","","","",""
"","html-keyboard-response","415","575218","0.0-699.0","6qjq2mpl","","","","","","","","","","","","","781","If yrp press LEFT | If jcr press RIGHT","Inducer instructions",""," ","","11","","","","","","","","","","","","","","",""
"","html-keyboard-response","416","575983","0.0-700.0","6qjq2mpl","2560","1440","","","","","","","","","","","null","+","Fixation - short","","null","","","","","","","","","","","","","","","","",""
"","html-keyboard-response","417","576478","0.0-701.0","6qjq2mpl","","","","","","","","","","","","","495","jcr","Diagnostic trial","","f","","11","0","9","false","false","true","both pre & post","RIGHT","LEFT","f","1","false","","","",""
"","html-keyboard-response","418","577233","0.0-704.0","6qjq2mpl","2560","1440","","","","","","","","","","","null","+","Fixation - short","","null","","","","","","","","","","","","","","","","",""
"","html-keyboard-response","419","577703","0.0-705.0","6qjq2mpl","","","","","","","","","","","","","469","yrp","Diagnostic trial","","j","","11","1","9","false","false","false","both pre & post","LEFT","RIGHT","j","1","false","","","",""
"","html-keyboard-response","420","578464","0.0-708.0","6qjq2mpl","2560","1440","","","","","","","","","","","null","+","Fixation - short","","null","","","","","","","","","","","","","","","","",""
"","html-keyboard-response","421","578959","0.0-709.0","6qjq2mpl","","","","","","","","","","","","","495","jcr","Diagnostic trial","","f","","11","2","9","false","false","true","both pre & post","RIGHT","LEFT","f","1","false","","","",""
"","html-keyboard-response","422","579715","0.0-712.0","6qjq2mpl","2560","1440","","","","","","","","","","","null","+","Fixation - short","","null","","","","","","","","","","","","","","","","",""
"","html-keyboard-response","423","580503","0.0-713.0","6qjq2mpl","","","","","","","","","","","","","787","jcr","Diagnostic trial","","j","","11","3","9","false","false","false","both pre & post","RIGHT","RIGHT","j","1","true","","","",""
"","html-keyboard-response","424","581260","0.0-716.0","6qjq2mpl","2560","1440","","","","","","","","","","","null","+","Fixation - short","","null","","","","","","","","","","","","","","","","",""
"","html-keyboard-response","425","581738","0.0-717.0","6qjq2mpl","","","","","","","","","","","","","478","yrp","Diagnostic trial","","f","","11","4","9","false","false","true","both pre & post","LEFT","LEFT","f","1","true","","","",""
"","html-keyboard-response","426","582498","0.0-720.0","6qjq2mpl","2560","1440","","","","","","","","","","","null","+","Fixation - short","","null","","","","","","","","","","","","","","","","",""
"","html-keyboard-response","427","582966","0.0-721.0","6qjq2mpl","","","","","","","","","","","","","468","jcr","Diagnostic trial","","f","","11","5","9","false","false","true","both pre & post","RIGHT","LEFT","f","1","false","","","",""
"","html-keyboard-response","428","583725","0.0-724.0","6qjq2mpl","2560","1440","","","","","","","","","","","null","+","Fixation - short","","null","","","","","","","","","","","","","","","","",""
"","html-keyboard-response","429","584322","0.0-725.0","6qjq2mpl","","","","","","","","","","","","","597","jcr","Diagnostic trial","","j","","11","6","9","false","false","false","both pre & post","RIGHT","RIGHT","j","1","true","","","",""
"","html-keyboard-response","430","585087","0.0-728.0","6qjq2mpl","2560","1440","","","","","","","","","","","null","+","Fixation - short","","null","","","","","","","","","","","","","","","","",""
"","html-keyboard-response","431","585582","0.0-729.0","6qjq2mpl","","","","","","","","","","","","","495","jcr","Diagnostic trial","","f","","11","7","9","false","false","true","both pre & post","RIGHT","LEFT","f","1","false","","","",""
"","html-keyboard-response","432","586343","0.0-732.0","6qjq2mpl","2560","1440","","","","","","","","","","","null","+","Fixation - short","","null","","","","","","","","","","","","","","","","",""
"","html-keyboard-response","433","586865","0.0-733.0","6qjq2mpl","","","","","","","","","","","","","521","yrp","Diagnostic trial","","f","","11","8","9","false","false","true","both pre & post","LEFT","LEFT","f","1","true","","","",""
"","html-keyboard-response","434","587618","0.0-736.0","6qjq2mpl","2560","1440","","","","","","","","","","","null","+","Fixation - short","","null","","","","","","","","","","","","","","","","",""
"","canvas-keyboard-response","435","588869","0.0-737.0","6qjq2mpl","","","","","","","","","","","","","null","Cue","Cue","","null","","11","8","","","false","","","","","","","","","","",""
"","html-keyboard-response","436","589627","0.0-738.0","6qjq2mpl","2560","1440","","","","","","","","","","","null","+","Fixation - short","","null","","","","","","","","","","","","","","","","",""
"","html-keyboard-response","437","590229","0.0-739.0","6qjq2mpl","","","","","","","","","","","","","601","yrp","Diagnostic trial","","f","","11","9","9","true","false","true","both pre & post","LEFT","LEFT","f","1","true","","","",""
"","html-keyboard-response","438","590989","0.0-742.0","6qjq2mpl","2560","1440","","","","","","","","","","","null","+","Fixation - short","","null","","","","","","","","","","","","","","","","",""
"","html-keyboard-response","439","591426","0.0-743.0","6qjq2mpl","","","","","","","","","","","","","436","yrp","Diagnostic trial","","f","","11","10","9","true","false","true","both pre & post","LEFT","LEFT","f","1","true","","","",""
"","html-keyboard-response","440","592183","0.0-746.0","6qjq2mpl","2560","1440","","","","","","","","","","","null","+","Fixation - short","","null","","","","","","","","","","","","","","","","",""
"","html-keyboard-response","441","593170","0.0-747.0","6qjq2mpl","","","","","","","","","","","","","986","yrp","Inducer trial","","j","","11","","","","true","","","","","f","0","","false","LEFT","",""
"","call-function","442","593170","0.0-749.0-0.0","6qjq2mpl","","","","","","","","","","","","","","","","","","","","","","","","","","","","","","","","","",""
"","html-keyboard-response","443","593472","0.0-749.0-1.0","6qjq2mpl","2560","1440","","","","","","","","","","","null","Wrong","Feedback","","null","","","","","","","","","","","","","","","","",""
"","call-function","444","593472","0.0-749.0-2.0","6qjq2mpl","","","","","","","","","","","","","","","","","","","","","","","","","","","","","","","","","",""
"","html-keyboard-response","445","594231","0.0-750.0","6qjq2mpl","2560","1440","","","","","","","","","","","null","+","Fixation - short","","null","","","","","","","","","","","","","","","","",""
"","html-keyboard-response","446","596081","0.0-751.0","6qjq2mpl","","","","","","","","","","","","","1850","If gfm press LEFT | If cta press RIGHT","Inducer instructions",""," ","","12","","","","","","","","","","","","","","",""
"","html-keyboard-response","447","596836","0.0-752.0","6qjq2mpl","2560","1440","","","","","","","","","","","null","+","Fixation - short","","null","","","","","","","","","","","","","","","","",""
"","html-keyboard-response","448","597741","0.0-753.0","6qjq2mpl","","","","","","","","","","","","","905","cta","Diagnostic trial","","j","","12","0","4","false","false","false","both pre & post","RIGHT","RIGHT","j","1","true","","","",""
"","html-keyboard-response","449","598507","0.0-756.0","6qjq2mpl","2560","1440","","","","","","","","","","","null","+","Fixation - short","","null","","","","","","","","","","","","","","","","",""
"","html-keyboard-response","450","599017","0.0-757.0","6qjq2mpl","","","","","","","","","","","","","510","cta","Diagnostic trial","","f","","12","1","4","false","false","false","both pre & post","RIGHT","RIGHT","j","0","true","","","",""
"","call-function","451","599017","0.0-759.0-0.0","6qjq2mpl","","","","","","","","","","","","","","","","","","","","","","","","","","","","","","","","","",""
"","html-keyboard-response","452","599330","0.0-759.0-1.0","6qjq2mpl","2560","1440","","","","","","","","","","","null","Wrong","Feedback","","null","","","","","","","","","","","","","","","","",""
"","call-function","453","599330","0.0-759.0-2.0","6qjq2mpl","","","","","","","","","","","","","","","","","","","","","","","","","","","","","","","","","",""
"","html-keyboard-response","454","600094","0.0-760.0","6qjq2mpl","2560","1440","","","","","","","","","","","null","+","Fixation - short","","null","","","","","","","","","","","","","","","","",""
"","html-keyboard-response","455","600709","0.0-761.0","6qjq2mpl","","","","","","","","","","","","","615","gfm","Diagnostic trial","","f","","12","2","4","false","false","true","both pre & post","LEFT","LEFT","f","1","true","","","",""
"","html-keyboard-response","456","601473","0.0-764.0","6qjq2mpl","2560","1440","","","","","","","","","","","null","+","Fixation - short","","null","","","","","","","","","","","","","","","","",""
"","html-keyboard-response","457","601926","0.0-765.0","6qjq2mpl","","","","","","","","","","","","","453","gfm","Diagnostic trial","","f","","12","3","4","false","false","true","both pre & post","LEFT","LEFT","f","1","true","","","",""
"","html-keyboard-response","458","602685","0.0-768.0","6qjq2mpl","2560","1440","","","","","","","","","","","null","+","Fixation - short","","null","","","","","","","","","","","","","","","","",""
