"value","trial_type","trial_index","time_elapsed","internal_node_id","id","width","height","webaudio","browser","browser_version","mobile","os","fullscreen","vsync_rate","webcam","microphone","view_history","rt","stimulus","trial_info","success","response","exp_parameters","inducer_run","diagnostic_run","cue_num","post_cue","inducer_trial","italic","forced_equal_run","correct_inducer_response_side","correct_diag_response_side","correct_response_key","correct_response","congruent","force_equal","correct_indu_response_side","accuracy","interactive"
"","call-function","0","3","0.0-0.0","yatz3hhq","","","","","","","","","","","","","","","","","","","","","","","","","","","","","","","","","",""
"","browser-check","1","1005","0.0-1.0","yatz3hhq","1280","595","true","chrome","122.0.0","false","Windows 10","true","60.22","true","true","","","","","","","","","","","","","","","","","","","","","","",""
"","instructions","2","55312","0.0-2.0","yatz3hhq","","","","","","","","","","","","[{""page_index"":0,""viewing_time"":17896},{""page_index"":1,""viewing_time"":32448},{""page_index"":2,""viewing_time"":3961}]","54305","The experiment and consent","The experiment and consent","","","","","","","","","","","","","","","","","","",""
"","fullscreen","3","68234","0.0-3.0","yatz3hhq","","","","","","","","","","","","","11911","","Full screen","true","","","","","","","","","","","","","","","","","",""
"","instructions","4","149202","0.0-4.0","yatz3hhq","","","","","","","","","","","","[{""page_index"":0,""viewing_time"":49824},{""page_index"":1,""viewing_time"":31141}]","80965","Instructions","Basic overview explanation","","","","","","","","","","","","","","","","","","",""
"","html-keyboard-response","5","170346","0.0-5.0","yatz3hhq","","","","","","","","","","","","","19635","If italic press LEFT | If upright press RIGHT","Diagnostic instructions",""," ","{""debug"":false,""skip_instructions"":false,""skip_practice"":false,""save_local_data"":false,""studu_name"":""exp2"",""default_background_colour"":""#cccccc"",""wrong_response_colour"":""#d22d2d"",""instruction_delay"":20000,""trial_duration"":2000,""short_fixation"":750,""long_fixation"":1500,""wrong_response_delay"":300,""too_slow_delay"":300,""instruction_font_size"":""24px"",""general_font_size"":""42px"",""fixation_size"":""48px"",""allowed_responses"":[""f"",""j""],""cue_min_length"":0,""cue_max_length"":4,""tot_post_cue_len"":72,""cue_colour"":""red"",""cue_shape"":""Square"",""cue_size"":70,""cue_duration"":1250,""avg_number_of_cues"":3,""inducer_colour"":""blue"",""number_of_inducers"":24,""pre_cue_italic_forced_equal"":true,""post_cue_italic_forced_equal"":true,""prac_diagnostic_rounds"":16,""prac_inducer_rounds"":6,""prac_cue_rounds"":16,""prac_post_cue_num"":3}","","","","","","","","","","","","","","","",""
"","html-keyboard-response","6","171108","0.0-6.0","yatz3hhq","1280","720","","","","","","","","","","","null","+","Fixation - short","","null","","","","","","","","","","","","","","","","",""
"","html-keyboard-response","7","171851","0.0-7.0","yatz3hhq","","","","","","","","","","","","","741","afp","Diagnostic practice","","j","","Diagnostic practice","0","-84","true","false","false","prac equal","RIGHT","RIGHT","j","1","true","","","",""
"","html-keyboard-response","8","172610","0.0-10.0","yatz3hhq","1280","720","","","","","","","","","","","null","+","Fixation - short","","null","","","","","","","","","","","","","","","","",""
"","html-keyboard-response","9","173128","0.0-11.0","yatz3hhq","","","","","","","","","","","","","517","afp","Diagnostic practice","","f","","Diagnostic practice","1","-84","true","false","true","prac equal","RIGHT","LEFT","f","1","false","","","",""
"","html-keyboard-response","10","173892","0.0-14.0","yatz3hhq","1280","720","","","","","","","","","","","null","+","Fixation - short","","null","","","","","","","","","","","","","","","","",""
"","html-keyboard-response","11","174405","0.0-15.0","yatz3hhq","","","","","","","","","","","","","511","afp","Diagnostic practice","","j","","Diagnostic practice","2","-84","true","false","false","prac equal","RIGHT","RIGHT","j","1","true","","","",""
"","html-keyboard-response","12","175160","0.0-18.0","yatz3hhq","1280","720","","","","","","","","","","","null","+","Fixation - short","","null","","","","","","","","","","","","","","","","",""
"","html-keyboard-response","13","175642","0.0-19.0","yatz3hhq","","","","","","","","","","","","","481","afp","Diagnostic practice","","f","","Diagnostic practice","3","-84","true","false","true","prac equal","RIGHT","LEFT","f","1","false","","","",""
"","html-keyboard-response","14","176394","0.0-22.0","yatz3hhq","1280","720","","","","","","","","","","","null","+","Fixation - short","","null","","","","","","","","","","","","","","","","",""
"","html-keyboard-response","15","177075","0.0-23.0","yatz3hhq","","","","","","","","","","","","","680","swr","Diagnostic practice","","f","","Diagnostic practice","4","-84","true","false","true","prac equal","LEFT","LEFT","f","1","true","","","",""
"","html-keyboard-response","16","177842","0.0-26.0","yatz3hhq","1280","720","","","","","","","","","","","null","+","Fixation - short","","null","","","","","","","","","","","","","","","","",""
"","html-keyboard-response","17","178507","0.0-27.0","yatz3hhq","","","","","","","","","","","","","664","swr","Diagnostic practice","","j","","Diagnostic practice","5","-84","true","false","false","prac equal","LEFT","RIGHT","j","1","false","","","",""
"","html-keyboard-response","18","179259","0.0-30.0","yatz3hhq","1280","720","","","","","","","","","","","null","+","Fixation - short","","null","","","","","","","","","","","","","","","","",""
"","html-keyboard-response","19","180040","0.0-31.0","yatz3hhq","","","","","","","","","","","","","779","afp","Diagnostic practice","","j","","Diagnostic practice","6","-84","true","false","false","prac equal","RIGHT","RIGHT","j","1","true","","","",""
"","html-keyboard-response","20","180791","0.0-34.0","yatz3hhq","1280","720","","","","","","","","","","","null","+","Fixation - short","","null","","","","","","","","","","","","","","","","",""
"","html-keyboard-response","21","181427","0.0-35.0","yatz3hhq","","","","","","","","","","","","","634","afp","Diagnostic practice","","f","","Diagnostic practice","7","-84","true","false","true","prac equal","RIGHT","LEFT","f","1","false","","","",""
"","html-keyboard-response","22","182190","0.0-38.0","yatz3hhq","1280","720","","","","","","","","","","","null","+","Fixation - short","","null","","","","","","","","","","","","","","","","",""
"","html-keyboard-response","23","183017","0.0-39.0","yatz3hhq","","","","","","","","","","","","","825","afp","Diagnostic practice","","j","","Diagnostic practice","8","-84","true","false","false","prac equal","RIGHT","RIGHT","j","1","true","","","",""
"","html-keyboard-response","24","183775","0.0-42.0","yatz3hhq","1280","720","","","","","","","","","","","null","+","Fixation - short","","null","","","","","","","","","","","","","","","","",""
"","html-keyboard-response","25","184399","0.0-43.0","yatz3hhq","","","","","","","","","","","","","622","afp","Diagnostic practice","","j","","Diagnostic practice","9","-84","true","false","false","prac equal","RIGHT","RIGHT","j","1","true","","","",""
"","html-keyboard-response","26","185159","0.0-46.0","yatz3hhq","1280","720","","","","","","","","","","","null","+","Fixation - short","","null","","","","","","","","","","","","","","","","",""
"","html-keyboard-response","27","185918","0.0-47.0","yatz3hhq","","","","","","","","","","","","","757","swr","Diagnostic practice","","f","","Diagnostic practice","10","-84","true","false","true","prac equal","LEFT","LEFT","f","1","true","","","",""
"","html-keyboard-response","28","186675","0.0-50.0","yatz3hhq","1280","720","","","","","","","","","","","null","+","Fixation - short","","null","","","","","","","","","","","","","","","","",""
"","html-keyboard-response","29","187253","0.0-51.0","yatz3hhq","","","","","","","","","","","","","577","afp","Diagnostic practice","","f","","Diagnostic practice","11","-84","true","false","true","prac equal","RIGHT","LEFT","f","1","false","","","",""
"","html-keyboard-response","30","188010","0.0-54.0","yatz3hhq","1280","720","","","","","","","","","","","null","+","Fixation - short","","null","","","","","","","","","","","","","","","","",""
"","html-keyboard-response","31","188534","0.0-55.0","yatz3hhq","","","","","","","","","","","","","522","afp","Diagnostic practice","","f","","Diagnostic practice","12","-84","true","false","true","prac equal","RIGHT","LEFT","f","1","false","","","",""
"","html-keyboard-response","32","189293","0.0-58.0","yatz3hhq","1280","720","","","","","","","","","","","null","+","Fixation - short","","null","","","","","","","","","","","","","","","","",""
"","html-keyboard-response","33","189836","0.0-59.0","yatz3hhq","","","","","","","","","","","","","542","swr","Diagnostic practice","","f","","Diagnostic practice","13","-84","true","false","true","prac equal","LEFT","LEFT","f","1","true","","","",""
"","html-keyboard-response","34","190593","0.0-62.0","yatz3hhq","1280","720","","","","","","","","","","","null","+","Fixation - short","","null","","","","","","","","","","","","","","","","",""
"","html-keyboard-response","35","191265","0.0-63.0","yatz3hhq","","","","","","","","","","","","","671","swr","Diagnostic practice","","j","","Diagnostic practice","14","-84","true","false","false","prac equal","LEFT","RIGHT","j","1","false","","","",""
"","html-keyboard-response","36","192024","0.0-66.0","yatz3hhq","1280","720","","","","","","","","","","","null","+","Fixation - short","","null","","","","","","","","","","","","","","","","",""
"","html-keyboard-response","37","192569","0.0-67.0","yatz3hhq","","","","","","","","","","","","","544","swr","Diagnostic practice","","j","","Diagnostic practice","15","-84","true","false","false","prac equal","LEFT","RIGHT","j","1","false","","","",""
"","html-keyboard-response","38","193327","0.0-70.0","yatz3hhq","1280","720","","","","","","","","","","","null","+","Fixation - short","","null","","","","","","","","","","","","","","","","",""
"","instructions","39","213443","0.0-71.0","yatz3hhq","","","","","","","","","","","","[{""page_index"":0,""viewing_time"":20114}]","20114","Instructions","Final experiment explanation","","","","","","","","","","","","","","","","","","",""
"","html-keyboard-response","40","231717","0.0-72.0","yatz3hhq","","","","","","","","","","","","","16770","If gso press LEFT | If fuc press RIGHT","Inducer practice",""," ","","Practice","","","","","","","","","","","","","","",""
"","html-keyboard-response","41","232481","0.0-73.0","yatz3hhq","1280","720","","","","","","","","","","","null","+","Fixation - short","","null","","","","","","","","","","","","","","","","",""
"","html-keyboard-response","42","233217","0.0-74.0","yatz3hhq","","","","","","","","","","","","","736","gso","Inducer practice","","f","","Practice","","","","true","","","","","f","1","","true","LEFT","",""
"","html-keyboard-response","43","233976","0.0-77.0","yatz3hhq","1280","720","","","","","","","","","","","null","+","Fixation - short","","null","","","","","","","","","","","","","","","","",""
"","html-keyboard-response","44","247328","0.0-78.0","yatz3hhq","","","","","","","","","","","","","13350","If jsf press LEFT | If dij press RIGHT","Inducer practice",""," ","","Practice","","","","","","","","","","","","","","",""
"","html-keyboard-response","45","248094","0.0-79.0","yatz3hhq","1280","720","","","","","","","","","","","null","+","Fixation - short","","null","","","","","","","","","","","","","","","","",""
"","html-keyboard-response","46","249004","0.0-80.0","yatz3hhq","","","","","","","","","","","","","909","jsf","Inducer practice","","f","","Practice","","","","true","","","","","f","1","","true","LEFT","",""
"","html-keyboard-response","47","249762","0.0-83.0","yatz3hhq","1280","720","","","","","","","","","","","null","+","Fixation - short","","null","","","","","","","","","","","","","","","","",""
"","html-keyboard-response","48","257510","0.0-84.0","yatz3hhq","","","","","","","","","","","","","7748","If oez press LEFT | If wwt press RIGHT","Inducer practice",""," ","","Practice","","","","","","","","","","","","","","",""
"","html-keyboard-response","49","258275","0.0-85.0","yatz3hhq","1280","720","","","","","","","","","","","null","+","Fixation - short","","null","","","","","","","","","","","","","","","","",""
"","html-keyboard-response","50","258996","0.0-86.0","yatz3hhq","","","","","","","","","","","","","720","wwt","Inducer practice","","j","","Practice","","","","true","","","","","j","1","","true","RIGHT","",""
"","html-keyboard-response","51","259759","0.0-89.0","yatz3hhq","1280","720","","","","","","","","","","","null","+","Fixation - short","","null","","","","","","","","","","","","","","","","",""
"","html-keyboard-response","52","267332","0.0-90.0","yatz3hhq","","","","","","","","","","","","","7572","If wrz press LEFT | If hfs press RIGHT","Inducer practice",""," ","","Practice","","","","","","","","","","","","","","",""
"","html-keyboard-response","53","268092","0.0-91.0","yatz3hhq","1280","720","","","","","","","","","","","null","+","Fixation - short","","null","","","","","","","","","","","","","","","","",""
"","html-keyboard-response","54","268706","0.0-92.0","yatz3hhq","","","","","","","","","","","","","612","hfs","Inducer practice","","j","","Practice","","","","true","","","","","j","1","","true","RIGHT","",""
"","html-keyboard-response","55","269460","0.0-95.0","yatz3hhq","1280","720","","","","","","","","","","","null","+","Fixation - short","","null","","","","","","","","","","","","","","","","",""
"","html-keyboard-response","56","272663","0.0-96.0","yatz3hhq","","","","","","","","","","","","","3202","If yrp press LEFT | If efg press RIGHT","Inducer practice",""," ","","Practice","","","","","","","","","","","","","","",""
"","html-keyboard-response","57","273428","0.0-97.0","yatz3hhq","1280","720","","","","","","","","","","","null","+","Fixation - short","","null","","","","","","","","","","","","","","","","",""
"","html-keyboard-response","58","274860","0.0-98.0","yatz3hhq","","","","","","","","","","","","","1431","efg","Inducer practice","","j","","Practice","","","","true","","","","","j","1","","true","RIGHT","",""
"","html-keyboard-response","59","275626","0.0-101.0","yatz3hhq","1280","720","","","","","","","","","","","null","+","Fixation - short","","null","","","","","","","","","","","","","","","","",""
"","html-keyboard-response","60","278095","0.0-102.0","yatz3hhq","","","","","","","","","","","","","2467","If eht press LEFT | If dpa press RIGHT","Inducer practice",""," ","","Practice","","","","","","","","","","","","","","",""
"","html-keyboard-response","61","278859","0.0-103.0","yatz3hhq","1280","720","","","","","","","","","","","null","+","Fixation - short","","null","","","","","","","","","","","","","","","","",""
"","html-keyboard-response","62","279499","0.0-104.0","yatz3hhq","","","","","","","","","","","","","638","eht","Inducer practice","","f","","Practice","","","","true","","","","","f","1","","true","LEFT","",""
"","html-keyboard-response","63","280261","0.0-107.0","yatz3hhq","1280","720","","","","","","","","","","","null","+","Fixation - short","","null","","","","","","","","","","","","","","","","",""
"","instructions","64","338119","0.0-108.0","yatz3hhq","","","","","","","","","","","","[{""page_index"":0,""viewing_time"":57856}]","57856","Instructions","Final experiment explanation","","","","","","","","","","","","","","","","","","",""
"","html-keyboard-response","65","346536","0.0-109.0","yatz3hhq","","","","","","","","","","","","","6906","If csp press LEFT | If tkb press RIGHT","Cue practice",""," ","","Practice","","","","","","","","","","","","","","",""
"","html-keyboard-response","66","347295","0.0-110.0","yatz3hhq","1280","720","","","","","","","","","","","null","+","Fixation - short","","null","","","","","","","","","","","","","","","","",""
"","html-keyboard-response","67","349141","0.0-111.0","yatz3hhq","","","","","","","","","","","","","1845","tkb","Cue practice","","j","","Practice","0","13","false","false","true","both pre & post","RIGHT","LEFT","f","0","false","","","",""
"","call-function","68","349143","0.0-113.0-0.0","yatz3hhq","","","","","","","","","","","","","","","","","","","","","","","","","","","","","","","","","",""
"","html-keyboard-response","69","349458","0.0-113.0-1.0","yatz3hhq","1280","720","","","","","","","","","","","null","Wrong","Feedback","","null","","","","","","","","","","","","","","","","",""
"","call-function","70","349459","0.0-113.0-2.0","yatz3hhq","","","","","","","","","","","","","","","","","","","","","","","","","","","","","","","","","",""
"","html-keyboard-response","71","350212","0.0-114.0","yatz3hhq","1280","720","","","","","","","","","","","null","+","Fixation - short","","null","","","","","","","","","","","","","","","","",""
"","html-keyboard-response","72","351933","0.0-115.0","yatz3hhq","","","","","","","","","","","","","1720","csp","Cue practice","","j","","Practice","1","13","false","false","false","both pre & post","LEFT","RIGHT","j","1","false","","","",""
"","html-keyboard-response","73","352694","0.0-118.0","yatz3hhq","1280","720","","","","","","","","","","","null","+","Fixation - short","","null","","","","","","","","","","","","","","","","",""
"","html-keyboard-response","74","353551","0.0-119.0","yatz3hhq","","","","","","","","","","","","","856","csp","Cue practice","","f","","Practice","2","13","false","false","true","both pre & post","LEFT","LEFT","f","1","true","","","",""
"","html-keyboard-response","75","354311","0.0-122.0","yatz3hhq","1280","720","","","","","","","","","","","null","+","Fixation - short","","null","","","","","","","","","","","","","","","","",""
"","html-keyboard-response","76","355703","0.0-123.0","yatz3hhq","","","","","","","","","","","","","1390","tkb","Cue practice","","j","","Practice","3","13","false","false","true","both pre & post","RIGHT","LEFT","f","0","false","","","",""
"","call-function","77","355704","0.0-125.0-0.0","yatz3hhq","","","","","","","","","","","","","","","","","","","","","","","","","","","","","","","","","",""
"","html-keyboard-response","78","356010","0.0-125.0-1.0","yatz3hhq","1280","720","","","","","","","","","","","null","Wrong","Feedback","","null","","","","","","","","","","","","","","","","",""
"","call-function","79","356010","0.0-125.0-2.0","yatz3hhq","","","","","","","","","","","","","","","","","","","","","","","","","","","","","","","","","",""
"","html-keyboard-response","80","356763","0.0-126.0","yatz3hhq","1280","720","","","","","","","","","","","null","+","Fixation - short","","null","","","","","","","","","","","","","","","","",""
"","html-keyboard-response","81","358138","0.0-127.0","yatz3hhq","","","","","","","","","","","","","1374","tkb","Cue practice","","j","","Practice","4","13","false","false","false","both pre & post","RIGHT","RIGHT","j","1","true","","","",""
"","html-keyboard-response","82","358896","0.0-130.0","yatz3hhq","1280","720","","","","","","","","","","","null","+","Fixation - short","","null","","","","","","","","","","","","","","","","",""
"","html-keyboard-response","83","359490","0.0-131.0","yatz3hhq","","","","","","","","","","","","","592","csp","Cue practice","","f","","Practice","5","13","false","false","true","both pre & post","LEFT","LEFT","f","1","true","","","",""
"","html-keyboard-response","84","360245","0.0-134.0","yatz3hhq","1280","720","","","","","","","","","","","null","+","Fixation - short","","null","","","","","","","","","","","","","","","","",""
"","html-keyboard-response","85","360982","0.0-135.0","yatz3hhq","","","","","","","","","","","","","736","csp","Cue practice","","j","","Practice","6","13","false","false","false","both pre & post","LEFT","RIGHT","j","1","false","","","",""
"","html-keyboard-response","86","361745","0.0-138.0","yatz3hhq","1280","720","","","","","","","","","","","null","+","Fixation - short","","null","","","","","","","","","","","","","","","","",""
"","html-keyboard-response","87","362526","0.0-139.0","yatz3hhq","","","","","","","","","","","","","780","csp","Cue practice","","f","","Practice","7","13","false","false","true","both pre & post","LEFT","LEFT","f","1","true","","","",""
"","html-keyboard-response","88","363278","0.0-142.0","yatz3hhq","1280","720","","","","","","","","","","","null","+","Fixation - short","","null","","","","","","","","","","","","","","","","",""
"","html-keyboard-response","89","363888","0.0-143.0","yatz3hhq","","","","","","","","","","","","","608","tkb","Cue practice","","j","","Practice","8","13","false","false","false","both pre & post","RIGHT","RIGHT","j","1","true","","","",""
"","html-keyboard-response","90","364646","0.0-146.0","yatz3hhq","1280","720","","","","","","","","","","","null","+","Fixation - short","","null","","","","","","","","","","","","","","","","",""
"","html-keyboard-response","91","365373","0.0-147.0","yatz3hhq","","","","","","","","","","","","","726","csp","Cue practice","","f","","Practice","9","13","false","false","true","both pre & post","LEFT","LEFT","f","1","true","","","",""
"","html-keyboard-response","92","366130","0.0-150.0","yatz3hhq","1280","720","","","","","","","","","","","null","+","Fixation - short","","null","","","","","","","","","","","","","","","","",""
"","html-keyboard-response","93","366880","0.0-151.0","yatz3hhq","","","","","","","","","","","","","749","tkb","Cue practice","","j","","Practice","10","13","false","false","false","both pre & post","RIGHT","RIGHT","j","1","true","","","",""
"","html-keyboard-response","94","367644","0.0-154.0","yatz3hhq","1280","720","","","","","","","","","","","null","+","Fixation - short","","null","","","","","","","","","","","","","","","","",""
"","html-keyboard-response","95","368458","0.0-155.0","yatz3hhq","","","","","","","","","","","","","812","tkb","Cue practice","","j","","Practice","11","13","false","false","false","both pre & post","RIGHT","RIGHT","j","1","true","","","",""
"","html-keyboard-response","96","369212","0.0-158.0","yatz3hhq","1280","720","","","","","","","","","","","null","+","Fixation - short","","null","","","","","","","","","","","","","","","","",""
"","html-keyboard-response","97","369787","0.0-159.0","yatz3hhq","","","","","","","","","","","","","574","tkb","Cue practice","","f","","Practice","12","13","false","false","true","both pre & post","RIGHT","LEFT","f","1","false","","","",""
"","html-keyboard-response","98","370547","0.0-162.0","yatz3hhq","1280","720","","","","","","","","","","","null","+","Fixation - short","","null","","","","","","","","","","","","","","","","",""
"","canvas-keyboard-response","99","371812","0.0-163.0","yatz3hhq","","","","","","","","","","","","","null","Cue","Cue","","null","","Practice","12","","","false","","","","","","","","","","",""
"","html-keyboard-response","100","372577","0.0-164.0","yatz3hhq","1280","720","","","","","","","","","","","null","+","Fixation - short","","null","","","","","","","","","","","","","","","","",""
"","html-keyboard-response","101","373423","0.0-165.0","yatz3hhq","","","","","","","","","","","","","845","tkb","Cue practice","","f","","Practice","13","13","true","false","true","both pre & post","RIGHT","LEFT","f","1","false","","","",""
"","html-keyboard-response","102","374178","0.0-168.0","yatz3hhq","1280","720","","","","","","","","","","","null","+","Fixation - short","","null","","","","","","","","","","","","","","","","",""
"","html-keyboard-response","103","375052","0.0-169.0","yatz3hhq","","","","","","","","","","","","","872","csp","Cue practice","","f","","Practice","14","13","true","false","true","both pre & post","LEFT","LEFT","f","1","true","","","",""
"","html-keyboard-response","104","375811","0.0-172.0","yatz3hhq","1280","720","","","","","","","","","","","null","+","Fixation - short","","null","","","","","","","","","","","","","","","","",""
"","html-keyboard-response","105","376562","0.0-173.0","yatz3hhq","","","","","","","","","","","","","749","csp","Cue practice","","j","","Practice","15","13","true","false","false","both pre & post","LEFT","RIGHT","j","1","false","","","",""
"","html-keyboard-response","106","377328","0.0-176.0","yatz3hhq","1280","720","","","","","","","","","","","null","+","Fixation - short","","null","","","","","","","","","","","","","","","","",""
"","html-keyboard-response","107","378739","0.0-177.0","yatz3hhq","","","","","","","","","","","","","1410","tkb","Inducer practice","","j","","Practice","","","","true","","","","","j","1","","false","RIGHT","",""
"","html-keyboard-response","108","379497","0.0-180.0","yatz3hhq","1280","720","","","","","","","","","","","null","+","Fixation - short","","null","","","","","","","","","","","","","","","","",""
"","instructions","109","390719","0.0-181.0","yatz3hhq","","","","","","","","","","","","[{""page_index"":0,""viewing_time"":11221}]","11221","End practice","End of practice","","","","","","","","","","","","","","","","","","",""
"","html-keyboard-response","110","393744","0.0-182.0","yatz3hhq","1280","720","","","","","","","","","","","null","+","Fixation - long","","null","","","","","","","","","","","","","","","","",""
"","html-keyboard-response","111","398806","0.0-183.0","yatz3hhq","","","","","","","","","","","","","5060","If bgi press LEFT | If lct press RIGHT","Inducer instructions",""," ","","0","","","","","","","","","","","","","","",""
"","html-keyboard-response","112","399562","0.0-184.0","yatz3hhq","1280","720","","","","","","","","","","","null","+","Fixation - short","","null","","","","","","","","","","","","","","","","",""
"","html-keyboard-response","113","400582","0.0-185.0","yatz3hhq","","","","","","","","","","","","","1018","lct","Diagnostic trial","","f","","0","0","4","false","false","true","both pre & post","RIGHT","LEFT","f","1","false","","","",""
"","html-keyboard-response","114","401347","0.0-188.0","yatz3hhq","1280","720","","","","","","","","","","","null","+","Fixation - short","","null","","","","","","","","","","","","","","","","",""
"","html-keyboard-response","115","402027","0.0-189.0","yatz3hhq","","","","","","","","","","","","","679","lct","Diagnostic trial","","j","","0","1","4","false","false","false","both pre & post","RIGHT","RIGHT","j","1","true","","","",""
"","html-keyboard-response","116","402794","0.0-192.0","yatz3hhq","1280","720","","","","","","","","","","","null","+","Fixation - short","","null","","","","","","","","","","","","","","","","",""
"","html-keyboard-response","117","403587","0.0-193.0","yatz3hhq","","","","","","","","","","","","","791","lct","Diagnostic trial","","f","","0","2","4","false","false","true","both pre & post","RIGHT","LEFT","f","1","false","","","",""
"","html-keyboard-response","118","404345","0.0-196.0","yatz3hhq","1280","720","","","","","","","","","","","null","+","Fixation - short","","null","","","","","","","","","","","","","","","","",""
"","html-keyboard-response","119","405635","0.0-197.0","yatz3hhq","","","","","","","","","","","","","1289","bgi","Diagnostic trial","","f","","0","3","4","false","false","true","both pre & post","LEFT","LEFT","f","1","true","","","",""
"","html-keyboard-response","120","406395","0.0-200.0","yatz3hhq","1280","720","","","","","","","","","","","null","+","Fixation - short","","null","","","","","","","","","","","","","","","","",""
"","canvas-keyboard-response","121","407661","0.0-201.0","yatz3hhq","","","","","","","","","","","","","null","Cue","Cue","","null","","0","3","","","false","","","","","","","","","","",""
"","html-keyboard-response","122","408428","0.0-202.0","yatz3hhq","1280","720","","","","","","","","","","","null","+","Fixation - short","","null","","","","","","","","","","","","","","","","",""
"","html-keyboard-response","123","409193","0.0-203.0","yatz3hhq","","","","","","","","","","","","","763","bgi","Diagnostic trial","","f","","0","4","4","true","false","true","both pre & post","LEFT","LEFT","f","1","true","","","",""
"","html-keyboard-response","124","409945","0.0-206.0","yatz3hhq","1280","720","","","","","","","","","","","null","+","Fixation - short","","null","","","","","","","","","","","","","","","","",""
"","html-keyboard-response","125","410727","0.0-207.0","yatz3hhq","","","","","","","","","","","","","780","bgi","Diagnostic trial","","j","","0","5","4","true","false","false","both pre & post","LEFT","RIGHT","j","1","false","","","",""
"","html-keyboard-response","126","411479","0.0-210.0","yatz3hhq","1280","720","","","","","","","","","","","null","+","Fixation - short","","null","","","","","","","","","","","","","","","","",""
"","html-keyboard-response","127","412261","0.0-211.0","yatz3hhq","","","","","","","","","","","","","780","lct","Diagnostic trial","","f","","0","6","4","true","false","true","both pre & post","RIGHT","LEFT","f","1","false","","","",""
"","html-keyboard-response","128","413028","0.0-214.0","yatz3hhq","1280","720","","","","","","","","","","","null","+","Fixation - short","","null","","","","","","","","","","","","","","","","",""
"","html-keyboard-response","129","414514","0.0-215.0","yatz3hhq","","","","","","","","","","","","","1484","lct","Inducer trial","","j","","0","","","","true","","","","","j","1","","false","RIGHT","",""
"","html-keyboard-response","130","415278","0.0-218.0","yatz3hhq","1280","720","","","","","","","","","","","null","+","Fixation - short","","null","","","","","","","","","","","","","","","","",""
"","html-keyboard-response","131","426467","0.0-219.0","yatz3hhq","","","","","","","","","","","","","11186","If kmh press LEFT | If imm press RIGHT","Inducer instructions",""," ","","1","","","","","","","","","","","","","","",""
"","html-keyboard-response","132","427227","0.0-220.0","yatz3hhq","1280","720","","","","","","","","","","","null","+","Fixation - short","","null","","","","","","","","","","","","","","","","",""
"","html-keyboard-response","133","428135","0.0-221.0","yatz3hhq","","","","","","","","","","","","","907","kmh","Diagnostic trial","","j","","1","0","8","false","false","false","both pre & post","LEFT","RIGHT","j","1","false","","","",""
"","html-keyboard-response","134","428894","0.0-224.0","yatz3hhq","1280","720","","","","","","","","","","","null","+","Fixation - short","","null","","","","","","","","","","","","","","","","",""
"","html-keyboard-response","135","429619","0.0-225.0","yatz3hhq","","","","","","","","","","","","","724","imm","Diagnostic trial","","j","","1","1","8","false","false","false","both pre & post","RIGHT","RIGHT","j","1","true","","","",""
"","html-keyboard-response","136","430378","0.0-228.0","yatz3hhq","1280","720","","","","","","","","","","","null","+","Fixation - short","","null","","","","","","","","","","","","","","","","",""
"","html-keyboard-response","137","430985","0.0-229.0","yatz3hhq","","","","","","","","","","","","","605","imm","Diagnostic trial","","f","","1","2","8","false","false","true","both pre & post","RIGHT","LEFT","f","1","false","","","",""
"","html-keyboard-response","138","431745","0.0-232.0","yatz3hhq","1280","720","","","","","","","","","","","null","+","Fixation - short","","null","","","","","","","","","","","","","","","","",""
"","html-keyboard-response","139","432834","0.0-233.0","yatz3hhq","","","","","","","","","","","","","1087","kmh","Diagnostic trial","","f","","1","3","8","false","false","true","both pre & post","LEFT","LEFT","f","1","true","","","",""
"","html-keyboard-response","140","433595","0.0-236.0","yatz3hhq","1280","720","","","","","","","","","","","null","+","Fixation - short","","null","","","","","","","","","","","","","","","","",""
"","html-keyboard-response","141","434910","0.0-237.0","yatz3hhq","","","","","","","","","","","","","1314","imm","Diagnostic trial","","f","","1","4","8","false","false","true","both pre & post","RIGHT","LEFT","f","1","false","","","",""
"","html-keyboard-response","142","435663","0.0-240.0","yatz3hhq","1280","720","","","","","","","","","","","null","+","Fixation - short","","null","","","","","","","","","","","","","","","","",""
"","html-keyboard-response","143","436377","0.0-241.0","yatz3hhq","","","","","","","","","","","","","712","imm","Diagnostic trial","","j","","1","5","8","false","false","false","both pre & post","RIGHT","RIGHT","j","1","true","","","",""
"","html-keyboard-response","144","437144","0.0-244.0","yatz3hhq","1280","720","","","","","","","","","","","null","+","Fixation - short","","null","","","","","","","","","","","","","","","","",""
"","html-keyboard-response","145","437758","0.0-245.0","yatz3hhq","","","","","","","","","","","","","612","kmh","Diagnostic trial","","f","","1","6","8","false","false","true","both pre & post","LEFT","LEFT","f","1","true","","","",""
"","html-keyboard-response","146","438514","0.0-248.0","yatz3hhq","1280","720","","","","","","","","","","","null","+","Fixation - short","","null","","","","","","","","","","","","","","","","",""
"","html-keyboard-response","147","439342","0.0-249.0","yatz3hhq","","","","","","","","","","","","","827","kmh","Diagnostic trial","","j","","1","7","8","false","false","false","both pre & post","LEFT","RIGHT","j","1","false","","","",""
"","html-keyboard-response","148","440098","0.0-252.0","yatz3hhq","1280","720","","","","","","","","","","","null","+","Fixation - short","","null","","","","","","","","","","","","","","","","",""
"","canvas-keyboard-response","149","441362","0.0-253.0","yatz3hhq","","","","","","","","","","","","","null","Cue","Cue","","null","","1","7","","","false","","","","","","","","","","",""
"","html-keyboard-response","150","442130","0.0-254.0","yatz3hhq","1280","720","","","","","","","","","","","null","+","Fixation - short","","null","","","","","","","","","","","","","","","","",""
"","html-keyboard-response","151","442849","0.0-255.0","yatz3hhq","","","","","","","","","","","","","718","kmh","Diagnostic trial","","f","","1","8","8","true","false","true","both pre & post","LEFT","LEFT","f","1","true","","","",""
"","html-keyboard-response","152","443612","0.0-258.0","yatz3hhq","1280","720","","","","","","","","","","","null","+","Fixation - short","","null","","","","","","","","","","","","","","","","",""
"","html-keyboard-response","153","444466","0.0-259.0","yatz3hhq","","","","","","","","","","","","","853","imm","Diagnostic trial","","f","","1","9","8","true","false","true","both pre & post","RIGHT","LEFT","f","1","false","","","",""
"","html-keyboard-response","154","445228","0.0-262.0","yatz3hhq","1280","720","","","","","","","","","","","null","+","Fixation - short","","null","","","","","","","","","","","","","","","","",""
"","html-keyboard-response","155","446723","0.0-263.0","yatz3hhq","","","","","","","","","","","","","1493","kmh","Inducer trial","","j","","1","","","","true","","","","","f","0","","false","LEFT","",""
"","call-function","156","446723","0.0-265.0-0.0","yatz3hhq","","","","","","","","","","","","","","","","","","","","","","","","","","","","","","","","","",""
"","html-keyboard-response","157","447029","0.0-265.0-1.0","yatz3hhq","1280","720","","","","","","","","","","","null","Wrong","Feedback","","null","","","","","","","","","","","","","","","","",""
"","call-function","158","447030","0.0-265.0-2.0","yatz3hhq","","","","","","","","","","","","","","","","","","","","","","","","","","","","","","","","","",""
"","html-keyboard-response","159","447782","0.0-266.0","yatz3hhq","1280","720","","","","","","","","","","","null","+","Fixation - short","","null","","","","","","","","","","","","","","","","",""
"","html-keyboard-response","160","453620","0.0-267.0","yatz3hhq","","","","","","","","","","","","","5837","If glp press LEFT | If upf press RIGHT","Inducer instructions",""," ","","2","","","","","","","","","","","","","","",""
"","html-keyboard-response","161","454381","0.0-268.0","yatz3hhq","1280","720","","","","","","","","","","","null","+","Fixation - short","","null","","","","","","","","","","","","","","","","",""
"","html-keyboard-response","162","455122","0.0-269.0","yatz3hhq","","","","","","","","","","","","","740","glp","Diagnostic trial","","f","","2","0","5","false","false","true","both pre & post","LEFT","LEFT","f","1","true","","","",""
"","html-keyboard-response","163","455879","0.0-272.0","yatz3hhq","1280","720","","","","","","","","","","","null","+","Fixation - short","","null","","","","","","","","","","","","","","","","",""
"","html-keyboard-response","164","456528","0.0-273.0","yatz3hhq","","","","","","","","","","","","","648","upf","Diagnostic trial","","j","","2","1","5","false","false","false","both pre & post","RIGHT","RIGHT","j","1","true","","","",""
"","html-keyboard-response","165","457295","0.0-276.0","yatz3hhq","1280","720","","","","","","","","","","","null","+","Fixation - short","","null","","","","","","","","","","","","","","","","",""
"","html-keyboard-response","166","458143","0.0-277.0","yatz3hhq","","","","","","","","","","","","","847","glp","Diagnostic trial","","j","","2","2","5","false","false","false","both pre & post","LEFT","RIGHT","j","1","false","","","",""
"","html-keyboard-response","167","458897","0.0-280.0","yatz3hhq","1280","720","","","","","","","","","","","null","+","Fixation - short","","null","","","","","","","","","","","","","","","","",""
"","html-keyboard-response","168","460034","0.0-281.0","yatz3hhq","","","","","","","","","","","","","1136","upf","Diagnostic trial","","j","","2","3","5","false","false","false","both pre & post","RIGHT","RIGHT","j","1","true","","","",""
"","html-keyboard-response","169","460795","0.0-284.0","yatz3hhq","1280","720","","","","","","","","","","","null","+","Fixation - short","","null","","","","","","","","","","","","","","","","",""
"","html-keyboard-response","170","461744","0.0-285.0","yatz3hhq","","","","","","","","","","","","","948","glp","Diagnostic trial","","f","","2","4","5","false","false","true","both pre & post","LEFT","LEFT","f","1","true","","","",""
"","html-keyboard-response","171","462497","0.0-288.0","yatz3hhq","1280","720","","","","","","","","","","","null","+","Fixation - short","","null","","","","","","","","","","","","","","","","",""
"","canvas-keyboard-response","172","463762","0.0-289.0","yatz3hhq","","","","","","","","","","","","","null","Cue","Cue","","null","","2","4","","","false","","","","","","","","","","",""
"","html-keyboard-response","173","464529","0.0-290.0","yatz3hhq","1280","720","","","","","","","","","","","null","+","Fixation - short","","null","","","","","","","","","","","","","","","","",""
"","html-keyboard-response","174","465325","0.0-291.0","yatz3hhq","","","","","","","","","","","","","795","glp","Diagnostic trial","","f","","2","5","5","true","false","true","both pre & post","LEFT","LEFT","f","1","true","","","",""
"","html-keyboard-response","175","466080","0.0-294.0","yatz3hhq","1280","720","","","","","","","","","","","null","+","Fixation - short","","null","","","","","","","","","","","","","","","","",""
"","html-keyboard-response","176","466852","0.0-295.0","yatz3hhq","","","","","","","","","","","","","770","upf","Inducer trial","","f","","2","","","","true","","","","","j","0","","false","RIGHT","",""
"","call-function","177","466852","0.0-297.0-0.0","yatz3hhq","","","","","","","","","","","","","","","","","","","","","","","","","","","","","","","","","",""
"","html-keyboard-response","178","467160","0.0-297.0-1.0","yatz3hhq","1280","720","","","","","","","","","","","null","Wrong","Feedback","","null","","","","","","","","","","","","","","","","",""
"","call-function","179","467162","0.0-297.0-2.0","yatz3hhq","","","","","","","","","","","","","","","","","","","","","","","","","","","","","","","","","",""
"","html-keyboard-response","180","467914","0.0-298.0","yatz3hhq","1280","720","","","","","","","","","","","null","+","Fixation - short","","null","","","","","","","","","","","","","","","","",""
"","html-keyboard-response","181","476405","0.0-299.0","yatz3hhq","","","","","","","","","","","","","8489","If uus press LEFT | If feg press RIGHT","Inducer instructions",""," ","","3","","","","","","","","","","","","","","",""
"","html-keyboard-response","182","477163","0.0-300.0","yatz3hhq","1280","720","","","","","","","","","","","null","+","Fixation - short","","null","","","","","","","","","","","","","","","","",""
"","html-keyboard-response","183","477968","0.0-301.0","yatz3hhq","","","","","","","","","","","","","803","uus","Diagnostic trial","","f","","3","0","8","false","false","true","both pre & post","LEFT","LEFT","f","1","true","","","",""
"","html-keyboard-response","184","478729","0.0-304.0","yatz3hhq","1280","720","","","","","","","","","","","null","+","Fixation - short","","null","","","","","","","","","","","","","","","","",""
"","html-keyboard-response","185","479346","0.0-305.0","yatz3hhq","","","","","","","","","","","","","616","uus","Diagnostic trial","","j","","3","1","8","false","false","false","both pre & post","LEFT","RIGHT","j","1","false","","","",""
"","html-keyboard-response","186","480112","0.0-308.0","yatz3hhq","1280","720","","","","","","","","","","","null","+","Fixation - short","","null","","","","","","","","","","","","","","","","",""
"","html-keyboard-response","187","481212","0.0-309.0","yatz3hhq","","","","","","","","","","","","","1098","feg","Diagnostic trial","","j","","3","2","8","false","false","false","both pre & post","RIGHT","RIGHT","j","1","true","","","",""
"","html-keyboard-response","188","481964","0.0-312.0","yatz3hhq","1280","720","","","","","","","","","","","null","+","Fixation - short","","null","","","","","","","","","","","","","","","","",""
"","html-keyboard-response","189","482974","0.0-313.0","yatz3hhq","","","","","","","","","","","","","1009","uus","Diagnostic trial","","j","","3","3","8","false","false","false","both pre & post","LEFT","RIGHT","j","1","false","","","",""
"","html-keyboard-response","190","483735","0.0-316.0","yatz3hhq","1280","720","","","","","","","","","","","null","+","Fixation - short","","null","","","","","","","","","","","","","","","","",""
"","html-keyboard-response","191","484483","0.0-317.0","yatz3hhq","","","","","","","","","","","","","747","uus","Diagnostic trial","","j","","3","4","8","false","false","false","both pre & post","LEFT","RIGHT","j","1","false","","","",""
"","html-keyboard-response","192","485248","0.0-320.0","yatz3hhq","1280","720","","","","","","","","","","","null","+","Fixation - short","","null","","","","","","","","","","","","","","","","",""
"","html-keyboard-response","193","485840","0.0-321.0","yatz3hhq","","","","","","","","","","","","","591","uus","Diagnostic trial","","f","","3","5","8","false","false","true","both pre & post","LEFT","LEFT","f","1","true","","","",""
"","html-keyboard-response","194","486602","0.0-324.0","yatz3hhq","1280","720","","","","","","","","","","","null","+","Fixation - short","","null","","","","","","","","","","","","","","","","",""
"","html-keyboard-response","195","487830","0.0-325.0","yatz3hhq","","","","","","","","","","","","","1227","feg","Diagnostic trial","","f","","3","6","8","false","false","true","both pre & post","RIGHT","LEFT","f","1","false","","","",""
"","html-keyboard-response","196","488596","0.0-328.0","yatz3hhq","1280","720","","","","","","","","","","","null","+","Fixation - short","","null","","","","","","","","","","","","","","","","",""
"","html-keyboard-response","197","490157","0.0-329.0","yatz3hhq","","","","","","","","","","","","","1560","uus","Diagnostic trial","","j","","3","7","8","false","false","false","both pre & post","LEFT","RIGHT","j","1","false","","","",""
"","html-keyboard-response","198","490913","0.0-332.0","yatz3hhq","1280","720","","","","","","","","","","","null","+","Fixation - short","","null","","","","","","","","","","","","","","","","",""
"","canvas-keyboard-response","199","492166","0.0-333.0","yatz3hhq","","","","","","","","","","","","","null","Cue","Cue","","null","","3","7","","","false","","","","","","","","","","",""
"","html-keyboard-response","200","492930","0.0-334.0","yatz3hhq","1280","720","","","","","","","","","","","null","+","Fixation - short","","null","","","","","","","","","","","","","","","","",""
"","html-keyboard-response","201","493838","0.0-335.0","yatz3hhq","","","","","","","","","","","","","907","uus","Diagnostic trial","","f","","3","8","8","true","false","true","both pre & post","LEFT","LEFT","f","1","true","","","",""
"","html-keyboard-response","202","494597","0.0-338.0","yatz3hhq","1280","720","","","","","","","","","","","null","+","Fixation - short","","null","","","","","","","","","","","","","","","","",""
"","html-keyboard-response","203","496096","0.0-339.0","yatz3hhq","","","","","","","","","","","","","1499","feg","Diagnostic trial","","f","","3","9","8","true","false","true","both pre & post","RIGHT","LEFT","f","1","false","","","",""
"","html-keyboard-response","204","496851","0.0-342.0","yatz3hhq","1280","720","","","","","","","","","","","null","+","Fixation - short","","null","","","","","","","","","","","","","","","","",""
"","html-keyboard-response","205","497681","0.0-343.0","yatz3hhq","","","","","","","","","","","","","830","feg","Diagnostic trial","","f","","3","10","8","true","false","true","both pre & post","RIGHT","LEFT","f","1","false","","","",""
"","html-keyboard-response","206","498433","0.0-346.0","yatz3hhq","1280","720","","","","","","","","","","","null","+","Fixation - short","","null","","","","","","","","","","","","","","","","",""
"","html-keyboard-response","207","499257","0.0-347.0","yatz3hhq","","","","","","","","","","","","","823","uus","Diagnostic trial","","j","","3","11","8","true","false","false","both pre & post","LEFT","RIGHT","j","1","false","","","",""
"","html-keyboard-response","208","500015","0.0-350.0","yatz3hhq","1280","720","","","","","","","","","","","null","+","Fixation - short","","null","","","","","","","","","","","","","","","","",""
"","html-keyboard-response","209","501103","0.0-351.0","yatz3hhq","","","","","","","","","","","","","1086","uus","Inducer trial","","j","","3","","","","true","","","","","f","0","","false","LEFT","",""
"","call-function","210","501104","0.0-353.0-0.0","yatz3hhq","","","","","","","","","","","","","","","","","","","","","","","","","","","","","","","","","",""
"","html-keyboard-response","211","501411","0.0-353.0-1.0","yatz3hhq","1280","720","","","","","","","","","","","null","Wrong","Feedback","","null","","","","","","","","","","","","","","","","",""
"","call-function","212","501412","0.0-353.0-2.0","yatz3hhq","","","","","","","","","","","","","","","","","","","","","","","","","","","","","","","","","",""
"","html-keyboard-response","213","502167","0.0-354.0","yatz3hhq","1280","720","","","","","","","","","","","null","+","Fixation - short","","null","","","","","","","","","","","","","","","","",""
"","html-keyboard-response","214","510619","0.0-355.0","yatz3hhq","","","","","","","","","","","","","8448","If pxv press LEFT | If adj press RIGHT","Inducer instructions",""," ","","4","","","","","","","","","","","","","","",""
"","html-keyboard-response","215","511381","0.0-356.0","yatz3hhq","1280","720","","","","","","","","","","","null","+","Fixation - short","","null","","","","","","","","","","","","","","","","",""
"","html-keyboard-response","216","512005","0.0-357.0","yatz3hhq","","","","","","","","","","","","","623","pxv","Diagnostic trial","","f","","4","0","4","false","false","true","both pre & post","LEFT","LEFT","f","1","true","","","",""
"","html-keyboard-response","217","512766","0.0-360.0","yatz3hhq","1280","720","","","","","","","","","","","null","+","Fixation - short","","null","","","","","","","","","","","","","","","","",""
"","html-keyboard-response","218","513343","0.0-361.0","yatz3hhq","","","","","","","","","","","","","576","pxv","Diagnostic trial","","f","","4","1","4","false","false","true","both pre & post","LEFT","LEFT","f","1","true","","","",""
"","html-keyboard-response","219","514097","0.0-364.0","yatz3hhq","1280","720","","","","","","","","","","","null","+","Fixation - short","","null","","","","","","","","","","","","","","","","",""
"","html-keyboard-response","220","514704","0.0-365.0","yatz3hhq","","","","","","","","","","","","","606","adj","Diagnostic trial","","j","","4","2","4","false","false","false","both pre & post","RIGHT","RIGHT","j","1","true","","","",""
"","html-keyboard-response","221","515465","0.0-368.0","yatz3hhq","1280","720","","","","","","","","","","","null","+","Fixation - short","","null","","","","","","","","","","","","","","","","",""
"","html-keyboard-response","222","516253","0.0-369.0","yatz3hhq","","","","","","","","","","","","","787","pxv","Diagnostic trial","","f","","4","3","4","false","false","true","both pre & post","LEFT","LEFT","f","1","true","","","",""
"","html-keyboard-response","223","517013","0.0-372.0","yatz3hhq","1280","720","","","","","","","","","","","null","+","Fixation - short","","null","","","","","","","","","","","","","","","","",""
"","canvas-keyboard-response","224","518267","0.0-373.0","yatz3hhq","","","","","","","","","","","","","null","Cue","Cue","","null","","4","3","","","false","","","","","","","","","","",""
"","html-keyboard-response","225","519029","0.0-374.0","yatz3hhq","1280","720","","","","","","","","","","","null","+","Fixation - short","","null","","","","","","","","","","","","","","","","",""
"","html-keyboard-response","226","520038","0.0-375.0","yatz3hhq","","","","","","","","","","","","","1008","adj","Diagnostic trial","","f","","4","4","4","true","false","true","both pre & post","RIGHT","LEFT","f","1","false","","","",""
"","html-keyboard-response","227","520798","0.0-378.0","yatz3hhq","1280","720","","","","","","","","","","","null","+","Fixation - short","","null","","","","","","","","","","","","","","","","",""
"","html-keyboard-response","228","521625","0.0-379.0","yatz3hhq","","","","","","","","","","","","","825","pxv","Diagnostic trial","","j","","4","5","4","true","false","false","both pre & post","LEFT","RIGHT","j","1","false","","","",""
"","html-keyboard-response","229","522382","0.0-382.0","yatz3hhq","1280","720","","","","","","","","","","","null","+","Fixation - short","","null","","","","","","","","","","","","","","","","",""
"","html-keyboard-response","230","523134","0.0-383.0","yatz3hhq","","","","","","","","","","","","","750","adj","Diagnostic trial","","j","","4","6","4","true","false","false","both pre & post","RIGHT","RIGHT","j","1","true","","","",""
"","html-keyboard-response","231","523897","0.0-386.0","yatz3hhq","1280","720","","","","","","","","","","","null","+","Fixation - short","","null","","","","","","","","","","","","","","","","",""
"","html-keyboard-response","232","524650","0.0-387.0","yatz3hhq","","","","","","","","","","","","","752","pxv","Diagnostic trial","","j","","4","7","4","true","false","false","both pre & post","LEFT","RIGHT","j","1","false","","","",""
"","html-keyboard-response","233","525413","0.0-390.0","yatz3hhq","1280","720","","","","","","","","","","","null","+","Fixation - short","","null","","","","","","","","","","","","","","","","",""
"","html-keyboard-response","234","526825","0.0-391.0","yatz3hhq","","","","","","","","","","","","","1410","adj","Inducer trial","","j","","4","","","","true","","","","","j","1","","false","RIGHT","",""
"","html-keyboard-response","235","527581","0.0-394.0","yatz3hhq","1280","720","","","","","","","","","","","null","+","Fixation - short","","null","","","","","","","","","","","","","","","","",""
"","html-keyboard-response","236","531248","0.0-395.0","yatz3hhq","","","","","","","","","","","","","3666","If ydi press LEFT | If drk press RIGHT","Inducer instructions",""," ","","5","","","","","","","","","","","","","","",""
"","html-keyboard-response","237","532012","0.0-396.0","yatz3hhq","1280","720","","","","","","","","","","","null","+","Fixation - short","","null","","","","","","","","","","","","","","","","",""
"","html-keyboard-response","238","532915","0.0-397.0","yatz3hhq","","","","","","","","","","","","","902","drk","Diagnostic trial","","j","","5","0","11","false","false","false","both pre & post","RIGHT","RIGHT","j","1","true","","","",""
"","html-keyboard-response","239","533679","0.0-400.0","yatz3hhq","1280","720","","","","","","","","","","","null","+","Fixation - short","","null","","","","","","","","","","","","","","","","",""
"","html-keyboard-response","240","534344","0.0-401.0","yatz3hhq","","","","","","","","","","","","","663","drk","Diagnostic trial","","f","","5","1","11","false","false","true","both pre & post","RIGHT","LEFT","f","1","false","","","",""
"","html-keyboard-response","241","535097","0.0-404.0","yatz3hhq","1280","720","","","","","","","","","","","null","+","Fixation - short","","null","","","","","","","","","","","","","","","","",""
"","html-keyboard-response","242","535824","0.0-405.0","yatz3hhq","","","","","","","","","","","","","725","drk","Diagnostic trial","","j","","5","2","11","false","false","false","both pre & post","RIGHT","RIGHT","j","1","true","","","",""
"","html-keyboard-response","243","536582","0.0-408.0","yatz3hhq","1280","720","","","","","","","","","","","null","+","Fixation - short","","null","","","","","","","","","","","","","","","","",""
"","html-keyboard-response","244","537135","0.0-409.0","yatz3hhq","","","","","","","","","","","","","552","drk","Diagnostic trial","","j","","5","3","11","false","false","false","both pre & post","RIGHT","RIGHT","j","1","true","","","",""
"","html-keyboard-response","245","537896","0.0-412.0","yatz3hhq","1280","720","","","","","","","","","","","null","+","Fixation - short","","null","","","","","","","","","","","","","","","","",""
"","html-keyboard-response","246","538505","0.0-413.0","yatz3hhq","","","","","","","","","","","","","607","drk","Diagnostic trial","","j","","5","4","11","false","false","false","both pre & post","RIGHT","RIGHT","j","1","true","","","",""
"","html-keyboard-response","247","539264","0.0-416.0","yatz3hhq","1280","720","","","","","","","","","","","null","+","Fixation - short","","null","","","","","","","","","","","","","","","","",""
"","html-keyboard-response","248","539888","0.0-417.0","yatz3hhq","","","","","","","","","","","","","622","ydi","Diagnostic trial","","f","","5","5","11","false","false","true","both pre & post","LEFT","LEFT","f","1","true","","","",""
"","html-keyboard-response","249","540649","0.0-420.0","yatz3hhq","1280","720","","","","","","","","","","","null","+","Fixation - short","","null","","","","","","","","","","","","","","","","",""
"","html-keyboard-response","250","541603","0.0-421.0","yatz3hhq","","","","","","","","","","","","","953","ydi","Diagnostic trial","","j","","5","6","11","false","false","false","both pre & post","LEFT","RIGHT","j","1","false","","","",""
"","html-keyboard-response","251","542363","0.0-424.0","yatz3hhq","1280","720","","","","","","","","","","","null","+","Fixation - short","","null","","","","","","","","","","","","","","","","",""
"","html-keyboard-response","252","543460","0.0-425.0","yatz3hhq","","","","","","","","","","","","","1095","ydi","Diagnostic trial","","j","","5","7","11","false","false","false","both pre & post","LEFT","RIGHT","j","1","false","","","",""
"","html-keyboard-response","253","544214","0.0-428.0","yatz3hhq","1280","720","","","","","","","","","","","null","+","Fixation - short","","null","","","","","","","","","","","","","","","","",""
"","html-keyboard-response","254","544869","0.0-429.0","yatz3hhq","","","","","","","","","","","","","653","ydi","Diagnostic trial","","j","","5","8","11","false","false","false","both pre & post","LEFT","RIGHT","j","1","false","","","",""
"","html-keyboard-response","255","545628","0.0-432.0","yatz3hhq","1280","720","","","","","","","","","","","null","+","Fixation - short","","null","","","","","","","","","","","","","","","","",""
"","html-keyboard-response","256","546244","0.0-433.0","yatz3hhq","","","","","","","","","","","","","615","drk","Diagnostic trial","","j","","5","9","11","false","false","false","both pre & post","RIGHT","RIGHT","j","1","true","","","",""
"","html-keyboard-response","257","546998","0.0-436.0","yatz3hhq","1280","720","","","","","","","","","","","null","+","Fixation - short","","null","","","","","","","","","","","","","","","","",""
"","html-keyboard-response","258","547822","0.0-437.0","yatz3hhq","","","","","","","","","","","","","822","drk","Diagnostic trial","","f","","5","10","11","false","false","true","both pre & post","RIGHT","LEFT","f","1","false","","","",""
"","html-keyboard-response","259","548581","0.0-440.0","yatz3hhq","1280","720","","","","","","","","","","","null","+","Fixation - short","","null","","","","","","","","","","","","","","","","",""
"","canvas-keyboard-response","260","549845","0.0-441.0","yatz3hhq","","","","","","","","","","","","","null","Cue","Cue","","null","","5","10","","","false","","","","","","","","","","",""
"","html-keyboard-response","261","550598","0.0-442.0","yatz3hhq","1280","720","","","","","","","","","","","null","+","Fixation - short","","null","","","","","","","","","","","","","","","","",""
"","html-keyboard-response","262","551254","0.0-443.0","yatz3hhq","","","","","","","","","","","","","654","drk","Diagnostic trial","","j","","5","11","11","true","false","false","both pre & post","RIGHT","RIGHT","j","1","true","","","",""
"","html-keyboard-response","263","552011","0.0-446.0","yatz3hhq","1280","720","","","","","","","","","","","null","+","Fixation - short","","null","","","","","","","","","","","","","","","","",""
"","html-keyboard-response","264","552940","0.0-447.0","yatz3hhq","","","","","","","","","","","","","927","ydi","Diagnostic trial","","f","","5","12","11","true","false","true","both pre & post","LEFT","LEFT","f","1","true","","","",""
"","html-keyboard-response","265","553697","0.0-450.0","yatz3hhq","1280","720","","","","","","","","","","","null","+","Fixation - short","","null","","","","","","","","","","","","","","","","",""
"","html-keyboard-response","266","554417","0.0-451.0","yatz3hhq","","","","","","","","","","","","","719","ydi","Diagnostic trial","","f","","5","13","11","true","false","true","both pre & post","LEFT","LEFT","f","1","true","","","",""
"","html-keyboard-response","267","555180","0.0-454.0","yatz3hhq","1280","720","","","","","","","","","","","null","+","Fixation - short","","null","","","","","","","","","","","","","","","","",""
"","html-keyboard-response","268","556137","0.0-455.0","yatz3hhq","","","","","","","","","","","","","956","drk","Diagnostic trial","","f","","5","14","11","true","false","true","both pre & post","RIGHT","LEFT","f","1","false","","","",""
"","html-keyboard-response","269","556895","0.0-458.0","yatz3hhq","1280","720","","","","","","","","","","","null","+","Fixation - short","","null","","","","","","","","","","","","","","","","",""
"","html-keyboard-response","270","557631","0.0-459.0","yatz3hhq","","","","","","","","","","","","","735","drk","Inducer trial","","j","","5","","","","true","","","","","j","1","","false","RIGHT","",""
"","html-keyboard-response","271","558397","0.0-462.0","yatz3hhq","1280","720","","","","","","","","","","","null","+","Fixation - short","","null","","","","","","","","","","","","","","","","",""
"","html-keyboard-response","272","562778","0.0-463.0","yatz3hhq","","","","","","","","","","","","","4380","If ebe press LEFT | If jup press RIGHT","Inducer instructions",""," ","","6","","","","","","","","","","","","","","",""
"","html-keyboard-response","273","563545","0.0-464.0","yatz3hhq","1280","720","","","","","","","","","","","null","+","Fixation - short","","null","","","","","","","","","","","","","","","","",""
"","html-keyboard-response","274","564338","0.0-465.0","yatz3hhq","","","","","","","","","","","","","791","jup","Diagnostic trial","","f","","6","0","6","false","false","true","both pre & post","RIGHT","LEFT","f","1","false","","","",""
"","html-keyboard-response","275","565097","0.0-468.0","yatz3hhq","1280","720","","","","","","","","","","","null","+","Fixation - short","","null","","","","","","","","","","","","","","","","",""
"","html-keyboard-response","276","565803","0.0-469.0","yatz3hhq","","","","","","","","","","","","","704","ebe","Diagnostic trial","","f","","6","1","6","false","false","true","both pre & post","LEFT","LEFT","f","1","true","","","",""
"","html-keyboard-response","277","566564","0.0-472.0","yatz3hhq","1280","720","","","","","","","","","","","null","+","Fixation - short","","null","","","","","","","","","","","","","","","","",""
"","html-keyboard-response","278","567174","0.0-473.0","yatz3hhq","","","","","","","","","","","","","608","ebe","Diagnostic trial","","j","","6","2","6","false","false","false","both pre & post","LEFT","RIGHT","j","1","false","","","",""
"","html-keyboard-response","279","567932","0.0-476.0","yatz3hhq","1280","720","","","","","","","","","","","null","+","Fixation - short","","null","","","","","","","","","","","","","","","","",""
"","html-keyboard-response","280","568495","0.0-477.0","yatz3hhq","","","","","","","","","","","","","561","jup","Diagnostic trial","","f","","6","3","6","false","false","true","both pre & post","RIGHT","LEFT","f","1","false","","","",""
"","html-keyboard-response","281","569247","0.0-480.0","yatz3hhq","1280","720","","","","","","","","","","","null","+","Fixation - short","","null","","","","","","","","","","","","","","","","",""
"","html-keyboard-response","282","569984","0.0-481.0","yatz3hhq","","","","","","","","","","","","","735","ebe","Diagnostic trial","","j","","6","4","6","false","false","false","both pre & post","LEFT","RIGHT","j","1","false","","","",""
"","html-keyboard-response","283","570746","0.0-484.0","yatz3hhq","1280","720","","","","","","","","","","","null","+","Fixation - short","","null","","","","","","","","","","","","","","","","",""
"","html-keyboard-response","284","571477","0.0-485.0","yatz3hhq","","","","","","","","","","","","","730","ebe","Diagnostic trial","","f","","6","5","6","false","false","true","both pre & post","LEFT","LEFT","f","1","true","","","",""
"","html-keyboard-response","285","572232","0.0-488.0","yatz3hhq","1280","720","","","","","","","","","","","null","+","Fixation - short","","null","","","","","","","","","","","","","","","","",""
"","canvas-keyboard-response","286","573497","0.0-489.0","yatz3hhq","","","","","","","","","","","","","null","Cue","Cue","","null","","6","5","","","false","","","","","","","","","","",""
"","html-keyboard-response","287","574250","0.0-490.0","yatz3hhq","1280","720","","","","","","","","","","","null","+","Fixation - short","","null","","","","","","","","","","","","","","","","",""
"","html-keyboard-response","288","574891","0.0-491.0","yatz3hhq","","","","","","","","","","","","","640","ebe","Diagnostic trial","","j","","6","6","6","true","false","false","both pre & post","LEFT","RIGHT","j","1","false","","","",""
"","html-keyboard-response","289","575652","0.0-494.0","yatz3hhq","1280","720","","","","","","","","","","","null","+","Fixation - short","","null","","","","","","","","","","","","","","","","",""
"","html-keyboard-response","290","576326","0.0-495.0","yatz3hhq","","","","","","","","","","","","","673","ebe","Diagnostic trial","","j","","6","7","6","true","false","false","both pre & post","LEFT","RIGHT","j","1","false","","","",""
"","html-keyboard-response","291","577082","0.0-498.0","yatz3hhq","1280","720","","","","","","","","","","","null","+","Fixation - short","","null","","","","","","","","","","","","","","","","",""
"","html-keyboard-response","292","578049","0.0-499.0","yatz3hhq","","","","","","","","","","","","","965","jup","Diagnostic trial","","f","","6","8","6","true","false","true","both pre & post","RIGHT","LEFT","f","1","false","","","",""
"","html-keyboard-response","293","578812","0.0-502.0","yatz3hhq","1280","720","","","","","","","","","","","null","+","Fixation - short","","null","","","","","","","","","","","","","","","","",""
"","html-keyboard-response","294","579908","0.0-503.0","yatz3hhq","","","","","","","","","","","","","1095","jup","Inducer trial","","j","","6","","","","true","","","","","j","1","","false","RIGHT","",""
"","html-keyboard-response","295","580667","0.0-506.0","yatz3hhq","1280","720","","","","","","","","","","","null","+","Fixation - short","","null","","","","","","","","","","","","","","","","",""
"","html-keyboard-response","296","586946","0.0-507.0","yatz3hhq","","","","","","","","","","","","","6278","If lff press LEFT | If guf press RIGHT","Inducer instructions",""," ","","7","","","","","","","","","","","","","","",""
"","html-keyboard-response","297","587713","0.0-508.0","yatz3hhq","1280","720","","","","","","","","","","","null","+","Fixation - short","","null","","","","","","","","","","","","","","","","",""
"","html-keyboard-response","298","588445","0.0-509.0","yatz3hhq","","","","","","","","","","","","","730","lff","Diagnostic trial","","j","","7","0","7","false","false","false","both pre & post","LEFT","RIGHT","j","1","false","","","",""
"","html-keyboard-response","299","589198","0.0-512.0","yatz3hhq","1280","720","","","","","","","","","","","null","+","Fixation - short","","null","","","","","","","","","","","","","","","","",""
"","html-keyboard-response","300","589902","0.0-513.0","yatz3hhq","","","","","","","","","","","","","703","lff","Diagnostic trial","","f","","7","1","7","false","false","true","both pre & post","LEFT","LEFT","f","1","true","","","",""
"","html-keyboard-response","301","590665","0.0-516.0","yatz3hhq","1280","720","","","","","","","","","","","null","+","Fixation - short","","null","","","","","","","","","","","","","","","","",""
"","html-keyboard-response","302","592204","0.0-517.0","yatz3hhq","","","","","","","","","","","","","1538","guf","Diagnostic trial","","f","","7","2","7","false","false","true","both pre & post","RIGHT","LEFT","f","1","false","","","",""
"","html-keyboard-response","303","592964","0.0-520.0","yatz3hhq","1280","720","","","","","","","","","","","null","+","Fixation - short","","null","","","","","","","","","","","","","","","","",""
"","html-keyboard-response","304","593550","0.0-521.0","yatz3hhq","","","","","","","","","","","","","585","lff","Diagnostic trial","","f","","7","3","7","false","false","true","both pre & post","LEFT","LEFT","f","1","true","","","",""
"","html-keyboard-response","305","594313","0.0-524.0","yatz3hhq","1280","720","","","","","","","","","","","null","+","Fixation - short","","null","","","","","","","","","","","","","","","","",""
"","html-keyboard-response","306","594924","0.0-525.0","yatz3hhq","","","","","","","","","","","","","610","guf","Diagnostic trial","","f","","7","4","7","false","false","true","both pre & post","RIGHT","LEFT","f","1","false","","","",""
"","html-keyboard-response","307","595681","0.0-528.0","yatz3hhq","1280","720","","","","","","","","","","","null","+","Fixation - short","","null","","","","","","","","","","","","","","","","",""
"","html-keyboard-response","308","596412","0.0-529.0","yatz3hhq","","","","","","","","","","","","","729","lff","Diagnostic trial","","f","","7","5","7","false","false","true","both pre & post","LEFT","LEFT","f","1","true","","","",""
"","html-keyboard-response","309","597164","0.0-532.0","yatz3hhq","1280","720","","","","","","","","","","","null","+","Fixation - short","","null","","","","","","","","","","","","","","","","",""
"","html-keyboard-response","310","597752","0.0-533.0","yatz3hhq","","","","","","","","","","","","","586","lff","Diagnostic trial","","f","","7","6","7","false","false","true","both pre & post","LEFT","LEFT","f","1","true","","","",""
"","html-keyboard-response","311","598512","0.0-536.0","yatz3hhq","1280","720","","","","","","","","","","","null","+","Fixation - short","","null","","","","","","","","","","","","","","","","",""
"","canvas-keyboard-response","312","599776","0.0-537.0","yatz3hhq","","","","","","","","","","","","","null","Cue","Cue","","null","","7","6","","","false","","","","","","","","","","",""
"","html-keyboard-response","313","600536","0.0-538.0","yatz3hhq","1280","720","","","","","","","","","","","null","+","Fixation - short","","null","","","","","","","","","","","","","","","","",""
"","html-keyboard-response","314","601208","0.0-539.0","yatz3hhq","","","","","","","","","","","","","672","lff","Diagnostic trial","","f","","7","7","7","true","false","true","both pre & post","LEFT","LEFT","f","1","true","","","",""
"","html-keyboard-response","315","601967","0.0-542.0","yatz3hhq","1280","720","","","","","","","","","","","null","+","Fixation - short","","null","","","","","","","","","","","","","","","","",""
"","html-keyboard-response","316","602737","0.0-543.0","yatz3hhq","","","","","","","","","","","","","769","guf","Diagnostic trial","","f","","7","8","7","true","false","true","both pre & post","RIGHT","LEFT","f","1","false","","","",""
"","html-keyboard-response","317","603496","0.0-546.0","yatz3hhq","1280","720","","","","","","","","","","","null","+","Fixation - short","","null","","","","","","","","","","","","","","","","",""
"","html-keyboard-response","318","604215","0.0-547.0","yatz3hhq","","","","","","","","","","","","","718","guf","Diagnostic trial","","f","","7","9","7","true","false","true","both pre & post","RIGHT","LEFT","f","1","false","","","",""
"","html-keyboard-response","319","604981","0.0-550.0","yatz3hhq","1280","720","","","","","","","","","","","null","+","Fixation - short","","null","","","","","","","","","","","","","","","","",""
"","html-keyboard-response","320","605583","0.0-551.0","yatz3hhq","","","","","","","","","","","","","601","guf","Diagnostic trial","","f","","7","10","7","true","false","true","both pre & post","RIGHT","LEFT","f","1","false","","","",""
"","html-keyboard-response","321","606347","0.0-554.0","yatz3hhq","1280","720","","","","","","","","","","","null","+","Fixation - short","","null","","","","","","","","","","","","","","","","",""
"","html-keyboard-response","322","607212","0.0-555.0","yatz3hhq","","","","","","","","","","","","","863","lff","Inducer trial","","f","","7","","","","true","","","","","f","1","","false","LEFT","",""
"","html-keyboard-response","323","607964","0.0-558.0","yatz3hhq","1280","720","","","","","","","","","","","null","+","Fixation - short","","null","","","","","","","","","","","","","","","","",""
"","html-keyboard-response","324","610371","0.0-559.0","yatz3hhq","","","","","","","","","","","","","2405","If asn press LEFT | If vle press RIGHT","Inducer instructions",""," ","","8","","","","","","","","","","","","","","",""
"","html-keyboard-response","325","611130","0.0-560.0","yatz3hhq","1280","720","","","","","","","","","","","null","+","Fixation - short","","null","","","","","","","","","","","","","","","","",""
"","html-keyboard-response","326","611802","0.0-561.0","yatz3hhq","","","","","","","","","","","","","670","asn","Diagnostic trial","","j","","8","0","6","false","false","false","both pre & post","LEFT","RIGHT","j","1","false","","","",""
"","html-keyboard-response","327","612563","0.0-564.0","yatz3hhq","1280","720","","","","","","","","","","","null","+","Fixation - short","","null","","","","","","","","","","","","","","","","",""
"","html-keyboard-response","328","613300","0.0-565.0","yatz3hhq","","","","","","","","","","","","","736","asn","Diagnostic trial","","j","","8","1","6","false","false","false","both pre & post","LEFT","RIGHT","j","1","false","","","",""
"","html-keyboard-response","329","614065","0.0-568.0","yatz3hhq","1280","720","","","","","","","","","","","null","+","Fixation - short","","null","","","","","","","","","","","","","","","","",""
"","html-keyboard-response","330","614876","0.0-569.0","yatz3hhq","","","","","","","","","","","","","810","vle","Diagnostic trial","","j","","8","2","6","false","false","false","both pre & post","RIGHT","RIGHT","j","1","true","","","",""
"","html-keyboard-response","331","615634","0.0-572.0","yatz3hhq","1280","720","","","","","","","","","","","null","+","Fixation - short","","null","","","","","","","","","","","","","","","","",""
"","html-keyboard-response","332","616302","0.0-573.0","yatz3hhq","","","","","","","","","","","","","667","vle","Diagnostic trial","","j","","8","3","6","false","false","false","both pre & post","RIGHT","RIGHT","j","1","true","","","",""
"","html-keyboard-response","333","617063","0.0-576.0","yatz3hhq","1280","720","","","","","","","","","","","null","+","Fixation - short","","null","","","","","","","","","","","","","","","","",""
"","html-keyboard-response","334","617701","0.0-577.0","yatz3hhq","","","","","","","","","","","","","637","asn","Diagnostic trial","","j","","8","4","6","false","false","false","both pre & post","LEFT","RIGHT","j","1","false","","","",""
"","html-keyboard-response","335","618464","0.0-580.0","yatz3hhq","1280","720","","","","","","","","","","","null","+","Fixation - short","","null","","","","","","","","","","","","","","","","",""
"","html-keyboard-response","336","619045","0.0-581.0","yatz3hhq","","","","","","","","","","","","","580","vle","Diagnostic trial","","f","","8","5","6","false","false","true","both pre & post","RIGHT","LEFT","f","1","false","","","",""
"","html-keyboard-response","337","619797","0.0-584.0","yatz3hhq","1280","720","","","","","","","","","","","null","+","Fixation - short","","null","","","","","","","","","","","","","","","","",""
"","canvas-keyboard-response","338","621050","0.0-585.0","yatz3hhq","","","","","","","","","","","","","null","Cue","Cue","","null","","8","5","","","false","","","","","","","","","","",""
"","html-keyboard-response","339","621813","0.0-586.0","yatz3hhq","1280","720","","","","","","","","","","","null","+","Fixation - short","","null","","","","","","","","","","","","","","","","",""
"","html-keyboard-response","340","622517","0.0-587.0","yatz3hhq","","","","","","","","","","","","","703","asn","Diagnostic trial","","j","","8","6","6","true","false","false","both pre & post","LEFT","RIGHT","j","1","false","","","",""
"","html-keyboard-response","341","623281","0.0-590.0","yatz3hhq","1280","720","","","","","","","","","","","null","+","Fixation - short","","null","","","","","","","","","","","","","","","","",""
"","html-keyboard-response","342","624731","0.0-591.0","yatz3hhq","","","","","","","","","","","","","1449","vle","Diagnostic trial","","f","","8","7","6","true","false","true","both pre & post","RIGHT","LEFT","f","1","false","","","",""
"","html-keyboard-response","343","625483","0.0-594.0","yatz3hhq","1280","720","","","","","","","","","","","null","+","Fixation - short","","null","","","","","","","","","","","","","","","","",""
"","html-keyboard-response","344","626523","0.0-595.0","yatz3hhq","","","","","","","","","","","","","1038","vle","Diagnostic trial","","f","","8","8","6","true","false","false","both pre & post","RIGHT","RIGHT","j","0","true","","","",""
"","call-function","345","626523","0.0-597.0-0.0","yatz3hhq","","","","","","","","","","","","","","","","","","","","","","","","","","","","","","","","","",""
"","html-keyboard-response","346","626830","0.0-597.0-1.0","yatz3hhq","1280","720","","","","","","","","","","","null","Wrong","Feedback","","null","","","","","","","","","","","","","","","","",""
"","call-function","347","626831","0.0-597.0-2.0","yatz3hhq","","","","","","","","","","","","","","","","","","","","","","","","","","","","","","","","","",""
"","html-keyboard-response","348","627583","0.0-598.0","yatz3hhq","1280","720","","","","","","","","","","","null","+","Fixation - short","","null","","","","","","","","","","","","","","","","",""
"","html-keyboard-response","349","628305","0.0-599.0","yatz3hhq","","","","","","","","","","","","","720","asn","Diagnostic trial","","j","","8","9","6","true","false","false","both pre & post","LEFT","RIGHT","j","1","false","","","",""
"","html-keyboard-response","350","629064","0.0-602.0","yatz3hhq","1280","720","","","","","","","","","","","null","+","Fixation - short","","null","","","","","","","","","","","","","","","","",""
"","html-keyboard-response","351","630409","0.0-603.0","yatz3hhq","","","","","","","","","","","","","1344","asn","Inducer trial","","f","","8","","","","true","","","","","f","1","","false","LEFT","",""
"","html-keyboard-response","352","631168","0.0-606.0","yatz3hhq","1280","720","","","","","","","","","","","null","+","Fixation - short","","null","","","","","","","","","","","","","","","","",""
"","html-keyboard-response","353","637993","0.0-607.0","yatz3hhq","","","","","","","","","","","","","6824","If jcr press LEFT | If goj press RIGHT","Inducer instructions",""," ","","9","","","","","","","","","","","","","","",""
"","html-keyboard-response","354","638751","0.0-608.0","yatz3hhq","1280","720","","","","","","","","","","","null","+","Fixation - short","","null","","","","","","","","","","","","","","","","",""
"","html-keyboard-response","355","639679","0.0-609.0","yatz3hhq","","","","","","","","","","","","","927","jcr","Diagnostic trial","","f","","9","0","9","false","false","true","both pre & post","LEFT","LEFT","f","1","true","","","",""
"","html-keyboard-response","356","640447","0.0-612.0","yatz3hhq","1280","720","","","","","","","","","","","null","+","Fixation - short","","null","","","","","","","","","","","","","","","","",""
"","html-keyboard-response","357","641107","0.0-613.0","yatz3hhq","","","","","","","","","","","","","658","jcr","Diagnostic trial","","f","","9","1","9","false","false","true","both pre & post","LEFT","LEFT","f","1","true","","","",""
"","html-keyboard-response","358","641864","0.0-616.0","yatz3hhq","1280","720","","","","","","","","","","","null","+","Fixation - short","","null","","","","","","","","","","","","","","","","",""
"","html-keyboard-response","359","642620","0.0-617.0","yatz3hhq","","","","","","","","","","","","","754","goj","Diagnostic trial","","f","","9","2","9","false","false","true","both pre & post","RIGHT","LEFT","f","1","false","","","",""
"","html-keyboard-response","360","643381","0.0-620.0","yatz3hhq","1280","720","","","","","","","","","","","null","+","Fixation - short","","null","","","","","","","","","","","","","","","","",""
"","html-keyboard-response","361","643949","0.0-621.0","yatz3hhq","","","","","","","","","","","","","567","goj","Diagnostic trial","","f","","9","3","9","false","false","true","both pre & post","RIGHT","LEFT","f","1","false","","","",""
"","html-keyboard-response","362","644714","0.0-624.0","yatz3hhq","1280","720","","","","","","","","","","","null","+","Fixation - short","","null","","","","","","","","","","","","","","","","",""
"","html-keyboard-response","363","645339","0.0-625.0","yatz3hhq","","","","","","","","","","","","","623","goj","Diagnostic trial","","f","","9","4","9","false","false","true","both pre & post","RIGHT","LEFT","f","1","false","","","",""
"","html-keyboard-response","364","646101","0.0-628.0","yatz3hhq","1280","720","","","","","","","","","","","null","+","Fixation - short","","null","","","","","","","","","","","","","","","","",""
"","html-keyboard-response","365","646890","0.0-629.0","yatz3hhq","","","","","","","","","","","","","789","goj","Diagnostic trial","","j","","9","5","9","false","false","false","both pre & post","RIGHT","RIGHT","j","1","true","","","",""
"","html-keyboard-response","366","647646","0.0-632.0","yatz3hhq","1280","720","","","","","","","","","","","null","+","Fixation - short","","null","","","","","","","","","","","","","","","","",""
"","html-keyboard-response","367","648787","0.0-633.0","yatz3hhq","","","","","","","","","","","","","1139","jcr","Diagnostic trial","","j","","9","6","9","false","false","false","both pre & post","LEFT","RIGHT","j","1","false","","","",""
"","html-keyboard-response","368","649548","0.0-636.0","yatz3hhq","1280","720","","","","","","","","","","","null","+","Fixation - short","","null","","","","","","","","","","","","","","","","",""
"","html-keyboard-response","369","650365","0.0-637.0","yatz3hhq","","","","","","","","","","","","","817","jcr","Diagnostic trial","","f","","9","7","9","false","false","true","both pre & post","LEFT","LEFT","f","1","true","","","",""
"","html-keyboard-response","370","651132","0.0-640.0","yatz3hhq","1280","720","","","","","","","","","","","null","+","Fixation - short","","null","","","","","","","","","","","","","","","","",""
"","html-keyboard-response","371","651930","0.0-641.0","yatz3hhq","","","","","","","","","","","","","797","goj","Diagnostic trial","","f","","9","8","9","false","false","true","both pre & post","RIGHT","LEFT","f","1","false","","","",""
"","html-keyboard-response","372","652684","0.0-644.0","yatz3hhq","1280","720","","","","","","","","","","","null","+","Fixation - short","","null","","","","","","","","","","","","","","","","",""
"","canvas-keyboard-response","373","653948","0.0-645.0","yatz3hhq","","","","","","","","","","","","","null","Cue","Cue","","null","","9","8","","","false","","","","","","","","","","",""
"","html-keyboard-response","374","654714","0.0-646.0","yatz3hhq","1280","720","","","","","","","","","","","null","+","Fixation - short","","null","","","","","","","","","","","","","","","","",""
"","html-keyboard-response","375","655531","0.0-647.0","yatz3hhq","","","","","","","","","","","","","815","goj","Inducer trial","","j","","9","","","","true","","","","","j","1","","false","RIGHT","",""
"","html-keyboard-response","376","656299","0.0-650.0","yatz3hhq","1280","720","","","","","","","","","","","null","+","Fixation - short","","null","","","","","","","","","","","","","","","","",""
"","html-keyboard-response","377","658235","0.0-651.0","yatz3hhq","","","","","","","","","","","","","1935","If kue press LEFT | If hlb press RIGHT","Inducer instructions",""," ","","10","","","","","","","","","","","","","","",""
"","html-keyboard-response","378","658998","0.0-652.0","yatz3hhq","1280","720","","","","","","","","","","","null","+","Fixation - short","","null","","","","","","","","","","","","","","","","",""
"","html-keyboard-response","379","659882","0.0-653.0","yatz3hhq","","","","","","","","","","","","","883","kue","Diagnostic trial","","f","","10","0","5","false","false","true","both pre & post","LEFT","LEFT","f","1","true","","","",""
"","html-keyboard-response","380","660649","0.0-656.0","yatz3hhq","1280","720","","","","","","","","","","","null","+","Fixation - short","","null","","","","","","","","","","","","","","","","",""
"","html-keyboard-response","381","661322","0.0-657.0","yatz3hhq","","","","","","","","","","","","","671","hlb","Diagnostic trial","","f","","10","1","5","false","false","true","both pre & post","RIGHT","LEFT","f","1","false","","","",""
"","html-keyboard-response","382","662082","0.0-660.0","yatz3hhq","1280","720","","","","","","","","","","","null","+","Fixation - short","","null","","","","","","","","","","","","","","","","",""
"","html-keyboard-response","383","662663","0.0-661.0","yatz3hhq","","","","","","","","","","","","","579","hlb","Diagnostic trial","","j","","10","2","5","false","false","false","both pre & post","RIGHT","RIGHT","j","1","true","","","",""
"","html-keyboard-response","384","663415","0.0-664.0","yatz3hhq","1280","720","","","","","","","","","","","null","+","Fixation - short","","null","","","","","","","","","","","","","","","","",""
"","html-keyboard-response","385","663977","0.0-665.0","yatz3hhq","","","","","","","","","","","","","561","hlb","Diagnostic trial","","j","","10","3","5","false","false","false","both pre & post","RIGHT","RIGHT","j","1","true","","","",""
"","html-keyboard-response","386","664733","0.0-668.0","yatz3hhq","1280","720","","","","","","","","","","","null","+","Fixation - short","","null","","","","","","","","","","","","","","","","",""
"","html-keyboard-response","387","665302","0.0-669.0","yatz3hhq","","","","","","","","","","","","","568","kue","Diagnostic trial","","f","","10","4","5","false","false","true","both pre & post","LEFT","LEFT","f","1","true","","","",""
"","html-keyboard-response","388","666064","0.0-672.0","yatz3hhq","1280","720","","","","","","","","","","","null","+","Fixation - short","","null","","","","","","","","","","","","","","","","",""
"","canvas-keyboard-response","389","667316","0.0-673.0","yatz3hhq","","","","","","","","","","","","","null","Cue","Cue","","null","","10","4","","","false","","","","","","","","","","",""
"","html-keyboard-response","390","668081","0.0-674.0","yatz3hhq","1280","720","","","","","","","","","","","null","+","Fixation - short","","null","","","","","","","","","","","","","","","","",""
"","html-keyboard-response","391","668854","0.0-675.0","yatz3hhq","","","","","","","","","","","","","771","kue","Diagnostic trial","","f","","10","5","5","true","false","true","both pre & post","LEFT","LEFT","f","1","true","","","",""
"","html-keyboard-response","392","669614","0.0-678.0","yatz3hhq","1280","720","","","","","","","","","","","null","+","Fixation - short","","null","","","","","","","","","","","","","","","","",""
"","html-keyboard-response","393","670423","0.0-679.0","yatz3hhq","","","","","","","","","","","","","807","kue","Diagnostic trial","","f","","10","6","5","true","false","true","both pre & post","LEFT","LEFT","f","1","true","","","",""
"","html-keyboard-response","394","671181","0.0-682.0","yatz3hhq","1280","720","","","","","","","","","","","null","+","Fixation - short","","null","","","","","","","","","","","","","","","","",""
"","html-keyboard-response","395","671918","0.0-683.0","yatz3hhq","","","","","","","","","","","","","735","hlb","Diagnostic trial","","f","","10","7","5","true","false","true","both pre & post","RIGHT","LEFT","f","1","false","","","",""
"","html-keyboard-response","396","672682","0.0-686.0","yatz3hhq","1280","720","","","","","","","","","","","null","+","Fixation - short","","null","","","","","","","","","","","","","","","","",""
"","html-keyboard-response","397","673335","0.0-687.0","yatz3hhq","","","","","","","","","","","","","652","hlb","Diagnostic trial","","f","","10","8","5","true","false","true","both pre & post","RIGHT","LEFT","f","1","false","","","",""
"","html-keyboard-response","398","674098","0.0-690.0","yatz3hhq","1280","720","","","","","","","","","","","null","+","Fixation - short","","null","","","","","","","","","","","","","","","","",""
"","html-keyboard-response","399","675011","0.0-691.0","yatz3hhq","","","","","","","","","","","","","912","kue","Inducer trial","","f","","10","","","","true","","","","","f","1","","false","LEFT","",""
"","html-keyboard-response","400","675766","0.0-694.0","yatz3hhq","1280","720","","","","","","","","","","","null","+","Fixation - short","","null","","","","","","","","","","","","","","","","",""
"","html-keyboard-response","401","685747","0.0-695.0","yatz3hhq","","","","","","","","","","","","","9980","If vbt press LEFT | If vnn press RIGHT","Inducer instructions",""," ","","11","","","","","","","","","","","","","","",""
"","html-keyboard-response","402","686514","0.0-696.0","yatz3hhq","1280","720","","","","","","","","","","","null","+","Fixation - short","","null","","","","","","","","","","","","","","","","",""
"","html-keyboard-response","403","687469","0.0-697.0","yatz3hhq","","","","","","","","","","","","","953","vbt","Diagnostic trial","","j","","11","0","7","false","false","false","both pre & post","LEFT","RIGHT","j","1","false","","","",""
"","html-keyboard-response","404","688231","0.0-700.0","yatz3hhq","1280","720","","","","","","","","","","","null","+","Fixation - short","","null","","","","","","","","","","","","","","","","",""
"","html-keyboard-response","405","689492","0.0-701.0","yatz3hhq","","","","","","","","","","","","","1259","vbt","Diagnostic trial","","f","","11","1","7","false","false","true","both pre & post","LEFT","LEFT","f","1","true","","","",""
"","html-keyboard-response","406","690250","0.0-704.0","yatz3hhq","1280","720","","","","","","","","","","","null","+","Fixation - short","","null","","","","","","","","","","","","","","","","",""
"","html-keyboard-response","407","691174","0.0-705.0","yatz3hhq","","","","","","","","","","","","","922","vnn","Diagnostic trial","","j","","11","2","7","false","false","false","both pre & post","RIGHT","RIGHT","j","1","true","","","",""
"","html-keyboard-response","408","691933","0.0-708.0","yatz3hhq","1280","720","","","","","","","","","","","null","+","Fixation - short","","null","","","","","","","","","","","","","","","","",""
"","html-keyboard-response","409","693017","0.0-709.0","yatz3hhq","","","","","","","","","","","","","1083","vbt","Diagnostic trial","","j","","11","3","7","false","false","false","both pre & post","LEFT","RIGHT","j","1","false","","","",""
"","html-keyboard-response","410","693782","0.0-712.0","yatz3hhq","1280","720","","","","","","","","","","","null","+","Fixation - short","","null","","","","","","","","","","","","","","","","",""
"","html-keyboard-response","411","695011","0.0-713.0","yatz3hhq","","","","","","","","","","","","","1228","vnn","Diagnostic trial","","j","","11","4","7","false","false","false","both pre & post","RIGHT","RIGHT","j","1","true","","","",""
"","html-keyboard-response","412","695765","0.0-716.0","yatz3hhq","1280","720","","","","","","","","","","","null","+","Fixation - short","","null","","","","","","","","","","","","","","","","",""
"","html-keyboard-response","413","696443","0.0-717.0","yatz3hhq","","","","","","","","","","","","","676","vbt","Diagnostic trial","","f","","11","5","7","false","false","true","both pre & post","LEFT","LEFT","f","1","true","","","",""
"","html-keyboard-response","414","697201","0.0-720.0","yatz3hhq","1280","720","","","","","","","","","","","null","+","Fixation - short","","null","","","","","","","","","","","","","","","","",""
"","html-keyboard-response","415","698457","0.0-721.0","yatz3hhq","","","","","","","","","","","","","1255","vnn","Diagnostic trial","","j","","11","6","7","false","false","false","both pre & post","RIGHT","RIGHT","j","1","true","","","",""
"","html-keyboard-response","416","699217","0.0-724.0","yatz3hhq","1280","720","","","","","","","","","","","null","+","Fixation - short","","null","","","","","","","","","","","","","","","","",""
"","canvas-keyboard-response","417","700483","0.0-725.0","yatz3hhq","","","","","","","","","","","","","null","Cue","Cue","","null","","11","6","","","false","","","","","","","","","","",""
"","html-keyboard-response","418","701248","0.0-726.0","yatz3hhq","1280","720","","","","","","","","","","","null","+","Fixation - short","","null","","","","","","","","","","","","","","","","",""
"","html-keyboard-response","419","702158","0.0-727.0","yatz3hhq","","","","","","","","","","","","","908","vbt","Diagnostic trial","","f","","11","7","7","true","false","true","both pre & post","LEFT","LEFT","f","1","true","","","",""
"","html-keyboard-response","420","702917","0.0-730.0","yatz3hhq","1280","720","","","","","","","","","","","null","+","Fixation - short","","null","","","","","","","","","","","","","","","","",""
"","html-keyboard-response","421","703801","0.0-731.0","yatz3hhq","","","","","","","","","","","","","882","vnn","Inducer trial","","j","","11","","","","true","","","","","j","1","","false","RIGHT","",""
"","html-keyboard-response","422","704564","0.0-734.0","yatz3hhq","1280","720","","","","","","","","","","","null","+","Fixation - short","","null","","","","","","","","","","","","","","","","",""
"","html-keyboard-response","423","707585","0.0-735.0","yatz3hhq","","","","","","","","","","","","","3019","If anz press LEFT | If chy press RIGHT","Inducer instructions",""," ","","12","","","","","","","","","","","","","","",""
"","html-keyboard-response","424","708348","0.0-736.0","yatz3hhq","1280","720","","","","","","","","","","","null","+","Fixation - short","","null","","","","","","","","","","","","","","","","",""
"","html-keyboard-response","425","709047","0.0-737.0","yatz3hhq","","","","","","","","","","","","","697","anz","Diagnostic trial","","f","","12","0","4","false","false","true","both pre & post","LEFT","LEFT","f","1","true","","","",""
"","html-keyboard-response","426","709800","0.0-740.0","yatz3hhq","1280","720","","","","","","","","","","","null","+","Fixation - short","","null","","","","","","","","","","","","","","","","",""
"","html-keyboard-response","427","710388","0.0-741.0","yatz3hhq","","","","","","","","","","","","","587","chy","Diagnostic trial","","j","","12","1","4","false","false","false","both pre & post","RIGHT","RIGHT","j","1","true","","","",""
"","html-keyboard-response","428","711148","0.0-744.0","yatz3hhq","1280","720","","","","","","","","","","","null","+","Fixation - short","","null","","","","","","","","","","","","","","","","",""
"","html-keyboard-response","429","712066","0.0-745.0","yatz3hhq","","","","","","","","","","","","","916","chy","Diagnostic trial","","f","","12","2","4","false","false","true","both pre & post","RIGHT","LEFT","f","1","false","","","",""
"","html-keyboard-response","430","712832","0.0-748.0","yatz3hhq","1280","720","","","","","","","","","","","null","+","Fixation - short","","null","","","","","","","","","","","","","","","","",""
"","html-keyboard-response","431","713611","0.0-749.0","yatz3hhq","","","","","","","","","","","","","777","anz","Diagnostic trial","","j","","12","3","4","false","false","false","both pre & post","LEFT","RIGHT","j","1","false","","","",""
"","html-keyboard-response","432","714366","0.0-752.0","yatz3hhq","1280","720","","","","","","","","","","","null","+","Fixation - short","","null","","","","","","","","","","","","","","","","",""
"","canvas-keyboard-response","433","715632","0.0-753.0","yatz3hhq","","","","","","","","","","","","","null","Cue","Cue","","null","","12","3","","","false","","","","","","","","","","",""
"","html-keyboard-response","434","716397","0.0-754.0","yatz3hhq","1280","720","","","","","","","","","","","null","+","Fixation - short","","null","","","","","","","","","","","","","","","","",""
"","html-keyboard-response","435","717270","0.0-755.0","yatz3hhq","","","","","","","","","","","","","872","chy","Diagnostic trial","","f","","12","4","4","true","false","true","both pre & post","RIGHT","LEFT","f","1","false","","","",""
"","html-keyboard-response","436","718033","0.0-758.0","yatz3hhq","1280","720","","","","","","","","","","","null","+","Fixation - short","","null","","","","","","","","","","","","","","","","",""
"","html-keyboard-response","437","718798","0.0-759.0","yatz3hhq","","","","","","","","","","","","","764","anz","Diagnostic trial","","j","","12","5","4","true","false","false","both pre & post","LEFT","RIGHT","j","1","false","","","",""
"","html-keyboard-response","438","719565","0.0-762.0","yatz3hhq","1280","720","","","","","","","","","","","null","+","Fixation - short","","null","","","","","","","","","","","","","","","","",""
"","html-keyboard-response","439","720306","0.0-763.0","yatz3hhq","","","","","","","","","","","","","740","chy","Diagnostic trial","","f","","12","6","4","true","false","true","both pre & post","RIGHT","LEFT","f","1","false","","","",""
"","html-keyboard-response","440","721067","0.0-766.0","yatz3hhq","1280","720","","","","","","","","","","","null","+","Fixation - short","","null","","","","","","","","","","","","","","","","",""
"","html-keyboard-response","441","721934","0.0-767.0","yatz3hhq","","","","","","","","","","","","","866","anz","Diagnostic trial","","f","","12","7","4","true","false","true","both pre & post","LEFT","LEFT","f","1","true","","","",""
"","html-keyboard-response","442","722700","0.0-770.0","yatz3hhq","1280","720","","","","","","","","","","","null","+","Fixation - short","","null","","","","","","","","","","","","","","","","",""
"","html-keyboard-response","443","723862","0.0-771.0","yatz3hhq","","","","","","","","","","","","","1160","anz","Inducer trial","","f","","12","","","","true","","","","","f","1","","false","LEFT","",""
"","html-keyboard-response","444","724617","0.0-774.0","yatz3hhq","1280","720","","","","","","","","","","","null","+","Fixation - short","","null","","","","","","","","","","","","","","","","",""
"","html-keyboard-response","445","726181","0.0-775.0","yatz3hhq","","","","","","","","","","","","","1562","If rif press LEFT | If uen press RIGHT","Inducer instructions",""," ","","13","","","","","","","","","","","","","","",""
"","html-keyboard-response","446","726934","0.0-776.0","yatz3hhq","1280","720","","","","","","","","","","","null","+","Fixation - short","","null","","","","","","","","","","","","","","","","",""
"","html-keyboard-response","447","727883","0.0-777.0","yatz3hhq","","","","","","","","","","","","","948","rif","Diagnostic trial","","j","","13","0","6","false","false","false","both pre & post","LEFT","RIGHT","j","1","false","","","",""
"","html-keyboard-response","448","728648","0.0-780.0","yatz3hhq","1280","720","","","","","","","","","","","null","+","Fixation - short","","null","","","","","","","","","","","","","","","","",""
"","html-keyboard-response","449","729178","0.0-781.0","yatz3hhq","","","","","","","","","","","","","529","uen","Diagnostic trial","","j","","13","1","6","false","false","false","both pre & post","RIGHT","RIGHT","j","1","true","","","",""
"","html-keyboard-response","450","729934","0.0-784.0","yatz3hhq","1280","720","","","","","","","","","","","null","+","Fixation - short","","null","","","","","","","","","","","","","","","","",""
"","html-keyboard-response","451","730447","0.0-785.0","yatz3hhq","","","","","","","","","","","","","512","uen","Diagnostic trial","","f","","13","2","6","false","false","true","both pre & post","RIGHT","LEFT","f","1","false","","","",""
"","html-keyboard-response","452","731199","0.0-788.0","yatz3hhq","1280","720","","","","","","","","","","","null","+","Fixation - short","","null","","","","","","","","","","","","","","","","",""
"","html-keyboard-response","453","732024","0.0-789.0","yatz3hhq","","","","","","","","","","","","","824","rif","Diagnostic trial","","j","","13","3","6","false","false","false","both pre & post","LEFT","RIGHT","j","1","false","","","",""
"","html-keyboard-response","454","732784","0.0-792.0","yatz3hhq","1280","720","","","","","","","","","","","null","+","Fixation - short","","null","","","","","","","","","","","","","","","","",""
"","html-keyboard-response","455","733331","0.0-793.0","yatz3hhq","","","","","","","","","","","","","545","uen","Diagnostic trial","","j","","13","4","6","false","false","false","both pre & post","RIGHT","RIGHT","j","1","true","","","",""
"","html-keyboard-response","456","734083","0.0-796.0","yatz3hhq","1280","720","","","","","","","","","","","null","+","Fixation - short","","null","","","","","","","","","","","","","","","","",""
