"value","trial_type","trial_index","time_elapsed","internal_node_id","id","width","height","webaudio","browser","browser_version","mobile","os","fullscreen","vsync_rate","webcam","microphone","view_history","rt","stimulus","trial_info","success","response","exp_parameters","inducer_run","diagnostic_run","cue_num","post_cue","inducer_trial","italic","forced_equal_run","correct_inducer_response_side","correct_diag_response_side","correct_response_key","correct_response","congruent","force_equal","correct_indu_response_side","accuracy","interactive"
"","call-function","0","1","0.0-0.0","wzvrqbzm","","","","","","","","","","","","","","","","","","","","","","","","","","","","","","","","","",""
"","browser-check","1","986","0.0-1.0","wzvrqbzm","1440","652","true","chrome","123.0.0","false","Mac OS","true","61.22","true","true","","","","","","","","","","","","","","","","","","","","","","",""
"","instructions","2","10074","0.0-2.0","wzvrqbzm","","","","","","","","","","","","[{""page_index"":0,""viewing_time"":1839},{""page_index"":1,""viewing_time"":5835},{""page_index"":2,""viewing_time"":1412}]","9086","The experiment and consent","The experiment and consent","","","","","","","","","","","","","","","","","","",""
"","fullscreen","3","12258","0.0-3.0","wzvrqbzm","","","","","","","","","","","","","1181","","Full screen","true","","","","","","","","","","","","","","","","","",""
"","instructions","4","36315","0.0-4.0","wzvrqbzm","","","","","","","","","","","","[{""page_index"":0,""viewing_time"":20998},{""page_index"":1,""viewing_time"":3057}]","24055","Instructions","Basic overview explanation","","","","","","","","","","","","","","","","","","",""
"","html-keyboard-response","5","44894","0.0-5.0","wzvrqbzm","","","","","","","","","","","","","7075","If italic press RIGHT | If upright press LEFT","Diagnostic instructions",""," ","{""debug"":false,""skip_instructions"":false,""skip_practice"":false,""save_local_data"":false,""studu_name"":""exp2"",""default_background_colour"":""#cccccc"",""wrong_response_colour"":""#d22d2d"",""instruction_delay"":20000,""trial_duration"":2000,""short_fixation"":750,""long_fixation"":1500,""wrong_response_delay"":300,""too_slow_delay"":300,""instruction_font_size"":""24px"",""general_font_size"":""42px"",""fixation_size"":""48px"",""allowed_responses"":[""f"",""j""],""cue_min_length"":0,""cue_max_length"":4,""tot_post_cue_len"":72,""cue_colour"":""blue"",""cue_shape"":""Square"",""cue_size"":70,""cue_duration"":1250,""avg_number_of_cues"":3,""inducer_colour"":""yellow"",""number_of_inducers"":24,""pre_cue_italic_forced_equal"":true,""post_cue_italic_forced_equal"":true,""prac_diagnostic_rounds"":16,""prac_inducer_rounds"":6,""prac_cue_rounds"":16,""prac_post_cue_num"":3}","","","","","","","","","","","","","","","",""
"","html-keyboard-response","6","45647","0.0-6.0","wzvrqbzm","1440","900","","","","","","","","","","","null","+","Fixation - short","","null","","","","","","","","","","","","","","","","",""
"","html-keyboard-response","7","47415","0.0-7.0","wzvrqbzm","","","","","","","","","","","","","1766","psl","Diagnostic practice","","f","","Diagnostic practice","0","-84","true","false","false","prac equal","RIGHT","LEFT","f","1","false","","","",""
"","html-keyboard-response","8","48169","0.0-10.0","wzvrqbzm","1440","900","","","","","","","","","","","null","+","Fixation - short","","null","","","","","","","","","","","","","","","","",""
"","html-keyboard-response","9","48796","0.0-11.0","wzvrqbzm","","","","","","","","","","","","","626","lff","Diagnostic practice","","j","","Diagnostic practice","1","-84","true","false","true","prac equal","LEFT","RIGHT","j","1","false","","","",""
"","html-keyboard-response","10","49549","0.0-14.0","wzvrqbzm","1440","900","","","","","","","","","","","null","+","Fixation - short","","null","","","","","","","","","","","","","","","","",""
"","html-keyboard-response","11","50160","0.0-15.0","wzvrqbzm","","","","","","","","","","","","","610","lff","Diagnostic practice","","f","","Diagnostic practice","2","-84","true","false","false","prac equal","LEFT","LEFT","f","1","true","","","",""
"","html-keyboard-response","12","50913","0.0-18.0","wzvrqbzm","1440","900","","","","","","","","","","","null","+","Fixation - short","","null","","","","","","","","","","","","","","","","",""
"","html-keyboard-response","13","51388","0.0-19.0","wzvrqbzm","","","","","","","","","","","","","474","lff","Diagnostic practice","","j","","Diagnostic practice","3","-84","true","false","true","prac equal","LEFT","RIGHT","j","1","false","","","",""
"","html-keyboard-response","14","52140","0.0-22.0","wzvrqbzm","1440","900","","","","","","","","","","","null","+","Fixation - short","","null","","","","","","","","","","","","","","","","",""
"","html-keyboard-response","15","52610","0.0-23.0","wzvrqbzm","","","","","","","","","","","","","468","psl","Diagnostic practice","","f","","Diagnostic practice","4","-84","true","false","false","prac equal","RIGHT","LEFT","f","1","false","","","",""
"","html-keyboard-response","16","53363","0.0-26.0","wzvrqbzm","1440","900","","","","","","","","","","","null","+","Fixation - short","","null","","","","","","","","","","","","","","","","",""
"","html-keyboard-response","17","54062","0.0-27.0","wzvrqbzm","","","","","","","","","","","","","698","psl","Diagnostic practice","","f","","Diagnostic practice","5","-84","true","false","false","prac equal","RIGHT","LEFT","f","1","false","","","",""
"","html-keyboard-response","18","54815","0.0-30.0","wzvrqbzm","1440","900","","","","","","","","","","","null","+","Fixation - short","","null","","","","","","","","","","","","","","","","",""
"","html-keyboard-response","19","55318","0.0-31.0","wzvrqbzm","","","","","","","","","","","","","502","lff","Diagnostic practice","","j","","Diagnostic practice","6","-84","true","false","true","prac equal","LEFT","RIGHT","j","1","false","","","",""
"","html-keyboard-response","20","56070","0.0-34.0","wzvrqbzm","1440","900","","","","","","","","","","","null","+","Fixation - short","","null","","","","","","","","","","","","","","","","",""
"","html-keyboard-response","21","56615","0.0-35.0","wzvrqbzm","","","","","","","","","","","","","543","psl","Diagnostic practice","","j","","Diagnostic practice","7","-84","true","false","true","prac equal","RIGHT","RIGHT","j","1","true","","","",""
"","html-keyboard-response","22","57368","0.0-38.0","wzvrqbzm","1440","900","","","","","","","","","","","null","+","Fixation - short","","null","","","","","","","","","","","","","","","","",""
"","html-keyboard-response","23","57888","0.0-39.0","wzvrqbzm","","","","","","","","","","","","","519","psl","Diagnostic practice","","j","","Diagnostic practice","8","-84","true","false","true","prac equal","RIGHT","RIGHT","j","1","true","","","",""
"","html-keyboard-response","24","58641","0.0-42.0","wzvrqbzm","1440","900","","","","","","","","","","","null","+","Fixation - short","","null","","","","","","","","","","","","","","","","",""
"","html-keyboard-response","25","59163","0.0-43.0","wzvrqbzm","","","","","","","","","","","","","521","lff","Diagnostic practice","","j","","Diagnostic practice","9","-84","true","false","true","prac equal","LEFT","RIGHT","j","1","false","","","",""
"","html-keyboard-response","26","59916","0.0-46.0","wzvrqbzm","1440","900","","","","","","","","","","","null","+","Fixation - short","","null","","","","","","","","","","","","","","","","",""
"","html-keyboard-response","27","60348","0.0-47.0","wzvrqbzm","","","","","","","","","","","","","431","lff","Diagnostic practice","","j","","Diagnostic practice","10","-84","true","false","false","prac equal","LEFT","LEFT","f","0","true","","","",""
"","call-function","28","60349","0.0-49.0-0.0","wzvrqbzm","","","","","","","","","","","","","","","","","","","","","","","","","","","","","","","","","",""
"","html-keyboard-response","29","60650","0.0-49.0-1.0","wzvrqbzm","1440","900","","","","","","","","","","","null","Wrong","Feedback","","null","","","","","","","","","","","","","","","","",""
"","call-function","30","60651","0.0-49.0-2.0","wzvrqbzm","","","","","","","","","","","","","","","","","","","","","","","","","","","","","","","","","",""
"","html-keyboard-response","31","61403","0.0-50.0","wzvrqbzm","1440","900","","","","","","","","","","","null","+","Fixation - short","","null","","","","","","","","","","","","","","","","",""
"","html-keyboard-response","32","62012","0.0-51.0","wzvrqbzm","","","","","","","","","","","","","607","lff","Diagnostic practice","","j","","Diagnostic practice","11","-84","true","false","true","prac equal","LEFT","RIGHT","j","1","false","","","",""
"","html-keyboard-response","33","62765","0.0-54.0","wzvrqbzm","1440","900","","","","","","","","","","","null","+","Fixation - short","","null","","","","","","","","","","","","","","","","",""
"","html-keyboard-response","34","63352","0.0-55.0","wzvrqbzm","","","","","","","","","","","","","586","psl","Diagnostic practice","","f","","Diagnostic practice","12","-84","true","false","false","prac equal","RIGHT","LEFT","f","1","false","","","",""
"","html-keyboard-response","35","64105","0.0-58.0","wzvrqbzm","1440","900","","","","","","","","","","","null","+","Fixation - short","","null","","","","","","","","","","","","","","","","",""
"","html-keyboard-response","36","64708","0.0-59.0","wzvrqbzm","","","","","","","","","","","","","602","lff","Diagnostic practice","","j","","Diagnostic practice","13","-84","true","false","false","prac equal","LEFT","LEFT","f","0","true","","","",""
"","call-function","37","64708","0.0-61.0-0.0","wzvrqbzm","","","","","","","","","","","","","","","","","","","","","","","","","","","","","","","","","",""
"","html-keyboard-response","38","65011","0.0-61.0-1.0","wzvrqbzm","1440","900","","","","","","","","","","","null","Wrong","Feedback","","null","","","","","","","","","","","","","","","","",""
"","call-function","39","65012","0.0-61.0-2.0","wzvrqbzm","","","","","","","","","","","","","","","","","","","","","","","","","","","","","","","","","",""
"","html-keyboard-response","40","65764","0.0-62.0","wzvrqbzm","1440","900","","","","","","","","","","","null","+","Fixation - short","","null","","","","","","","","","","","","","","","","",""
"","html-keyboard-response","41","66410","0.0-63.0","wzvrqbzm","","","","","","","","","","","","","644","psl","Diagnostic practice","","j","","Diagnostic practice","14","-84","true","false","true","prac equal","RIGHT","RIGHT","j","1","true","","","",""
"","html-keyboard-response","42","67163","0.0-66.0","wzvrqbzm","1440","900","","","","","","","","","","","null","+","Fixation - short","","null","","","","","","","","","","","","","","","","",""
"","html-keyboard-response","43","67695","0.0-67.0","wzvrqbzm","","","","","","","","","","","","","531","psl","Diagnostic practice","","f","","Diagnostic practice","15","-84","true","false","false","prac equal","RIGHT","LEFT","f","1","false","","","",""
"","html-keyboard-response","44","68448","0.0-70.0","wzvrqbzm","1440","900","","","","","","","","","","","null","+","Fixation - short","","null","","","","","","","","","","","","","","","","",""
"","instructions","45","73749","0.0-71.0","wzvrqbzm","","","","","","","","","","","","[{""page_index"":0,""viewing_time"":5299}]","5300","Instructions","Final experiment explanation","","","","","","","","","","","","","","","","","","",""
"","html-keyboard-response","46","81733","0.0-72.0","wzvrqbzm","","","","","","","","","","","","","6481","If hhd press RIGHT | If byy press LEFT","Inducer practice",""," ","","Practice","","","","","","","","","","","","","","",""
"","html-keyboard-response","47","82487","0.0-73.0","wzvrqbzm","1440","900","","","","","","","","","","","null","+","Fixation - short","","null","","","","","","","","","","","","","","","","",""
"","html-keyboard-response","48","82948","0.0-74.0","wzvrqbzm","","","","","","","","","","","","","460","hhd","Inducer practice","","j","","Practice","","","","true","","","","","j","1","","true","RIGHT","",""
"","html-keyboard-response","49","83701","0.0-77.0","wzvrqbzm","1440","900","","","","","","","","","","","null","+","Fixation - short","","null","","","","","","","","","","","","","","","","",""
"","html-keyboard-response","50","86663","0.0-78.0","wzvrqbzm","","","","","","","","","","","","","2961","If cmj press RIGHT | If vrm press LEFT","Inducer practice",""," ","","Practice","","","","","","","","","","","","","","",""
"","html-keyboard-response","51","87416","0.0-79.0","wzvrqbzm","1440","900","","","","","","","","","","","null","+","Fixation - short","","null","","","","","","","","","","","","","","","","",""
"","html-keyboard-response","52","87949","0.0-80.0","wzvrqbzm","","","","","","","","","","","","","531","vrm","Inducer practice","","f","","Practice","","","","true","","","","","f","1","","true","LEFT","",""
"","html-keyboard-response","53","88701","0.0-83.0","wzvrqbzm","1440","900","","","","","","","","","","","null","+","Fixation - short","","null","","","","","","","","","","","","","","","","",""
"","html-keyboard-response","54","90883","0.0-84.0","wzvrqbzm","","","","","","","","","","","","","2180","If drk press RIGHT | If cnl press LEFT","Inducer practice",""," ","","Practice","","","","","","","","","","","","","","",""
"","html-keyboard-response","55","91635","0.0-85.0","wzvrqbzm","1440","900","","","","","","","","","","","null","+","Fixation - short","","null","","","","","","","","","","","","","","","","",""
"","html-keyboard-response","56","92068","0.0-86.0","wzvrqbzm","","","","","","","","","","","","","431","drk","Inducer practice","","j","","Practice","","","","true","","","","","j","1","","true","RIGHT","",""
"","html-keyboard-response","57","92820","0.0-89.0","wzvrqbzm","1440","900","","","","","","","","","","","null","+","Fixation - short","","null","","","","","","","","","","","","","","","","",""
"","html-keyboard-response","58","94088","0.0-90.0","wzvrqbzm","","","","","","","","","","","","","1266","If feg press RIGHT | If nga press LEFT","Inducer practice",""," ","","Practice","","","","","","","","","","","","","","",""
"","html-keyboard-response","59","94839","0.0-91.0","wzvrqbzm","1440","900","","","","","","","","","","","null","+","Fixation - short","","null","","","","","","","","","","","","","","","","",""
"","html-keyboard-response","60","95371","0.0-92.0","wzvrqbzm","","","","","","","","","","","","","531","feg","Inducer practice","","j","","Practice","","","","true","","","","","j","1","","true","RIGHT","",""
"","html-keyboard-response","61","96124","0.0-95.0","wzvrqbzm","1440","900","","","","","","","","","","","null","+","Fixation - short","","null","","","","","","","","","","","","","","","","",""
"","html-keyboard-response","62","98235","0.0-96.0","wzvrqbzm","","","","","","","","","","","","","2109","If ydi press RIGHT | If guf press LEFT","Inducer practice",""," ","","Practice","","","","","","","","","","","","","","",""
"","html-keyboard-response","63","98987","0.0-97.0","wzvrqbzm","1440","900","","","","","","","","","","","null","+","Fixation - short","","null","","","","","","","","","","","","","","","","",""
"","html-keyboard-response","64","99405","0.0-98.0","wzvrqbzm","","","","","","","","","","","","","417","guf","Inducer practice","","f","","Practice","","","","true","","","","","f","1","","true","LEFT","",""
"","html-keyboard-response","65","100158","0.0-101.0","wzvrqbzm","1440","900","","","","","","","","","","","null","+","Fixation - short","","null","","","","","","","","","","","","","","","","",""
"","html-keyboard-response","66","101103","0.0-102.0","wzvrqbzm","","","","","","","","","","","","","943","If crf press RIGHT | If dlg press LEFT","Inducer practice",""," ","","Practice","","","","","","","","","","","","","","",""
"","html-keyboard-response","67","101856","0.0-103.0","wzvrqbzm","1440","900","","","","","","","","","","","null","+","Fixation - short","","null","","","","","","","","","","","","","","","","",""
"","html-keyboard-response","68","102448","0.0-104.0","wzvrqbzm","","","","","","","","","","","","","591","dlg","Inducer practice","","f","","Practice","","","","true","","","","","f","1","","true","LEFT","",""
"","html-keyboard-response","69","103200","0.0-107.0","wzvrqbzm","1440","900","","","","","","","","","","","null","+","Fixation - short","","null","","","","","","","","","","","","","","","","",""
"","instructions","70","111019","0.0-108.0","wzvrqbzm","","","","","","","","","","","","[{""page_index"":0,""viewing_time"":7817}]","7817","Instructions","Final experiment explanation","","","","","","","","","","","","","","","","","","",""
"","html-keyboard-response","71","115113","0.0-109.0","wzvrqbzm","","","","","","","","","","","","","2591","If afp press RIGHT | If xet press LEFT","Cue practice",""," ","","Practice","","","","","","","","","","","","","","",""
"","html-keyboard-response","72","115866","0.0-110.0","wzvrqbzm","1440","900","","","","","","","","","","","null","+","Fixation - short","","null","","","","","","","","","","","","","","","","",""
"","html-keyboard-response","73","116392","0.0-111.0","wzvrqbzm","","","","","","","","","","","","","525","xet","Cue practice","","f","","Practice","0","13","false","false","false","both pre & post","LEFT","LEFT","f","1","true","","","",""
"","html-keyboard-response","74","117144","0.0-114.0","wzvrqbzm","1440","900","","","","","","","","","","","null","+","Fixation - short","","null","","","","","","","","","","","","","","","","",""
"","html-keyboard-response","75","118027","0.0-115.0","wzvrqbzm","","","","","","","","","","","","","882","afp","Cue practice","","j","","Practice","1","13","false","false","true","both pre & post","RIGHT","RIGHT","j","1","true","","","",""
"","html-keyboard-response","76","118780","0.0-118.0","wzvrqbzm","1440","900","","","","","","","","","","","null","+","Fixation - short","","null","","","","","","","","","","","","","","","","",""
"","html-keyboard-response","77","119529","0.0-119.0","wzvrqbzm","","","","","","","","","","","","","748","afp","Cue practice","","j","","Practice","2","13","false","false","false","both pre & post","RIGHT","LEFT","f","0","false","","","",""
"","call-function","78","119530","0.0-121.0-0.0","wzvrqbzm","","","","","","","","","","","","","","","","","","","","","","","","","","","","","","","","","",""
"","html-keyboard-response","79","119832","0.0-121.0-1.0","wzvrqbzm","1440","900","","","","","","","","","","","null","Wrong","Feedback","","null","","","","","","","","","","","","","","","","",""
"","call-function","80","119833","0.0-121.0-2.0","wzvrqbzm","","","","","","","","","","","","","","","","","","","","","","","","","","","","","","","","","",""
"","html-keyboard-response","81","120586","0.0-122.0","wzvrqbzm","1440","900","","","","","","","","","","","null","+","Fixation - short","","null","","","","","","","","","","","","","","","","",""
"","html-keyboard-response","82","121909","0.0-123.0","wzvrqbzm","","","","","","","","","","","","","1323","xet","Cue practice","","f","","Practice","3","13","false","false","false","both pre & post","LEFT","LEFT","f","1","true","","","",""
"","html-keyboard-response","83","122662","0.0-126.0","wzvrqbzm","1440","900","","","","","","","","","","","null","+","Fixation - short","","null","","","","","","","","","","","","","","","","",""
"","html-keyboard-response","84","123457","0.0-127.0","wzvrqbzm","","","","","","","","","","","","","794","afp","Cue practice","","j","","Practice","4","13","false","false","false","both pre & post","RIGHT","LEFT","f","0","false","","","",""
"","call-function","85","123457","0.0-129.0-0.0","wzvrqbzm","","","","","","","","","","","","","","","","","","","","","","","","","","","","","","","","","",""
"","html-keyboard-response","86","123760","0.0-129.0-1.0","wzvrqbzm","1440","900","","","","","","","","","","","null","Wrong","Feedback","","null","","","","","","","","","","","","","","","","",""
"","call-function","87","123761","0.0-129.0-2.0","wzvrqbzm","","","","","","","","","","","","","","","","","","","","","","","","","","","","","","","","","",""
"","html-keyboard-response","88","124513","0.0-130.0","wzvrqbzm","1440","900","","","","","","","","","","","null","+","Fixation - short","","null","","","","","","","","","","","","","","","","",""
"","html-keyboard-response","89","125347","0.0-131.0","wzvrqbzm","","","","","","","","","","","","","833","xet","Cue practice","","f","","Practice","5","13","false","false","true","both pre & post","LEFT","RIGHT","j","0","false","","","",""
"","call-function","90","125348","0.0-133.0-0.0","wzvrqbzm","","","","","","","","","","","","","","","","","","","","","","","","","","","","","","","","","",""
"","html-keyboard-response","91","125651","0.0-133.0-1.0","wzvrqbzm","1440","900","","","","","","","","","","","null","Wrong","Feedback","","null","","","","","","","","","","","","","","","","",""
"","call-function","92","125651","0.0-133.0-2.0","wzvrqbzm","","","","","","","","","","","","","","","","","","","","","","","","","","","","","","","","","",""
"","html-keyboard-response","93","126404","0.0-134.0","wzvrqbzm","1440","900","","","","","","","","","","","null","+","Fixation - short","","null","","","","","","","","","","","","","","","","",""
"","html-keyboard-response","94","127505","0.0-135.0","wzvrqbzm","","","","","","","","","","","","","1100","xet","Cue practice","","j","","Practice","6","13","false","false","true","both pre & post","LEFT","RIGHT","j","1","false","","","",""
"","html-keyboard-response","95","128258","0.0-138.0","wzvrqbzm","1440","900","","","","","","","","","","","null","+","Fixation - short","","null","","","","","","","","","","","","","","","","",""
"","html-keyboard-response","96","129743","0.0-139.0","wzvrqbzm","","","","","","","","","","","","","1484","afp","Cue practice","","j","","Practice","7","13","false","false","false","both pre & post","RIGHT","LEFT","f","0","false","","","",""
"","call-function","97","129744","0.0-141.0-0.0","wzvrqbzm","","","","","","","","","","","","","","","","","","","","","","","","","","","","","","","","","",""
"","html-keyboard-response","98","130046","0.0-141.0-1.0","wzvrqbzm","1440","900","","","","","","","","","","","null","Wrong","Feedback","","null","","","","","","","","","","","","","","","","",""
"","call-function","99","130047","0.0-141.0-2.0","wzvrqbzm","","","","","","","","","","","","","","","","","","","","","","","","","","","","","","","","","",""
"","html-keyboard-response","100","130798","0.0-142.0","wzvrqbzm","1440","900","","","","","","","","","","","null","+","Fixation - short","","null","","","","","","","","","","","","","","","","",""
"","html-keyboard-response","101","131495","0.0-143.0","wzvrqbzm","","","","","","","","","","","","","696","xet","Cue practice","","j","","Practice","8","13","false","false","true","both pre & post","LEFT","RIGHT","j","1","false","","","",""
"","html-keyboard-response","102","132248","0.0-146.0","wzvrqbzm","1440","900","","","","","","","","","","","null","+","Fixation - short","","null","","","","","","","","","","","","","","","","",""
"","html-keyboard-response","103","132887","0.0-147.0","wzvrqbzm","","","","","","","","","","","","","638","afp","Cue practice","","j","","Practice","9","13","false","false","true","both pre & post","RIGHT","RIGHT","j","1","true","","","",""
"","html-keyboard-response","104","133640","0.0-150.0","wzvrqbzm","1440","900","","","","","","","","","","","null","+","Fixation - short","","null","","","","","","","","","","","","","","","","",""
"","html-keyboard-response","105","134277","0.0-151.0","wzvrqbzm","","","","","","","","","","","","","635","xet","Cue practice","","j","","Practice","10","13","false","false","true","both pre & post","LEFT","RIGHT","j","1","false","","","",""
"","html-keyboard-response","106","135029","0.0-154.0","wzvrqbzm","1440","900","","","","","","","","","","","null","+","Fixation - short","","null","","","","","","","","","","","","","","","","",""
"","html-keyboard-response","107","135662","0.0-155.0","wzvrqbzm","","","","","","","","","","","","","632","afp","Cue practice","","f","","Practice","11","13","false","false","false","both pre & post","RIGHT","LEFT","f","1","false","","","",""
"","html-keyboard-response","108","136415","0.0-158.0","wzvrqbzm","1440","900","","","","","","","","","","","null","+","Fixation - short","","null","","","","","","","","","","","","","","","","",""
"","html-keyboard-response","109","137143","0.0-159.0","wzvrqbzm","","","","","","","","","","","","","726","xet","Cue practice","","j","","Practice","12","13","false","false","true","both pre & post","LEFT","RIGHT","j","1","false","","","",""
"","html-keyboard-response","110","137895","0.0-162.0","wzvrqbzm","1440","900","","","","","","","","","","","null","+","Fixation - short","","null","","","","","","","","","","","","","","","","",""
"","canvas-keyboard-response","111","139166","0.0-163.0","wzvrqbzm","","","","","","","","","","","","","null","Cue","Cue","","null","","Practice","12","","","false","","","","","","","","","","",""
"","html-keyboard-response","112","139919","0.0-164.0","wzvrqbzm","1440","900","","","","","","","","","","","null","+","Fixation - short","","null","","","","","","","","","","","","","","","","",""
"","html-keyboard-response","113","140468","0.0-165.0","wzvrqbzm","","","","","","","","","","","","","548","xet","Cue practice","","j","","Practice","13","13","true","false","true","both pre & post","LEFT","RIGHT","j","1","false","","","",""
"","html-keyboard-response","114","141221","0.0-168.0","wzvrqbzm","1440","900","","","","","","","","","","","null","+","Fixation - short","","null","","","","","","","","","","","","","","","","",""
"","html-keyboard-response","115","141681","0.0-169.0","wzvrqbzm","","","","","","","","","","","","","459","afp","Cue practice","","j","","Practice","14","13","true","false","true","both pre & post","RIGHT","RIGHT","j","1","true","","","",""
"","html-keyboard-response","116","142434","0.0-172.0","wzvrqbzm","1440","900","","","","","","","","","","","null","+","Fixation - short","","null","","","","","","","","","","","","","","","","",""
"","html-keyboard-response","117","143016","0.0-173.0","wzvrqbzm","","","","","","","","","","","","","581","afp","Cue practice","","f","","Practice","15","13","true","false","false","both pre & post","RIGHT","LEFT","f","1","false","","","",""
"","html-keyboard-response","118","143769","0.0-176.0","wzvrqbzm","1440","900","","","","","","","","","","","null","+","Fixation - short","","null","","","","","","","","","","","","","","","","",""
"","html-keyboard-response","119","145043","0.0-177.0","wzvrqbzm","","","","","","","","","","","","","1273","afp","Inducer practice","","j","","Practice","","","","true","","","","","j","1","","false","RIGHT","",""
"","html-keyboard-response","120","145796","0.0-180.0","wzvrqbzm","1440","900","","","","","","","","","","","null","+","Fixation - short","","null","","","","","","","","","","","","","","","","",""
"","instructions","121","159443","0.0-181.0","wzvrqbzm","","","","","","","","","","","","[{""page_index"":0,""viewing_time"":13646}]","13646","End practice","End of practice","","","","","","","","","","","","","","","","","","",""
"","html-keyboard-response","122","162449","0.0-182.0","wzvrqbzm","1440","900","","","","","","","","","","","null","+","Fixation - long","","null","","","","","","","","","","","","","","","","",""
"","html-keyboard-response","123","165372","0.0-183.0","wzvrqbzm","","","","","","","","","","","","","2922","If tgf press RIGHT | If pxv press LEFT","Inducer instructions",""," ","","0","","","","","","","","","","","","","","",""
"","html-keyboard-response","124","166125","0.0-184.0","wzvrqbzm","1440","900","","","","","","","","","","","null","+","Fixation - short","","null","","","","","","","","","","","","","","","","",""
"","html-keyboard-response","125","166790","0.0-185.0","wzvrqbzm","","","","","","","","","","","","","664","tgf","Diagnostic trial","","j","","0","0","7","false","false","true","both pre & post","RIGHT","RIGHT","j","1","true","","","",""
"","html-keyboard-response","126","167542","0.0-188.0","wzvrqbzm","1440","900","","","","","","","","","","","null","+","Fixation - short","","null","","","","","","","","","","","","","","","","",""
"","html-keyboard-response","127","168185","0.0-189.0","wzvrqbzm","","","","","","","","","","","","","642","tgf","Diagnostic trial","","j","","0","1","7","false","false","false","both pre & post","RIGHT","LEFT","f","0","false","","","",""
"","call-function","128","168186","0.0-191.0-0.0","wzvrqbzm","","","","","","","","","","","","","","","","","","","","","","","","","","","","","","","","","",""
"","html-keyboard-response","129","168488","0.0-191.0-1.0","wzvrqbzm","1440","900","","","","","","","","","","","null","Wrong","Feedback","","null","","","","","","","","","","","","","","","","",""
"","call-function","130","168488","0.0-191.0-2.0","wzvrqbzm","","","","","","","","","","","","","","","","","","","","","","","","","","","","","","","","","",""
"","html-keyboard-response","131","169241","0.0-192.0","wzvrqbzm","1440","900","","","","","","","","","","","null","+","Fixation - short","","null","","","","","","","","","","","","","","","","",""
"","html-keyboard-response","132","170085","0.0-193.0","wzvrqbzm","","","","","","","","","","","","","844","tgf","Diagnostic trial","","j","","0","2","7","false","false","false","both pre & post","RIGHT","LEFT","f","0","false","","","",""
"","call-function","133","170086","0.0-195.0-0.0","wzvrqbzm","","","","","","","","","","","","","","","","","","","","","","","","","","","","","","","","","",""
"","html-keyboard-response","134","170388","0.0-195.0-1.0","wzvrqbzm","1440","900","","","","","","","","","","","null","Wrong","Feedback","","null","","","","","","","","","","","","","","","","",""
"","call-function","135","170388","0.0-195.0-2.0","wzvrqbzm","","","","","","","","","","","","","","","","","","","","","","","","","","","","","","","","","",""
"","html-keyboard-response","136","171141","0.0-196.0","wzvrqbzm","1440","900","","","","","","","","","","","null","+","Fixation - short","","null","","","","","","","","","","","","","","","","",""
"","html-keyboard-response","137","172083","0.0-197.0","wzvrqbzm","","","","","","","","","","","","","941","pxv","Diagnostic trial","","j","","0","3","7","false","false","true","both pre & post","LEFT","RIGHT","j","1","false","","","",""
"","html-keyboard-response","138","172835","0.0-200.0","wzvrqbzm","1440","900","","","","","","","","","","","null","+","Fixation - short","","null","","","","","","","","","","","","","","","","",""
"","html-keyboard-response","139","173467","0.0-201.0","wzvrqbzm","","","","","","","","","","","","","631","tgf","Diagnostic trial","","j","","0","4","7","false","false","true","both pre & post","RIGHT","RIGHT","j","1","true","","","",""
"","html-keyboard-response","140","174220","0.0-204.0","wzvrqbzm","1440","900","","","","","","","","","","","null","+","Fixation - short","","null","","","","","","","","","","","","","","","","",""
"","html-keyboard-response","141","174649","0.0-205.0","wzvrqbzm","","","","","","","","","","","","","428","pxv","Diagnostic trial","","f","","0","5","7","false","false","false","both pre & post","LEFT","LEFT","f","1","true","","","",""
"","html-keyboard-response","142","175402","0.0-208.0","wzvrqbzm","1440","900","","","","","","","","","","","null","+","Fixation - short","","null","","","","","","","","","","","","","","","","",""
"","html-keyboard-response","143","176346","0.0-209.0","wzvrqbzm","","","","","","","","","","","","","943","pxv","Diagnostic trial","","j","","0","6","7","false","false","false","both pre & post","LEFT","LEFT","f","0","true","","","",""
"","call-function","144","176346","0.0-211.0-0.0","wzvrqbzm","","","","","","","","","","","","","","","","","","","","","","","","","","","","","","","","","",""
"","html-keyboard-response","145","176649","0.0-211.0-1.0","wzvrqbzm","1440","900","","","","","","","","","","","null","Wrong","Feedback","","null","","","","","","","","","","","","","","","","",""
"","call-function","146","176650","0.0-211.0-2.0","wzvrqbzm","","","","","","","","","","","","","","","","","","","","","","","","","","","","","","","","","",""
"","html-keyboard-response","147","177402","0.0-212.0","wzvrqbzm","1440","900","","","","","","","","","","","null","+","Fixation - short","","null","","","","","","","","","","","","","","","","",""
"","canvas-keyboard-response","148","178655","0.0-213.0","wzvrqbzm","","","","","","","","","","","","","null","Cue","Cue","","null","","0","6","","","false","","","","","","","","","","",""
"","html-keyboard-response","149","179407","0.0-214.0","wzvrqbzm","1440","900","","","","","","","","","","","null","+","Fixation - short","","null","","","","","","","","","","","","","","","","",""
"","html-keyboard-response","150","180223","0.0-215.0","wzvrqbzm","","","","","","","","","","","","","815","tgf","Diagnostic trial","","f","","0","7","7","true","false","false","both pre & post","RIGHT","LEFT","f","1","false","","","",""
"","html-keyboard-response","151","180975","0.0-218.0","wzvrqbzm","1440","900","","","","","","","","","","","null","+","Fixation - short","","null","","","","","","","","","","","","","","","","",""
"","html-keyboard-response","152","181565","0.0-219.0","wzvrqbzm","","","","","","","","","","","","","588","pxv","Diagnostic trial","","j","","0","8","7","true","false","true","both pre & post","LEFT","RIGHT","j","1","false","","","",""
"","html-keyboard-response","153","182317","0.0-222.0","wzvrqbzm","1440","900","","","","","","","","","","","null","+","Fixation - short","","null","","","","","","","","","","","","","","","","",""
"","html-keyboard-response","154","183245","0.0-223.0","wzvrqbzm","","","","","","","","","","","","","926","pxv","Diagnostic trial","","f","","0","9","7","true","false","false","both pre & post","LEFT","LEFT","f","1","true","","","",""
"","html-keyboard-response","155","183998","0.0-226.0","wzvrqbzm","1440","900","","","","","","","","","","","null","+","Fixation - short","","null","","","","","","","","","","","","","","","","",""
"","html-keyboard-response","156","184799","0.0-227.0","wzvrqbzm","","","","","","","","","","","","","800","tgf","Diagnostic trial","","j","","0","10","7","true","false","false","both pre & post","RIGHT","LEFT","f","0","false","","","",""
"","call-function","157","184799","0.0-229.0-0.0","wzvrqbzm","","","","","","","","","","","","","","","","","","","","","","","","","","","","","","","","","",""
"","html-keyboard-response","158","185101","0.0-229.0-1.0","wzvrqbzm","1440","900","","","","","","","","","","","null","Wrong","Feedback","","null","","","","","","","","","","","","","","","","",""
"","call-function","159","185101","0.0-229.0-2.0","wzvrqbzm","","","","","","","","","","","","","","","","","","","","","","","","","","","","","","","","","",""
"","html-keyboard-response","160","185854","0.0-230.0","wzvrqbzm","1440","900","","","","","","","","","","","null","+","Fixation - short","","null","","","","","","","","","","","","","","","","",""
"","html-keyboard-response","161","186828","0.0-231.0","wzvrqbzm","","","","","","","","","","","","","973","pxv","Inducer trial","","j","","0","","","","true","","","","","f","0","","false","LEFT","",""
"","call-function","162","186829","0.0-233.0-0.0","wzvrqbzm","","","","","","","","","","","","","","","","","","","","","","","","","","","","","","","","","",""
"","html-keyboard-response","163","187132","0.0-233.0-1.0","wzvrqbzm","1440","900","","","","","","","","","","","null","Wrong","Feedback","","null","","","","","","","","","","","","","","","","",""
"","call-function","164","187132","0.0-233.0-2.0","wzvrqbzm","","","","","","","","","","","","","","","","","","","","","","","","","","","","","","","","","",""
"","html-keyboard-response","165","187885","0.0-234.0","wzvrqbzm","1440","900","","","","","","","","","","","null","+","Fixation - short","","null","","","","","","","","","","","","","","","","",""
"","html-keyboard-response","166","190765","0.0-235.0","wzvrqbzm","","","","","","","","","","","","","2880","If bms press RIGHT | If epy press LEFT","Inducer instructions",""," ","","1","","","","","","","","","","","","","","",""
"","html-keyboard-response","167","191518","0.0-236.0","wzvrqbzm","1440","900","","","","","","","","","","","null","+","Fixation - short","","null","","","","","","","","","","","","","","","","",""
"","html-keyboard-response","168","192608","0.0-237.0","wzvrqbzm","","","","","","","","","","","","","1089","epy","Diagnostic trial","","f","","1","0","12","false","false","false","both pre & post","LEFT","LEFT","f","1","true","","","",""
"","html-keyboard-response","169","193361","0.0-240.0","wzvrqbzm","1440","900","","","","","","","","","","","null","+","Fixation - short","","null","","","","","","","","","","","","","","","","",""
"","html-keyboard-response","170","194083","0.0-241.0","wzvrqbzm","","","","","","","","","","","","","721","bms","Diagnostic trial","","j","","1","1","12","false","false","true","both pre & post","RIGHT","RIGHT","j","1","true","","","",""
"","html-keyboard-response","171","194836","0.0-244.0","wzvrqbzm","1440","900","","","","","","","","","","","null","+","Fixation - short","","null","","","","","","","","","","","","","","","","",""
"","html-keyboard-response","172","195462","0.0-245.0","wzvrqbzm","","","","","","","","","","","","","625","epy","Diagnostic trial","","f","","1","2","12","false","false","false","both pre & post","LEFT","LEFT","f","1","true","","","",""
"","html-keyboard-response","173","196214","0.0-248.0","wzvrqbzm","1440","900","","","","","","","","","","","null","+","Fixation - short","","null","","","","","","","","","","","","","","","","",""
"","html-keyboard-response","174","197145","0.0-249.0","wzvrqbzm","","","","","","","","","","","","","930","epy","Diagnostic trial","","f","","1","3","12","false","false","false","both pre & post","LEFT","LEFT","f","1","true","","","",""
"","html-keyboard-response","175","197897","0.0-252.0","wzvrqbzm","1440","900","","","","","","","","","","","null","+","Fixation - short","","null","","","","","","","","","","","","","","","","",""
"","html-keyboard-response","176","198516","0.0-253.0","wzvrqbzm","","","","","","","","","","","","","618","epy","Diagnostic trial","","f","","1","4","12","false","false","false","both pre & post","LEFT","LEFT","f","1","true","","","",""
"","html-keyboard-response","177","199269","0.0-256.0","wzvrqbzm","1440","900","","","","","","","","","","","null","+","Fixation - short","","null","","","","","","","","","","","","","","","","",""
"","html-keyboard-response","178","199951","0.0-257.0","wzvrqbzm","","","","","","","","","","","","","681","epy","Diagnostic trial","","j","","1","5","12","false","false","true","both pre & post","LEFT","RIGHT","j","1","false","","","",""
"","html-keyboard-response","179","200703","0.0-260.0","wzvrqbzm","1440","900","","","","","","","","","","","null","+","Fixation - short","","null","","","","","","","","","","","","","","","","",""
"","html-keyboard-response","180","201331","0.0-261.0","wzvrqbzm","","","","","","","","","","","","","627","epy","Diagnostic trial","","f","","1","6","12","false","false","false","both pre & post","LEFT","LEFT","f","1","true","","","",""
"","html-keyboard-response","181","202084","0.0-264.0","wzvrqbzm","1440","900","","","","","","","","","","","null","+","Fixation - short","","null","","","","","","","","","","","","","","","","",""
"","html-keyboard-response","182","202718","0.0-265.0","wzvrqbzm","","","","","","","","","","","","","633","bms","Diagnostic trial","","j","","1","7","12","false","false","true","both pre & post","RIGHT","RIGHT","j","1","true","","","",""
"","html-keyboard-response","183","203470","0.0-268.0","wzvrqbzm","1440","900","","","","","","","","","","","null","+","Fixation - short","","null","","","","","","","","","","","","","","","","",""
"","html-keyboard-response","184","204129","0.0-269.0","wzvrqbzm","","","","","","","","","","","","","658","bms","Diagnostic trial","","f","","1","8","12","false","false","false","both pre & post","RIGHT","LEFT","f","1","false","","","",""
"","html-keyboard-response","185","204882","0.0-272.0","wzvrqbzm","1440","900","","","","","","","","","","","null","+","Fixation - short","","null","","","","","","","","","","","","","","","","",""
"","html-keyboard-response","186","205630","0.0-273.0","wzvrqbzm","","","","","","","","","","","","","747","epy","Diagnostic trial","","f","","1","9","12","false","false","false","both pre & post","LEFT","LEFT","f","1","true","","","",""
"","html-keyboard-response","187","206383","0.0-276.0","wzvrqbzm","1440","900","","","","","","","","","","","null","+","Fixation - short","","null","","","","","","","","","","","","","","","","",""
"","html-keyboard-response","188","206947","0.0-277.0","wzvrqbzm","","","","","","","","","","","","","563","epy","Diagnostic trial","","j","","1","10","12","false","false","true","both pre & post","LEFT","RIGHT","j","1","false","","","",""
"","html-keyboard-response","189","207699","0.0-280.0","wzvrqbzm","1440","900","","","","","","","","","","","null","+","Fixation - short","","null","","","","","","","","","","","","","","","","",""
"","html-keyboard-response","190","208374","0.0-281.0","wzvrqbzm","","","","","","","","","","","","","673","epy","Diagnostic trial","","j","","1","11","12","false","false","true","both pre & post","LEFT","RIGHT","j","1","false","","","",""
"","html-keyboard-response","191","209126","0.0-284.0","wzvrqbzm","1440","900","","","","","","","","","","","null","+","Fixation - short","","null","","","","","","","","","","","","","","","","",""
"","canvas-keyboard-response","192","210378","0.0-285.0","wzvrqbzm","","","","","","","","","","","","","null","Cue","Cue","","null","","1","11","","","false","","","","","","","","","","",""
"","html-keyboard-response","193","211131","0.0-286.0","wzvrqbzm","1440","900","","","","","","","","","","","null","+","Fixation - short","","null","","","","","","","","","","","","","","","","",""
"","html-keyboard-response","194","211950","0.0-287.0","wzvrqbzm","","","","","","","","","","","","","818","epy","Diagnostic trial","","f","","1","12","12","true","false","false","both pre & post","LEFT","LEFT","f","1","true","","","",""
"","html-keyboard-response","195","212702","0.0-290.0","wzvrqbzm","1440","900","","","","","","","","","","","null","+","Fixation - short","","null","","","","","","","","","","","","","","","","",""
"","html-keyboard-response","196","214029","0.0-291.0","wzvrqbzm","","","","","","","","","","","","","1326","bms","Inducer trial","","f","","1","","","","true","","","","","j","0","","false","RIGHT","",""
"","call-function","197","214030","0.0-293.0-0.0","wzvrqbzm","","","","","","","","","","","","","","","","","","","","","","","","","","","","","","","","","",""
"","html-keyboard-response","198","214332","0.0-293.0-1.0","wzvrqbzm","1440","900","","","","","","","","","","","null","Wrong","Feedback","","null","","","","","","","","","","","","","","","","",""
"","call-function","199","214332","0.0-293.0-2.0","wzvrqbzm","","","","","","","","","","","","","","","","","","","","","","","","","","","","","","","","","",""
"","html-keyboard-response","200","215087","0.0-294.0","wzvrqbzm","1440","900","","","","","","","","","","","null","+","Fixation - short","","null","","","","","","","","","","","","","","","","",""
"","html-keyboard-response","201","218985","0.0-295.0","wzvrqbzm","","","","","","","","","","","","","3897","If jlm press RIGHT | If bsh press LEFT","Inducer instructions",""," ","","2","","","","","","","","","","","","","","",""
"","html-keyboard-response","202","219738","0.0-296.0","wzvrqbzm","1440","900","","","","","","","","","","","null","+","Fixation - short","","null","","","","","","","","","","","","","","","","",""
"","html-keyboard-response","203","220777","0.0-297.0","wzvrqbzm","","","","","","","","","","","","","1038","bsh","Diagnostic trial","","f","","2","0","4","false","false","false","both pre & post","LEFT","LEFT","f","1","true","","","",""
"","html-keyboard-response","204","221530","0.0-300.0","wzvrqbzm","1440","900","","","","","","","","","","","null","+","Fixation - short","","null","","","","","","","","","","","","","","","","",""
"","html-keyboard-response","205","222061","0.0-301.0","wzvrqbzm","","","","","","","","","","","","","530","jlm","Diagnostic trial","","j","","2","1","4","false","false","true","both pre & post","RIGHT","RIGHT","j","1","true","","","",""
"","html-keyboard-response","206","222814","0.0-304.0","wzvrqbzm","1440","900","","","","","","","","","","","null","+","Fixation - short","","null","","","","","","","","","","","","","","","","",""
"","html-keyboard-response","207","223627","0.0-305.0","wzvrqbzm","","","","","","","","","","","","","812","bsh","Diagnostic trial","","f","","2","2","4","false","false","false","both pre & post","LEFT","LEFT","f","1","true","","","",""
"","html-keyboard-response","208","224381","0.0-308.0","wzvrqbzm","1440","900","","","","","","","","","","","null","+","Fixation - short","","null","","","","","","","","","","","","","","","","",""
"","html-keyboard-response","209","224934","0.0-309.0","wzvrqbzm","","","","","","","","","","","","","552","bsh","Diagnostic trial","","f","","2","3","4","false","false","false","both pre & post","LEFT","LEFT","f","1","true","","","",""
"","html-keyboard-response","210","225687","0.0-312.0","wzvrqbzm","1440","900","","","","","","","","","","","null","+","Fixation - short","","null","","","","","","","","","","","","","","","","",""
"","canvas-keyboard-response","211","226940","0.0-313.0","wzvrqbzm","","","","","","","","","","","","","null","Cue","Cue","","null","","2","3","","","false","","","","","","","","","","",""
"","html-keyboard-response","212","227693","0.0-314.0","wzvrqbzm","1440","900","","","","","","","","","","","null","+","Fixation - short","","null","","","","","","","","","","","","","","","","",""
"","html-keyboard-response","213","228619","0.0-315.0","wzvrqbzm","","","","","","","","","","","","","926","bsh","Diagnostic trial","","j","","2","4","4","true","false","true","both pre & post","LEFT","RIGHT","j","1","false","","","",""
"","html-keyboard-response","214","229372","0.0-318.0","wzvrqbzm","1440","900","","","","","","","","","","","null","+","Fixation - short","","null","","","","","","","","","","","","","","","","",""
"","html-keyboard-response","215","230060","0.0-319.0","wzvrqbzm","","","","","","","","","","","","","687","jlm","Diagnostic trial","","j","","2","5","4","true","false","true","both pre & post","RIGHT","RIGHT","j","1","true","","","",""
"","html-keyboard-response","216","230812","0.0-322.0","wzvrqbzm","1440","900","","","","","","","","","","","null","+","Fixation - short","","null","","","","","","","","","","","","","","","","",""
"","html-keyboard-response","217","231537","0.0-323.0","wzvrqbzm","","","","","","","","","","","","","724","bsh","Diagnostic trial","","j","","2","6","4","true","false","true","both pre & post","LEFT","RIGHT","j","1","false","","","",""
"","html-keyboard-response","218","232290","0.0-326.0","wzvrqbzm","1440","900","","","","","","","","","","","null","+","Fixation - short","","null","","","","","","","","","","","","","","","","",""
"","html-keyboard-response","219","233035","0.0-327.0","wzvrqbzm","","","","","","","","","","","","","744","jlm","Diagnostic trial","","f","","2","7","4","true","false","false","both pre & post","RIGHT","LEFT","f","1","false","","","",""
"","html-keyboard-response","220","233788","0.0-330.0","wzvrqbzm","1440","900","","","","","","","","","","","null","+","Fixation - short","","null","","","","","","","","","","","","","","","","",""
"","html-keyboard-response","221","234958","0.0-331.0","wzvrqbzm","","","","","","","","","","","","","1168","bsh","Inducer trial","","f","","2","","","","true","","","","","f","1","","false","LEFT","",""
"","html-keyboard-response","222","235710","0.0-334.0","wzvrqbzm","1440","900","","","","","","","","","","","null","+","Fixation - short","","null","","","","","","","","","","","","","","","","",""
"","html-keyboard-response","223","237656","0.0-335.0","wzvrqbzm","","","","","","","","","","","","","1946","If mda press RIGHT | If zpl press LEFT","Inducer instructions",""," ","","3","","","","","","","","","","","","","","",""
"","html-keyboard-response","224","238409","0.0-336.0","wzvrqbzm","1440","900","","","","","","","","","","","null","+","Fixation - short","","null","","","","","","","","","","","","","","","","",""
"","html-keyboard-response","225","239539","0.0-337.0","wzvrqbzm","","","","","","","","","","","","","1129","mda","Diagnostic trial","","f","","3","0","11","false","false","false","both pre & post","RIGHT","LEFT","f","1","false","","","",""
"","html-keyboard-response","226","240291","0.0-340.0","wzvrqbzm","1440","900","","","","","","","","","","","null","+","Fixation - short","","null","","","","","","","","","","","","","","","","",""
"","html-keyboard-response","227","240854","0.0-341.0","wzvrqbzm","","","","","","","","","","","","","561","mda","Diagnostic trial","","j","","3","1","11","false","false","true","both pre & post","RIGHT","RIGHT","j","1","true","","","",""
"","html-keyboard-response","228","241606","0.0-344.0","wzvrqbzm","1440","900","","","","","","","","","","","null","+","Fixation - short","","null","","","","","","","","","","","","","","","","",""
"","html-keyboard-response","229","242151","0.0-345.0","wzvrqbzm","","","","","","","","","","","","","544","zpl","Diagnostic trial","","j","","3","2","11","false","false","true","both pre & post","LEFT","RIGHT","j","1","false","","","",""
"","html-keyboard-response","230","242904","0.0-348.0","wzvrqbzm","1440","900","","","","","","","","","","","null","+","Fixation - short","","null","","","","","","","","","","","","","","","","",""
"","html-keyboard-response","231","243661","0.0-349.0","wzvrqbzm","","","","","","","","","","","","","756","mda","Diagnostic trial","","j","","3","3","11","false","false","true","both pre & post","RIGHT","RIGHT","j","1","true","","","",""
"","html-keyboard-response","232","244413","0.0-352.0","wzvrqbzm","1440","900","","","","","","","","","","","null","+","Fixation - short","","null","","","","","","","","","","","","","","","","",""
"","html-keyboard-response","233","245140","0.0-353.0","wzvrqbzm","","","","","","","","","","","","","725","zpl","Diagnostic trial","","f","","3","4","11","false","false","false","both pre & post","LEFT","LEFT","f","1","true","","","",""
"","html-keyboard-response","234","245891","0.0-356.0","wzvrqbzm","1440","900","","","","","","","","","","","null","+","Fixation - short","","null","","","","","","","","","","","","","","","","",""
"","html-keyboard-response","235","247749","0.0-357.0","wzvrqbzm","","","","","","","","","","","","","1857","zpl","Diagnostic trial","","j","","3","5","11","false","false","true","both pre & post","LEFT","RIGHT","j","1","false","","","",""
"","html-keyboard-response","236","248501","0.0-360.0","wzvrqbzm","1440","900","","","","","","","","","","","null","+","Fixation - short","","null","","","","","","","","","","","","","","","","",""
"","html-keyboard-response","237","249010","0.0-361.0","wzvrqbzm","","","","","","","","","","","","","508","zpl","Diagnostic trial","","f","","3","6","11","false","false","false","both pre & post","LEFT","LEFT","f","1","true","","","",""
"","html-keyboard-response","238","249762","0.0-364.0","wzvrqbzm","1440","900","","","","","","","","","","","null","+","Fixation - short","","null","","","","","","","","","","","","","","","","",""
"","html-keyboard-response","239","250479","0.0-365.0","wzvrqbzm","","","","","","","","","","","","","715","zpl","Diagnostic trial","","j","","3","7","11","false","false","true","both pre & post","LEFT","RIGHT","j","1","false","","","",""
"","html-keyboard-response","240","251231","0.0-368.0","wzvrqbzm","1440","900","","","","","","","","","","","null","+","Fixation - short","","null","","","","","","","","","","","","","","","","",""
"","html-keyboard-response","241","251770","0.0-369.0","wzvrqbzm","","","","","","","","","","","","","538","zpl","Diagnostic trial","","f","","3","8","11","false","false","false","both pre & post","LEFT","LEFT","f","1","true","","","",""
"","html-keyboard-response","242","252522","0.0-372.0","wzvrqbzm","1440","900","","","","","","","","","","","null","+","Fixation - short","","null","","","","","","","","","","","","","","","","",""
"","html-keyboard-response","243","253035","0.0-373.0","wzvrqbzm","","","","","","","","","","","","","512","zpl","Diagnostic trial","","j","","3","9","11","false","false","true","both pre & post","LEFT","RIGHT","j","1","false","","","",""
"","html-keyboard-response","244","253788","0.0-376.0","wzvrqbzm","1440","900","","","","","","","","","","","null","+","Fixation - short","","null","","","","","","","","","","","","","","","","",""
"","html-keyboard-response","245","254424","0.0-377.0","wzvrqbzm","","","","","","","","","","","","","635","zpl","Diagnostic trial","","f","","3","10","11","false","false","false","both pre & post","LEFT","LEFT","f","1","true","","","",""
"","html-keyboard-response","246","255176","0.0-380.0","wzvrqbzm","1440","900","","","","","","","","","","","null","+","Fixation - short","","null","","","","","","","","","","","","","","","","",""
"","canvas-keyboard-response","247","256430","0.0-381.0","wzvrqbzm","","","","","","","","","","","","","null","Cue","Cue","","null","","3","10","","","false","","","","","","","","","","",""
"","html-keyboard-response","248","257182","0.0-382.0","wzvrqbzm","1440","900","","","","","","","","","","","null","+","Fixation - short","","null","","","","","","","","","","","","","","","","",""
"","html-keyboard-response","249","257946","0.0-383.0","wzvrqbzm","","","","","","","","","","","","","763","mda","Diagnostic trial","","j","","3","11","11","true","false","true","both pre & post","RIGHT","RIGHT","j","1","true","","","",""
"","html-keyboard-response","250","258699","0.0-386.0","wzvrqbzm","1440","900","","","","","","","","","","","null","+","Fixation - short","","null","","","","","","","","","","","","","","","","",""
"","html-keyboard-response","251","259339","0.0-387.0","wzvrqbzm","","","","","","","","","","","","","639","mda","Diagnostic trial","","f","","3","12","11","true","false","false","both pre & post","RIGHT","LEFT","f","1","false","","","",""
"","html-keyboard-response","252","260091","0.0-390.0","wzvrqbzm","1440","900","","","","","","","","","","","null","+","Fixation - short","","null","","","","","","","","","","","","","","","","",""
"","html-keyboard-response","253","260685","0.0-391.0","wzvrqbzm","","","","","","","","","","","","","593","zpl","Diagnostic trial","","j","","3","13","11","true","false","true","both pre & post","LEFT","RIGHT","j","1","false","","","",""
"","html-keyboard-response","254","261438","0.0-394.0","wzvrqbzm","1440","900","","","","","","","","","","","null","+","Fixation - short","","null","","","","","","","","","","","","","","","","",""
"","html-keyboard-response","255","261961","0.0-395.0","wzvrqbzm","","","","","","","","","","","","","522","mda","Diagnostic trial","","j","","3","14","11","true","false","true","both pre & post","RIGHT","RIGHT","j","1","true","","","",""
"","html-keyboard-response","256","262713","0.0-398.0","wzvrqbzm","1440","900","","","","","","","","","","","null","+","Fixation - short","","null","","","","","","","","","","","","","","","","",""
"","html-keyboard-response","257","263510","0.0-399.0","wzvrqbzm","","","","","","","","","","","","","795","zpl","Inducer trial","","f","","3","","","","true","","","","","f","1","","false","LEFT","",""
"","html-keyboard-response","258","264263","0.0-402.0","wzvrqbzm","1440","900","","","","","","","","","","","null","+","Fixation - short","","null","","","","","","","","","","","","","","","","",""
"","html-keyboard-response","259","265838","0.0-403.0","wzvrqbzm","","","","","","","","","","","","","1574","If prg press RIGHT | If bgi press LEFT","Inducer instructions",""," ","","4","","","","","","","","","","","","","","",""
"","html-keyboard-response","260","266591","0.0-404.0","wzvrqbzm","1440","900","","","","","","","","","","","null","+","Fixation - short","","null","","","","","","","","","","","","","","","","",""
"","html-keyboard-response","261","267222","0.0-405.0","wzvrqbzm","","","","","","","","","","","","","630","prg","Diagnostic trial","","j","","4","0","10","false","false","false","both pre & post","RIGHT","LEFT","f","0","false","","","",""
"","call-function","262","267223","0.0-407.0-0.0","wzvrqbzm","","","","","","","","","","","","","","","","","","","","","","","","","","","","","","","","","",""
"","html-keyboard-response","263","267525","0.0-407.0-1.0","wzvrqbzm","1440","900","","","","","","","","","","","null","Wrong","Feedback","","null","","","","","","","","","","","","","","","","",""
"","call-function","264","267526","0.0-407.0-2.0","wzvrqbzm","","","","","","","","","","","","","","","","","","","","","","","","","","","","","","","","","",""
"","html-keyboard-response","265","268278","0.0-408.0","wzvrqbzm","1440","900","","","","","","","","","","","null","+","Fixation - short","","null","","","","","","","","","","","","","","","","",""
"","html-keyboard-response","266","269006","0.0-409.0","wzvrqbzm","","","","","","","","","","","","","726","prg","Diagnostic trial","","f","","4","1","10","false","false","false","both pre & post","RIGHT","LEFT","f","1","false","","","",""
"","html-keyboard-response","267","269759","0.0-412.0","wzvrqbzm","1440","900","","","","","","","","","","","null","+","Fixation - short","","null","","","","","","","","","","","","","","","","",""
"","html-keyboard-response","268","270337","0.0-413.0","wzvrqbzm","","","","","","","","","","","","","578","bgi","Diagnostic trial","","j","","4","2","10","false","false","true","both pre & post","LEFT","RIGHT","j","1","false","","","",""
"","html-keyboard-response","269","271089","0.0-416.0","wzvrqbzm","1440","900","","","","","","","","","","","null","+","Fixation - short","","null","","","","","","","","","","","","","","","","",""
"","html-keyboard-response","270","271903","0.0-417.0","wzvrqbzm","","","","","","","","","","","","","813","bgi","Diagnostic trial","","f","","4","3","10","false","false","false","both pre & post","LEFT","LEFT","f","1","true","","","",""
"","html-keyboard-response","271","272655","0.0-420.0","wzvrqbzm","1440","900","","","","","","","","","","","null","+","Fixation - short","","null","","","","","","","","","","","","","","","","",""
"","html-keyboard-response","272","273199","0.0-421.0","wzvrqbzm","","","","","","","","","","","","","543","prg","Diagnostic trial","","j","","4","4","10","false","false","true","both pre & post","RIGHT","RIGHT","j","1","true","","","",""
"","html-keyboard-response","273","273952","0.0-424.0","wzvrqbzm","1440","900","","","","","","","","","","","null","+","Fixation - short","","null","","","","","","","","","","","","","","","","",""
"","html-keyboard-response","274","274535","0.0-425.0","wzvrqbzm","","","","","","","","","","","","","582","bgi","Diagnostic trial","","j","","4","5","10","false","false","true","both pre & post","LEFT","RIGHT","j","1","false","","","",""
"","html-keyboard-response","275","275288","0.0-428.0","wzvrqbzm","1440","900","","","","","","","","","","","null","+","Fixation - short","","null","","","","","","","","","","","","","","","","",""
"","html-keyboard-response","276","275869","0.0-429.0","wzvrqbzm","","","","","","","","","","","","","580","prg","Diagnostic trial","","j","","4","6","10","false","false","true","both pre & post","RIGHT","RIGHT","j","1","true","","","",""
"","html-keyboard-response","277","276621","0.0-432.0","wzvrqbzm","1440","900","","","","","","","","","","","null","+","Fixation - short","","null","","","","","","","","","","","","","","","","",""
"","html-keyboard-response","278","277215","0.0-433.0","wzvrqbzm","","","","","","","","","","","","","592","prg","Diagnostic trial","","f","","4","7","10","false","false","false","both pre & post","RIGHT","LEFT","f","1","false","","","",""
"","html-keyboard-response","279","277968","0.0-436.0","wzvrqbzm","1440","900","","","","","","","","","","","null","+","Fixation - short","","null","","","","","","","","","","","","","","","","",""
"","html-keyboard-response","280","278705","0.0-437.0","wzvrqbzm","","","","","","","","","","","","","736","bgi","Diagnostic trial","","j","","4","8","10","false","false","true","both pre & post","LEFT","RIGHT","j","1","false","","","",""
"","html-keyboard-response","281","279457","0.0-440.0","wzvrqbzm","1440","900","","","","","","","","","","","null","+","Fixation - short","","null","","","","","","","","","","","","","","","","",""
"","html-keyboard-response","282","279873","0.0-441.0","wzvrqbzm","","","","","","","","","","","","","414","prg","Diagnostic trial","","j","","4","9","10","false","false","true","both pre & post","RIGHT","RIGHT","j","1","true","","","",""
"","html-keyboard-response","283","280626","0.0-444.0","wzvrqbzm","1440","900","","","","","","","","","","","null","+","Fixation - short","","null","","","","","","","","","","","","","","","","",""
"","canvas-keyboard-response","284","281879","0.0-445.0","wzvrqbzm","","","","","","","","","","","","","null","Cue","Cue","","null","","4","9","","","false","","","","","","","","","","",""
"","html-keyboard-response","285","282632","0.0-446.0","wzvrqbzm","1440","900","","","","","","","","","","","null","+","Fixation - short","","null","","","","","","","","","","","","","","","","",""
"","html-keyboard-response","286","283245","0.0-447.0","wzvrqbzm","","","","","","","","","","","","","611","prg","Diagnostic trial","","j","","4","10","10","true","false","true","both pre & post","RIGHT","RIGHT","j","1","true","","","",""
"","html-keyboard-response","287","283997","0.0-450.0","wzvrqbzm","1440","900","","","","","","","","","","","null","+","Fixation - short","","null","","","","","","","","","","","","","","","","",""
"","html-keyboard-response","288","284569","0.0-451.0","wzvrqbzm","","","","","","","","","","","","","570","prg","Diagnostic trial","","f","","4","11","10","true","false","false","both pre & post","RIGHT","LEFT","f","1","false","","","",""
"","html-keyboard-response","289","285322","0.0-454.0","wzvrqbzm","1440","900","","","","","","","","","","","null","+","Fixation - short","","null","","","","","","","","","","","","","","","","",""
"","html-keyboard-response","290","286020","0.0-455.0","wzvrqbzm","","","","","","","","","","","","","697","prg","Inducer trial","","f","","4","","","","true","","","","","j","0","","false","RIGHT","",""
"","call-function","291","286021","0.0-457.0-0.0","wzvrqbzm","","","","","","","","","","","","","","","","","","","","","","","","","","","","","","","","","",""
"","html-keyboard-response","292","286322","0.0-457.0-1.0","wzvrqbzm","1440","900","","","","","","","","","","","null","Wrong","Feedback","","null","","","","","","","","","","","","","","","","",""
"","call-function","293","286322","0.0-457.0-2.0","wzvrqbzm","","","","","","","","","","","","","","","","","","","","","","","","","","","","","","","","","",""
"","html-keyboard-response","294","287075","0.0-458.0","wzvrqbzm","1440","900","","","","","","","","","","","null","+","Fixation - short","","null","","","","","","","","","","","","","","","","",""
"","html-keyboard-response","295","289488","0.0-459.0","wzvrqbzm","","","","","","","","","","","","","2412","If goj press RIGHT | If faq press LEFT","Inducer instructions",""," ","","5","","","","","","","","","","","","","","",""
"","html-keyboard-response","296","290241","0.0-460.0","wzvrqbzm","1440","900","","","","","","","","","","","null","+","Fixation - short","","null","","","","","","","","","","","","","","","","",""
"","html-keyboard-response","297","291042","0.0-461.0","wzvrqbzm","","","","","","","","","","","","","800","faq","Diagnostic trial","","f","","5","0","4","false","false","false","both pre & post","LEFT","LEFT","f","1","true","","","",""
"","html-keyboard-response","298","291795","0.0-464.0","wzvrqbzm","1440","900","","","","","","","","","","","null","+","Fixation - short","","null","","","","","","","","","","","","","","","","",""
"","html-keyboard-response","299","292422","0.0-465.0","wzvrqbzm","","","","","","","","","","","","","626","faq","Diagnostic trial","","j","","5","1","4","false","false","true","both pre & post","LEFT","RIGHT","j","1","false","","","",""
"","html-keyboard-response","300","293175","0.0-468.0","wzvrqbzm","1440","900","","","","","","","","","","","null","+","Fixation - short","","null","","","","","","","","","","","","","","","","",""
"","html-keyboard-response","301","294631","0.0-469.0","wzvrqbzm","","","","","","","","","","","","","1455","faq","Diagnostic trial","","j","","5","2","4","false","false","true","both pre & post","LEFT","RIGHT","j","1","false","","","",""
"","html-keyboard-response","302","295384","0.0-472.0","wzvrqbzm","1440","900","","","","","","","","","","","null","+","Fixation - short","","null","","","","","","","","","","","","","","","","",""
"","html-keyboard-response","303","296363","0.0-473.0","wzvrqbzm","","","","","","","","","","","","","978","goj","Diagnostic trial","","j","","5","3","4","false","false","true","both pre & post","RIGHT","RIGHT","j","1","true","","","",""
"","html-keyboard-response","304","297116","0.0-476.0","wzvrqbzm","1440","900","","","","","","","","","","","null","+","Fixation - short","","null","","","","","","","","","","","","","","","","",""
"","canvas-keyboard-response","305","298369","0.0-477.0","wzvrqbzm","","","","","","","","","","","","","null","Cue","Cue","","null","","5","3","","","false","","","","","","","","","","",""
"","html-keyboard-response","306","299122","0.0-478.0","wzvrqbzm","1440","900","","","","","","","","","","","null","+","Fixation - short","","null","","","","","","","","","","","","","","","","",""
"","html-keyboard-response","307","299888","0.0-479.0","wzvrqbzm","","","","","","","","","","","","","764","faq","Diagnostic trial","","f","","5","4","4","true","false","false","both pre & post","LEFT","LEFT","f","1","true","","","",""
"","html-keyboard-response","308","300640","0.0-482.0","wzvrqbzm","1440","900","","","","","","","","","","","null","+","Fixation - short","","null","","","","","","","","","","","","","","","","",""
"","html-keyboard-response","309","301316","0.0-483.0","wzvrqbzm","","","","","","","","","","","","","674","faq","Diagnostic trial","","f","","5","5","4","true","false","false","both pre & post","LEFT","LEFT","f","1","true","","","",""
"","html-keyboard-response","310","302067","0.0-486.0","wzvrqbzm","1440","900","","","","","","","","","","","null","+","Fixation - short","","null","","","","","","","","","","","","","","","","",""
"","html-keyboard-response","311","302645","0.0-487.0","wzvrqbzm","","","","","","","","","","","","","577","goj","Diagnostic trial","","j","","5","6","4","true","false","true","both pre & post","RIGHT","RIGHT","j","1","true","","","",""
"","html-keyboard-response","312","303398","0.0-490.0","wzvrqbzm","1440","900","","","","","","","","","","","null","+","Fixation - short","","null","","","","","","","","","","","","","","","","",""
"","html-keyboard-response","313","304002","0.0-491.0","wzvrqbzm","","","","","","","","","","","","","603","goj","Inducer trial","","j","","5","","","","true","","","","","j","1","","false","RIGHT","",""
"","html-keyboard-response","314","304754","0.0-494.0","wzvrqbzm","1440","900","","","","","","","","","","","null","+","Fixation - short","","null","","","","","","","","","","","","","","","","",""
"","html-keyboard-response","315","306226","0.0-495.0","wzvrqbzm","","","","","","","","","","","","","1471","If dnc press RIGHT | If bwe press LEFT","Inducer instructions",""," ","","6","","","","","","","","","","","","","","",""
"","html-keyboard-response","316","306978","0.0-496.0","wzvrqbzm","1440","900","","","","","","","","","","","null","+","Fixation - short","","null","","","","","","","","","","","","","","","","",""
"","html-keyboard-response","317","307707","0.0-497.0","wzvrqbzm","","","","","","","","","","","","","727","dnc","Diagnostic trial","","j","","6","0","7","false","false","true","both pre & post","RIGHT","RIGHT","j","1","true","","","",""
"","html-keyboard-response","318","308460","0.0-500.0","wzvrqbzm","1440","900","","","","","","","","","","","null","+","Fixation - short","","null","","","","","","","","","","","","","","","","",""
"","html-keyboard-response","319","309055","0.0-501.0","wzvrqbzm","","","","","","","","","","","","","594","dnc","Diagnostic trial","","f","","6","1","7","false","false","false","both pre & post","RIGHT","LEFT","f","1","false","","","",""
"","html-keyboard-response","320","309808","0.0-504.0","wzvrqbzm","1440","900","","","","","","","","","","","null","+","Fixation - short","","null","","","","","","","","","","","","","","","","",""
"","html-keyboard-response","321","310447","0.0-505.0","wzvrqbzm","","","","","","","","","","","","","638","bwe","Diagnostic trial","","f","","6","2","7","false","false","false","both pre & post","LEFT","LEFT","f","1","true","","","",""
"","html-keyboard-response","322","311200","0.0-508.0","wzvrqbzm","1440","900","","","","","","","","","","","null","+","Fixation - short","","null","","","","","","","","","","","","","","","","",""
"","html-keyboard-response","323","311764","0.0-509.0","wzvrqbzm","","","","","","","","","","","","","564","bwe","Diagnostic trial","","f","","6","3","7","false","false","false","both pre & post","LEFT","LEFT","f","1","true","","","",""
"","html-keyboard-response","324","312517","0.0-512.0","wzvrqbzm","1440","900","","","","","","","","","","","null","+","Fixation - short","","null","","","","","","","","","","","","","","","","",""
"","html-keyboard-response","325","313239","0.0-513.0","wzvrqbzm","","","","","","","","","","","","","721","bwe","Diagnostic trial","","f","","6","4","7","false","false","false","both pre & post","LEFT","LEFT","f","1","true","","","",""
"","html-keyboard-response","326","313992","0.0-516.0","wzvrqbzm","1440","900","","","","","","","","","","","null","+","Fixation - short","","null","","","","","","","","","","","","","","","","",""
"","html-keyboard-response","327","314600","0.0-517.0","wzvrqbzm","","","","","","","","","","","","","607","dnc","Diagnostic trial","","j","","6","5","7","false","false","true","both pre & post","RIGHT","RIGHT","j","1","true","","","",""
"","html-keyboard-response","328","315352","0.0-520.0","wzvrqbzm","1440","900","","","","","","","","","","","null","+","Fixation - short","","null","","","","","","","","","","","","","","","","",""
"","html-keyboard-response","329","315982","0.0-521.0","wzvrqbzm","","","","","","","","","","","","","629","bwe","Diagnostic trial","","f","","6","6","7","false","false","false","both pre & post","LEFT","LEFT","f","1","true","","","",""
"","html-keyboard-response","330","316735","0.0-524.0","wzvrqbzm","1440","900","","","","","","","","","","","null","+","Fixation - short","","null","","","","","","","","","","","","","","","","",""
"","canvas-keyboard-response","331","317989","0.0-525.0","wzvrqbzm","","","","","","","","","","","","","null","Cue","Cue","","null","","6","6","","","false","","","","","","","","","","",""
"","html-keyboard-response","332","318741","0.0-526.0","wzvrqbzm","1440","900","","","","","","","","","","","null","+","Fixation - short","","null","","","","","","","","","","","","","","","","",""
"","html-keyboard-response","333","319322","0.0-527.0","wzvrqbzm","","","","","","","","","","","","","580","bwe","Diagnostic trial","","f","","6","7","7","true","false","false","both pre & post","LEFT","LEFT","f","1","true","","","",""
"","html-keyboard-response","334","320075","0.0-530.0","wzvrqbzm","1440","900","","","","","","","","","","","null","+","Fixation - short","","null","","","","","","","","","","","","","","","","",""
"","html-keyboard-response","335","321054","0.0-531.0","wzvrqbzm","","","","","","","","","","","","","978","bwe","Diagnostic trial","","j","","6","8","7","true","false","true","both pre & post","LEFT","RIGHT","j","1","false","","","",""
"","html-keyboard-response","336","321806","0.0-534.0","wzvrqbzm","1440","900","","","","","","","","","","","null","+","Fixation - short","","null","","","","","","","","","","","","","","","","",""
"","html-keyboard-response","337","322613","0.0-535.0","wzvrqbzm","","","","","","","","","","","","","805","bwe","Diagnostic trial","","f","","6","9","7","true","false","false","both pre & post","LEFT","LEFT","f","1","true","","","",""
"","html-keyboard-response","338","323366","0.0-538.0","wzvrqbzm","1440","900","","","","","","","","","","","null","+","Fixation - short","","null","","","","","","","","","","","","","","","","",""
"","html-keyboard-response","339","323959","0.0-539.0","wzvrqbzm","","","","","","","","","","","","","592","bwe","Diagnostic trial","","f","","6","10","7","true","false","false","both pre & post","LEFT","LEFT","f","1","true","","","",""
"","html-keyboard-response","340","324711","0.0-542.0","wzvrqbzm","1440","900","","","","","","","","","","","null","+","Fixation - short","","null","","","","","","","","","","","","","","","","",""
"","html-keyboard-response","341","325820","0.0-543.0","wzvrqbzm","","","","","","","","","","","","","1108","bwe","Inducer trial","","f","","6","","","","true","","","","","f","1","","false","LEFT","",""
"","html-keyboard-response","342","326573","0.0-546.0","wzvrqbzm","1440","900","","","","","","","","","","","null","+","Fixation - short","","null","","","","","","","","","","","","","","","","",""
"","html-keyboard-response","343","328653","0.0-547.0","wzvrqbzm","","","","","","","","","","","","","2079","If wwt press RIGHT | If rpw press LEFT","Inducer instructions",""," ","","7","","","","","","","","","","","","","","",""
"","html-keyboard-response","344","329405","0.0-548.0","wzvrqbzm","1440","900","","","","","","","","","","","null","+","Fixation - short","","null","","","","","","","","","","","","","","","","",""
"","html-keyboard-response","345","330883","0.0-549.0","wzvrqbzm","","","","","","","","","","","","","1477","rpw","Diagnostic trial","","f","","7","0","10","false","false","false","both pre & post","LEFT","LEFT","f","1","true","","","",""
"","html-keyboard-response","346","331636","0.0-552.0","wzvrqbzm","1440","900","","","","","","","","","","","null","+","Fixation - short","","null","","","","","","","","","","","","","","","","",""
"","html-keyboard-response","347","332174","0.0-553.0","wzvrqbzm","","","","","","","","","","","","","537","rpw","Diagnostic trial","","f","","7","1","10","false","false","false","both pre & post","LEFT","LEFT","f","1","true","","","",""
"","html-keyboard-response","348","332927","0.0-556.0","wzvrqbzm","1440","900","","","","","","","","","","","null","+","Fixation - short","","null","","","","","","","","","","","","","","","","",""
"","html-keyboard-response","349","333514","0.0-557.0","wzvrqbzm","","","","","","","","","","","","","586","wwt","Diagnostic trial","","j","","7","2","10","false","false","true","both pre & post","RIGHT","RIGHT","j","1","true","","","",""
"","html-keyboard-response","350","334266","0.0-560.0","wzvrqbzm","1440","900","","","","","","","","","","","null","+","Fixation - short","","null","","","","","","","","","","","","","","","","",""
"","html-keyboard-response","351","334769","0.0-561.0","wzvrqbzm","","","","","","","","","","","","","502","rpw","Diagnostic trial","","j","","7","3","10","false","false","true","both pre & post","LEFT","RIGHT","j","1","false","","","",""
"","html-keyboard-response","352","335522","0.0-564.0","wzvrqbzm","1440","900","","","","","","","","","","","null","+","Fixation - short","","null","","","","","","","","","","","","","","","","",""
"","html-keyboard-response","353","336154","0.0-565.0","wzvrqbzm","","","","","","","","","","","","","632","rpw","Diagnostic trial","","f","","7","4","10","false","false","false","both pre & post","LEFT","LEFT","f","1","true","","","",""
"","html-keyboard-response","354","336907","0.0-568.0","wzvrqbzm","1440","900","","","","","","","","","","","null","+","Fixation - short","","null","","","","","","","","","","","","","","","","",""
"","html-keyboard-response","355","337879","0.0-569.0","wzvrqbzm","","","","","","","","","","","","","971","rpw","Diagnostic trial","","f","","7","5","10","false","false","false","both pre & post","LEFT","LEFT","f","1","true","","","",""
"","html-keyboard-response","356","338631","0.0-572.0","wzvrqbzm","1440","900","","","","","","","","","","","null","+","Fixation - short","","null","","","","","","","","","","","","","","","","",""
"","html-keyboard-response","357","339338","0.0-573.0","wzvrqbzm","","","","","","","","","","","","","707","wwt","Diagnostic trial","","j","","7","6","10","false","false","true","both pre & post","RIGHT","RIGHT","j","1","true","","","",""
"","html-keyboard-response","358","340090","0.0-576.0","wzvrqbzm","1440","900","","","","","","","","","","","null","+","Fixation - short","","null","","","","","","","","","","","","","","","","",""
"","html-keyboard-response","359","341067","0.0-577.0","wzvrqbzm","","","","","","","","","","","","","976","rpw","Diagnostic trial","","j","","7","7","10","false","false","true","both pre & post","LEFT","RIGHT","j","1","false","","","",""
"","html-keyboard-response","360","341819","0.0-580.0","wzvrqbzm","1440","900","","","","","","","","","","","null","+","Fixation - short","","null","","","","","","","","","","","","","","","","",""
"","html-keyboard-response","361","343096","0.0-581.0","wzvrqbzm","","","","","","","","","","","","","1276","wwt","Diagnostic trial","","j","","7","8","10","false","false","true","both pre & post","RIGHT","RIGHT","j","1","true","","","",""
"","html-keyboard-response","362","343849","0.0-584.0","wzvrqbzm","1440","900","","","","","","","","","","","null","+","Fixation - short","","null","","","","","","","","","","","","","","","","",""
"","html-keyboard-response","363","344554","0.0-585.0","wzvrqbzm","","","","","","","","","","","","","704","rpw","Diagnostic trial","","j","","7","9","10","false","false","true","both pre & post","LEFT","RIGHT","j","1","false","","","",""
"","html-keyboard-response","364","345307","0.0-588.0","wzvrqbzm","1440","900","","","","","","","","","","","null","+","Fixation - short","","null","","","","","","","","","","","","","","","","",""
"","canvas-keyboard-response","365","346559","0.0-589.0","wzvrqbzm","","","","","","","","","","","","","null","Cue","Cue","","null","","7","9","","","false","","","","","","","","","","",""
"","html-keyboard-response","366","347312","0.0-590.0","wzvrqbzm","1440","900","","","","","","","","","","","null","+","Fixation - short","","null","","","","","","","","","","","","","","","","",""
"","html-keyboard-response","367","347955","0.0-591.0","wzvrqbzm","","","","","","","","","","","","","642","wwt","Diagnostic trial","","j","","7","10","10","true","false","true","both pre & post","RIGHT","RIGHT","j","1","true","","","",""
"","html-keyboard-response","368","348708","0.0-594.0","wzvrqbzm","1440","900","","","","","","","","","","","null","+","Fixation - short","","null","","","","","","","","","","","","","","","","",""
"","html-keyboard-response","369","349453","0.0-595.0","wzvrqbzm","","","","","","","","","","","","","745","rpw","Diagnostic trial","","f","","7","11","10","true","false","false","both pre & post","LEFT","LEFT","f","1","true","","","",""
"","html-keyboard-response","370","350206","0.0-598.0","wzvrqbzm","1440","900","","","","","","","","","","","null","+","Fixation - short","","null","","","","","","","","","","","","","","","","",""
"","html-keyboard-response","371","351032","0.0-599.0","wzvrqbzm","","","","","","","","","","","","","825","rpw","Diagnostic trial","","f","","7","12","10","true","false","false","both pre & post","LEFT","LEFT","f","1","true","","","",""
"","html-keyboard-response","372","351785","0.0-602.0","wzvrqbzm","1440","900","","","","","","","","","","","null","+","Fixation - short","","null","","","","","","","","","","","","","","","","",""
"","html-keyboard-response","373","352679","0.0-603.0","wzvrqbzm","","","","","","","","","","","","","894","rpw","Diagnostic trial","","j","","7","13","10","true","false","true","both pre & post","LEFT","RIGHT","j","1","false","","","",""
"","html-keyboard-response","374","353432","0.0-606.0","wzvrqbzm","1440","900","","","","","","","","","","","null","+","Fixation - short","","null","","","","","","","","","","","","","","","","",""
"","html-keyboard-response","375","354634","0.0-607.0","wzvrqbzm","","","","","","","","","","","","","1201","rpw","Inducer trial","","f","","7","","","","true","","","","","f","1","","false","LEFT","",""
"","html-keyboard-response","376","355386","0.0-610.0","wzvrqbzm","1440","900","","","","","","","","","","","null","+","Fixation - short","","null","","","","","","","","","","","","","","","","",""
"","html-keyboard-response","377","357778","0.0-611.0","wzvrqbzm","","","","","","","","","","","","","2391","If sjn press RIGHT | If wab press LEFT","Inducer instructions",""," ","","8","","","","","","","","","","","","","","",""
"","html-keyboard-response","378","358530","0.0-612.0","wzvrqbzm","1440","900","","","","","","","","","","","null","+","Fixation - short","","null","","","","","","","","","","","","","","","","",""
"","html-keyboard-response","379","359435","0.0-613.0","wzvrqbzm","","","","","","","","","","","","","904","sjn","Diagnostic trial","","j","","8","0","4","false","false","true","both pre & post","RIGHT","RIGHT","j","1","true","","","",""
"","html-keyboard-response","380","360188","0.0-616.0","wzvrqbzm","1440","900","","","","","","","","","","","null","+","Fixation - short","","null","","","","","","","","","","","","","","","","",""
"","html-keyboard-response","381","360773","0.0-617.0","wzvrqbzm","","","","","","","","","","","","","585","sjn","Diagnostic trial","","j","","8","1","4","false","false","true","both pre & post","RIGHT","RIGHT","j","1","true","","","",""
"","html-keyboard-response","382","361525","0.0-620.0","wzvrqbzm","1440","900","","","","","","","","","","","null","+","Fixation - short","","null","","","","","","","","","","","","","","","","",""
"","html-keyboard-response","383","362156","0.0-621.0","wzvrqbzm","","","","","","","","","","","","","631","sjn","Diagnostic trial","","f","","8","2","4","false","false","false","both pre & post","RIGHT","LEFT","f","1","false","","","",""
"","html-keyboard-response","384","362909","0.0-624.0","wzvrqbzm","1440","900","","","","","","","","","","","null","+","Fixation - short","","null","","","","","","","","","","","","","","","","",""
"","html-keyboard-response","385","363534","0.0-625.0","wzvrqbzm","","","","","","","","","","","","","624","wab","Diagnostic trial","","j","","8","3","4","false","false","true","both pre & post","LEFT","RIGHT","j","1","false","","","",""
"","html-keyboard-response","386","364286","0.0-628.0","wzvrqbzm","1440","900","","","","","","","","","","","null","+","Fixation - short","","null","","","","","","","","","","","","","","","","",""
"","canvas-keyboard-response","387","365538","0.0-629.0","wzvrqbzm","","","","","","","","","","","","","null","Cue","Cue","","null","","8","3","","","false","","","","","","","","","","",""
"","html-keyboard-response","388","366292","0.0-630.0","wzvrqbzm","1440","900","","","","","","","","","","","null","+","Fixation - short","","null","","","","","","","","","","","","","","","","",""
"","html-keyboard-response","389","366954","0.0-631.0","wzvrqbzm","","","","","","","","","","","","","661","sjn","Diagnostic trial","","j","","8","4","4","true","false","true","both pre & post","RIGHT","RIGHT","j","1","true","","","",""
"","html-keyboard-response","390","367707","0.0-634.0","wzvrqbzm","1440","900","","","","","","","","","","","null","+","Fixation - short","","null","","","","","","","","","","","","","","","","",""
"","html-keyboard-response","391","368214","0.0-635.0","wzvrqbzm","","","","","","","","","","","","","506","sjn","Diagnostic trial","","j","","8","5","4","true","false","false","both pre & post","RIGHT","LEFT","f","0","false","","","",""
"","call-function","392","368215","0.0-637.0-0.0","wzvrqbzm","","","","","","","","","","","","","","","","","","","","","","","","","","","","","","","","","",""
"","html-keyboard-response","393","368517","0.0-637.0-1.0","wzvrqbzm","1440","900","","","","","","","","","","","null","Wrong","Feedback","","null","","","","","","","","","","","","","","","","",""
"","call-function","394","368518","0.0-637.0-2.0","wzvrqbzm","","","","","","","","","","","","","","","","","","","","","","","","","","","","","","","","","",""
"","html-keyboard-response","395","369270","0.0-638.0","wzvrqbzm","1440","900","","","","","","","","","","","null","+","Fixation - short","","null","","","","","","","","","","","","","","","","",""
"","html-keyboard-response","396","369936","0.0-639.0","wzvrqbzm","","","","","","","","","","","","","665","sjn","Diagnostic trial","","j","","8","6","4","true","false","true","both pre & post","RIGHT","RIGHT","j","1","true","","","",""
"","html-keyboard-response","397","370689","0.0-642.0","wzvrqbzm","1440","900","","","","","","","","","","","null","+","Fixation - short","","null","","","","","","","","","","","","","","","","",""
"","html-keyboard-response","398","371384","0.0-643.0","wzvrqbzm","","","","","","","","","","","","","695","sjn","Diagnostic trial","","f","","8","7","4","true","false","false","both pre & post","RIGHT","LEFT","f","1","false","","","",""
"","html-keyboard-response","399","372137","0.0-646.0","wzvrqbzm","1440","900","","","","","","","","","","","null","+","Fixation - short","","null","","","","","","","","","","","","","","","","",""
"","html-keyboard-response","400","373382","0.0-647.0","wzvrqbzm","","","","","","","","","","","","","1244","sjn","Inducer trial","","j","","8","","","","true","","","","","j","1","","false","RIGHT","",""
"","html-keyboard-response","401","374135","0.0-650.0","wzvrqbzm","1440","900","","","","","","","","","","","null","+","Fixation - short","","null","","","","","","","","","","","","","","","","",""
"","html-keyboard-response","402","375491","0.0-651.0","wzvrqbzm","","","","","","","","","","","","","1355","If kue press RIGHT | If asn press LEFT","Inducer instructions",""," ","","9","","","","","","","","","","","","","","",""
"","html-keyboard-response","403","376244","0.0-652.0","wzvrqbzm","1440","900","","","","","","","","","","","null","+","Fixation - short","","null","","","","","","","","","","","","","","","","",""
"","html-keyboard-response","404","377357","0.0-653.0","wzvrqbzm","","","","","","","","","","","","","1112","asn","Diagnostic trial","","j","","9","0","7","false","false","true","both pre & post","LEFT","RIGHT","j","1","false","","","",""
"","html-keyboard-response","405","378110","0.0-656.0","wzvrqbzm","1440","900","","","","","","","","","","","null","+","Fixation - short","","null","","","","","","","","","","","","","","","","",""
"","html-keyboard-response","406","379098","0.0-657.0","wzvrqbzm","","","","","","","","","","","","","987","kue","Diagnostic trial","","j","","9","1","7","false","false","true","both pre & post","RIGHT","RIGHT","j","1","true","","","",""
"","html-keyboard-response","407","379851","0.0-660.0","wzvrqbzm","1440","900","","","","","","","","","","","null","+","Fixation - short","","null","","","","","","","","","","","","","","","","",""
"","html-keyboard-response","408","380490","0.0-661.0","wzvrqbzm","","","","","","","","","","","","","638","asn","Diagnostic trial","","j","","9","2","7","false","false","true","both pre & post","LEFT","RIGHT","j","1","false","","","",""
"","html-keyboard-response","409","381243","0.0-664.0","wzvrqbzm","1440","900","","","","","","","","","","","null","+","Fixation - short","","null","","","","","","","","","","","","","","","","",""
"","html-keyboard-response","410","382028","0.0-665.0","wzvrqbzm","","","","","","","","","","","","","784","kue","Diagnostic trial","","f","","9","3","7","false","false","false","both pre & post","RIGHT","LEFT","f","1","false","","","",""
"","html-keyboard-response","411","382781","0.0-668.0","wzvrqbzm","1440","900","","","","","","","","","","","null","+","Fixation - short","","null","","","","","","","","","","","","","","","","",""
"","html-keyboard-response","412","383588","0.0-669.0","wzvrqbzm","","","","","","","","","","","","","806","asn","Diagnostic trial","","j","","9","4","7","false","false","true","both pre & post","LEFT","RIGHT","j","1","false","","","",""
"","html-keyboard-response","413","384340","0.0-672.0","wzvrqbzm","1440","900","","","","","","","","","","","null","+","Fixation - short","","null","","","","","","","","","","","","","","","","",""
"","html-keyboard-response","414","385106","0.0-673.0","wzvrqbzm","","","","","","","","","","","","","765","asn","Diagnostic trial","","j","","9","5","7","false","false","true","both pre & post","LEFT","RIGHT","j","1","false","","","",""
"","html-keyboard-response","415","385858","0.0-676.0","wzvrqbzm","1440","900","","","","","","","","","","","null","+","Fixation - short","","null","","","","","","","","","","","","","","","","",""
"","html-keyboard-response","416","386435","0.0-677.0","wzvrqbzm","","","","","","","","","","","","","576","asn","Diagnostic trial","","j","","9","6","7","false","false","true","both pre & post","LEFT","RIGHT","j","1","false","","","",""
"","html-keyboard-response","417","387188","0.0-680.0","wzvrqbzm","1440","900","","","","","","","","","","","null","+","Fixation - short","","null","","","","","","","","","","","","","","","","",""
"","canvas-keyboard-response","418","388441","0.0-681.0","wzvrqbzm","","","","","","","","","","","","","null","Cue","Cue","","null","","9","6","","","false","","","","","","","","","","",""
"","html-keyboard-response","419","389194","0.0-682.0","wzvrqbzm","1440","900","","","","","","","","","","","null","+","Fixation - short","","null","","","","","","","","","","","","","","","","",""
"","html-keyboard-response","420","389923","0.0-683.0","wzvrqbzm","","","","","","","","","","","","","727","asn","Diagnostic trial","","f","","9","7","7","true","false","false","both pre & post","LEFT","LEFT","f","1","true","","","",""
"","html-keyboard-response","421","390675","0.0-686.0","wzvrqbzm","1440","900","","","","","","","","","","","null","+","Fixation - short","","null","","","","","","","","","","","","","","","","",""
"","html-keyboard-response","422","391271","0.0-687.0","wzvrqbzm","","","","","","","","","","","","","594","kue","Diagnostic trial","","j","","9","8","7","true","false","true","both pre & post","RIGHT","RIGHT","j","1","true","","","",""
"","html-keyboard-response","423","392023","0.0-690.0","wzvrqbzm","1440","900","","","","","","","","","","","null","+","Fixation - short","","null","","","","","","","","","","","","","","","","",""
"","html-keyboard-response","424","392872","0.0-691.0","wzvrqbzm","","","","","","","","","","","","","848","asn","Diagnostic trial","","j","","9","9","7","true","false","true","both pre & post","LEFT","RIGHT","j","1","false","","","",""
"","html-keyboard-response","425","393624","0.0-694.0","wzvrqbzm","1440","900","","","","","","","","","","","null","+","Fixation - short","","null","","","","","","","","","","","","","","","","",""
"","html-keyboard-response","426","394968","0.0-695.0","wzvrqbzm","","","","","","","","","","","","","1343","asn","Inducer trial","","f","","9","","","","true","","","","","f","1","","false","LEFT","",""
"","html-keyboard-response","427","395720","0.0-698.0","wzvrqbzm","1440","900","","","","","","","","","","","null","+","Fixation - short","","null","","","","","","","","","","","","","","","","",""
"","html-keyboard-response","428","396970","0.0-699.0","wzvrqbzm","","","","","","","","","","","","","1249","If pbz press RIGHT | If pmf press LEFT","Inducer instructions",""," ","","10","","","","","","","","","","","","","","",""
"","html-keyboard-response","429","397723","0.0-700.0","wzvrqbzm","1440","900","","","","","","","","","","","null","+","Fixation - short","","null","","","","","","","","","","","","","","","","",""
"","html-keyboard-response","430","398537","0.0-701.0","wzvrqbzm","","","","","","","","","","","","","813","pmf","Diagnostic trial","","j","","10","0","10","false","false","true","both pre & post","LEFT","RIGHT","j","1","false","","","",""
"","html-keyboard-response","431","399290","0.0-704.0","wzvrqbzm","1440","900","","","","","","","","","","","null","+","Fixation - short","","null","","","","","","","","","","","","","","","","",""
"","html-keyboard-response","432","399956","0.0-705.0","wzvrqbzm","","","","","","","","","","","","","665","pbz","Diagnostic trial","","f","","10","1","10","false","false","false","both pre & post","RIGHT","LEFT","f","1","false","","","",""
"","html-keyboard-response","433","400709","0.0-708.0","wzvrqbzm","1440","900","","","","","","","","","","","null","+","Fixation - short","","null","","","","","","","","","","","","","","","","",""
"","html-keyboard-response","434","401241","0.0-709.0","wzvrqbzm","","","","","","","","","","","","","531","pmf","Diagnostic trial","","j","","10","2","10","false","false","true","both pre & post","LEFT","RIGHT","j","1","false","","","",""
"","html-keyboard-response","435","401994","0.0-712.0","wzvrqbzm","1440","900","","","","","","","","","","","null","+","Fixation - short","","null","","","","","","","","","","","","","","","","",""
"","html-keyboard-response","436","402721","0.0-713.0","wzvrqbzm","","","","","","","","","","","","","726","pmf","Diagnostic trial","","f","","10","3","10","false","false","false","both pre & post","LEFT","LEFT","f","1","true","","","",""
"","html-keyboard-response","437","403474","0.0-716.0","wzvrqbzm","1440","900","","","","","","","","","","","null","+","Fixation - short","","null","","","","","","","","","","","","","","","","",""
"","html-keyboard-response","438","404078","0.0-717.0","wzvrqbzm","","","","","","","","","","","","","603","pmf","Diagnostic trial","","f","","10","4","10","false","false","false","both pre & post","LEFT","LEFT","f","1","true","","","",""
"","html-keyboard-response","439","404831","0.0-720.0","wzvrqbzm","1440","900","","","","","","","","","","","null","+","Fixation - short","","null","","","","","","","","","","","","","","","","",""
"","html-keyboard-response","440","405444","0.0-721.0","wzvrqbzm","","","","","","","","","","","","","611","pmf","Diagnostic trial","","f","","10","5","10","false","false","false","both pre & post","LEFT","LEFT","f","1","true","","","",""
"","html-keyboard-response","441","406197","0.0-724.0","wzvrqbzm","1440","900","","","","","","","","","","","null","+","Fixation - short","","null","","","","","","","","","","","","","","","","",""
"","html-keyboard-response","442","406715","0.0-725.0","wzvrqbzm","","","","","","","","","","","","","517","pmf","Diagnostic trial","","f","","10","6","10","false","false","false","both pre & post","LEFT","LEFT","f","1","true","","","",""
"","html-keyboard-response","443","407468","0.0-728.0","wzvrqbzm","1440","900","","","","","","","","","","","null","+","Fixation - short","","null","","","","","","","","","","","","","","","","",""
"","html-keyboard-response","444","407957","0.0-729.0","wzvrqbzm","","","","","","","","","","","","","488","pmf","Diagnostic trial","","f","","10","7","10","false","false","false","both pre & post","LEFT","LEFT","f","1","true","","","",""
"","html-keyboard-response","445","408709","0.0-732.0","wzvrqbzm","1440","900","","","","","","","","","","","null","+","Fixation - short","","null","","","","","","","","","","","","","","","","",""
"","html-keyboard-response","446","409240","0.0-733.0","wzvrqbzm","","","","","","","","","","","","","530","pbz","Diagnostic trial","","j","","10","8","10","false","false","true","both pre & post","RIGHT","RIGHT","j","1","true","","","",""
"","html-keyboard-response","447","409992","0.0-736.0","wzvrqbzm","1440","900","","","","","","","","","","","null","+","Fixation - short","","null","","","","","","","","","","","","","","","","",""
"","html-keyboard-response","448","410564","0.0-737.0","wzvrqbzm","","","","","","","","","","","","","570","pmf","Diagnostic trial","","j","","10","9","10","false","false","true","both pre & post","LEFT","RIGHT","j","1","false","","","",""
"","html-keyboard-response","449","411317","0.0-740.0","wzvrqbzm","1440","900","","","","","","","","","","","null","+","Fixation - short","","null","","","","","","","","","","","","","","","","",""
"","canvas-keyboard-response","450","412570","0.0-741.0","wzvrqbzm","","","","","","","","","","","","","null","Cue","Cue","","null","","10","9","","","false","","","","","","","","","","",""
"","html-keyboard-response","451","413323","0.0-742.0","wzvrqbzm","1440","900","","","","","","","","","","","null","+","Fixation - short","","null","","","","","","","","","","","","","","","","",""
"","html-keyboard-response","452","414028","0.0-743.0","wzvrqbzm","","","","","","","","","","","","","704","pbz","Diagnostic trial","","j","","10","10","10","true","false","true","both pre & post","RIGHT","RIGHT","j","1","true","","","",""
"","html-keyboard-response","453","414781","0.0-746.0","wzvrqbzm","1440","900","","","","","","","","","","","null","+","Fixation - short","","null","","","","","","","","","","","","","","","","",""
"","html-keyboard-response","454","415390","0.0-747.0","wzvrqbzm","","","","","","","","","","","","","608","pmf","Diagnostic trial","","j","","10","11","10","true","false","true","both pre & post","LEFT","RIGHT","j","1","false","","","",""
"","html-keyboard-response","455","416142","0.0-750.0","wzvrqbzm","1440","900","","","","","","","","","","","null","+","Fixation - short","","null","","","","","","","","","","","","","","","","",""
"","html-keyboard-response","456","416868","0.0-751.0","wzvrqbzm","","","","","","","","","","","","","724","pbz","Diagnostic trial","","j","","10","12","10","true","false","true","both pre & post","RIGHT","RIGHT","j","1","true","","","",""
"","html-keyboard-response","457","417621","0.0-754.0","wzvrqbzm","1440","900","","","","","","","","","","","null","+","Fixation - short","","null","","","","","","","","","","","","","","","","",""
"","html-keyboard-response","458","419241","0.0-755.0","wzvrqbzm","","","","","","","","","","","","","1619","pbz","Inducer trial","","j","","10","","","","true","","","","","j","1","","false","RIGHT","",""
"","html-keyboard-response","459","419992","0.0-758.0","wzvrqbzm","1440","900","","","","","","","","","","","null","+","Fixation - short","","null","","","","","","","","","","","","","","","","",""
"","html-keyboard-response","460","422792","0.0-759.0","wzvrqbzm","","","","","","","","","","","","","2799","If rrd press RIGHT | If slu press LEFT","Inducer instructions",""," ","","11","","","","","","","","","","","","","","",""
"","html-keyboard-response","461","423545","0.0-760.0","wzvrqbzm","1440","900","","","","","","","","","","","null","+","Fixation - short","","null","","","","","","","","","","","","","","","","",""
