"value","trial_type","trial_index","time_elapsed","internal_node_id","id","width","height","webaudio","browser","browser_version","mobile","os","fullscreen","vsync_rate","webcam","microphone","view_history","rt","stimulus","trial_info","success","response","exp_parameters","inducer_run","diagnostic_run","cue_num","post_cue","inducer_trial","italic","forced_equal_run","correct_inducer_response_side","correct_diag_response_side","correct_response_key","correct_response","congruent","force_equal","correct_indu_response_side","accuracy","interactive"
"","call-function","0","3","0.0-0.0","9trhclc7","","","","","","","","","","","","","","","","","","","","","","","","","","","","","","","","","",""
"","browser-check","1","1012","0.0-1.0","9trhclc7","1426","731","true","safari","17.2.1","false","Mac OS","true","59.94","true","true","","","","","","","","","","","","","","","","","","","","","","",""
"","instructions","2","60875","0.0-2.0","9trhclc7","","","","","","","","","","","","[{""page_index"":0,""viewing_time"":37491},{""page_index"":1,""viewing_time"":15791},{""page_index"":2,""viewing_time"":6577}]","59859","The experiment and consent","The experiment and consent","","","","","","","","","","","","","","","","","","",""
"","fullscreen","3","65672","0.0-3.0","9trhclc7","","","","","","","","","","","","","3794","","Full screen","true","","","","","","","","","","","","","","","","","",""
"","instructions","4","128975","0.0-4.0","9trhclc7","","","","","","","","","","","","[{""page_index"":0,""viewing_time"":31449},{""page_index"":1,""viewing_time"":31850}]","63300","Instructions","Basic overview explanation","","","","","","","","","","","","","","","","","","",""
"","html-keyboard-response","5","139258","0.0-5.0","9trhclc7","","","","","","","","","","","","","8777","If italic press LEFT | If upright press RIGHT","Diagnostic instructions",""," ","{""debug"":false,""skip_instructions"":false,""skip_practice"":false,""save_local_data"":false,""studu_name"":""exp2"",""default_background_colour"":""#cccccc"",""wrong_response_colour"":""#d22d2d"",""instruction_delay"":20000,""trial_duration"":2000,""short_fixation"":750,""long_fixation"":1500,""wrong_response_delay"":300,""too_slow_delay"":300,""instruction_font_size"":""24px"",""general_font_size"":""42px"",""fixation_size"":""48px"",""allowed_responses"":[""f"",""j""],""cue_min_length"":0,""cue_max_length"":4,""tot_post_cue_len"":72,""cue_colour"":""blue"",""cue_shape"":""Circle"",""cue_size"":70,""cue_duration"":1250,""avg_number_of_cues"":3,""inducer_colour"":""red"",""number_of_inducers"":24,""pre_cue_italic_forced_equal"":true,""post_cue_italic_forced_equal"":true,""prac_diagnostic_rounds"":16,""prac_inducer_rounds"":6,""prac_cue_rounds"":16,""prac_post_cue_num"":3}","","","","","","","","","","","","","","","",""
"","html-keyboard-response","6","140012","0.0-6.0","9trhclc7","1440","900","","","","","","","","","","","null","+","Fixation - short","","null","","","","","","","","","","","","","","","","",""
"","html-keyboard-response","7","140801","0.0-7.0","9trhclc7","","","","","","","","","","","","","787","mvv","Diagnostic practice","","f","","Diagnostic practice","0","-84","true","false","true","prac equal","LEFT","LEFT","f","1","true","","","",""
"","html-keyboard-response","8","141554","0.0-10.0","9trhclc7","1440","900","","","","","","","","","","","null","+","Fixation - short","","null","","","","","","","","","","","","","","","","",""
"","html-keyboard-response","9","142366","0.0-11.0","9trhclc7","","","","","","","","","","","","","810","mvv","Diagnostic practice","","j","","Diagnostic practice","1","-84","true","false","false","prac equal","LEFT","RIGHT","j","1","false","","","",""
"","html-keyboard-response","10","143119","0.0-14.0","9trhclc7","1440","900","","","","","","","","","","","null","+","Fixation - short","","null","","","","","","","","","","","","","","","","",""
"","html-keyboard-response","11","143642","0.0-15.0","9trhclc7","","","","","","","","","","","","","521","mvv","Diagnostic practice","","j","","Diagnostic practice","2","-84","true","false","false","prac equal","LEFT","RIGHT","j","1","false","","","",""
"","html-keyboard-response","12","144394","0.0-18.0","9trhclc7","1440","900","","","","","","","","","","","null","+","Fixation - short","","null","","","","","","","","","","","","","","","","",""
"","html-keyboard-response","13","145194","0.0-19.0","9trhclc7","","","","","","","","","","","","","799","mvv","Diagnostic practice","","f","","Diagnostic practice","3","-84","true","false","true","prac equal","LEFT","LEFT","f","1","true","","","",""
"","html-keyboard-response","14","145947","0.0-22.0","9trhclc7","1440","900","","","","","","","","","","","null","+","Fixation - short","","null","","","","","","","","","","","","","","","","",""
"","html-keyboard-response","15","146568","0.0-23.0","9trhclc7","","","","","","","","","","","","","620","mvv","Diagnostic practice","","j","","Diagnostic practice","4","-84","true","false","false","prac equal","LEFT","RIGHT","j","1","false","","","",""
"","html-keyboard-response","16","147320","0.0-26.0","9trhclc7","1440","900","","","","","","","","","","","null","+","Fixation - short","","null","","","","","","","","","","","","","","","","",""
"","html-keyboard-response","17","147796","0.0-27.0","9trhclc7","","","","","","","","","","","","","475","mvv","Diagnostic practice","","j","","Diagnostic practice","5","-84","true","false","false","prac equal","LEFT","RIGHT","j","1","false","","","",""
"","html-keyboard-response","18","148549","0.0-30.0","9trhclc7","1440","900","","","","","","","","","","","null","+","Fixation - short","","null","","","","","","","","","","","","","","","","",""
"","html-keyboard-response","19","149027","0.0-31.0","9trhclc7","","","","","","","","","","","","","477","mvv","Diagnostic practice","","j","","Diagnostic practice","6","-84","true","false","false","prac equal","LEFT","RIGHT","j","1","false","","","",""
"","html-keyboard-response","20","149780","0.0-34.0","9trhclc7","1440","900","","","","","","","","","","","null","+","Fixation - short","","null","","","","","","","","","","","","","","","","",""
"","html-keyboard-response","21","150319","0.0-35.0","9trhclc7","","","","","","","","","","","","","537","jft","Diagnostic practice","","f","","Diagnostic practice","7","-84","true","false","true","prac equal","RIGHT","LEFT","f","1","false","","","",""
"","html-keyboard-response","22","151072","0.0-38.0","9trhclc7","1440","900","","","","","","","","","","","null","+","Fixation - short","","null","","","","","","","","","","","","","","","","",""
"","html-keyboard-response","23","151599","0.0-39.0","9trhclc7","","","","","","","","","","","","","526","jft","Diagnostic practice","","j","","Diagnostic practice","8","-84","true","false","false","prac equal","RIGHT","RIGHT","j","1","true","","","",""
"","html-keyboard-response","24","152352","0.0-42.0","9trhclc7","1440","900","","","","","","","","","","","null","+","Fixation - short","","null","","","","","","","","","","","","","","","","",""
"","html-keyboard-response","25","152879","0.0-43.0","9trhclc7","","","","","","","","","","","","","526","mvv","Diagnostic practice","","j","","Diagnostic practice","9","-84","true","false","false","prac equal","LEFT","RIGHT","j","1","false","","","",""
"","html-keyboard-response","26","153631","0.0-46.0","9trhclc7","1440","900","","","","","","","","","","","null","+","Fixation - short","","null","","","","","","","","","","","","","","","","",""
"","html-keyboard-response","27","154245","0.0-47.0","9trhclc7","","","","","","","","","","","","","612","mvv","Diagnostic practice","","f","","Diagnostic practice","10","-84","true","false","true","prac equal","LEFT","LEFT","f","1","true","","","",""
"","html-keyboard-response","28","154998","0.0-50.0","9trhclc7","1440","900","","","","","","","","","","","null","+","Fixation - short","","null","","","","","","","","","","","","","","","","",""
"","html-keyboard-response","29","155493","0.0-51.0","9trhclc7","","","","","","","","","","","","","493","jft","Diagnostic practice","","f","","Diagnostic practice","11","-84","true","false","true","prac equal","RIGHT","LEFT","f","1","false","","","",""
"","html-keyboard-response","30","156245","0.0-54.0","9trhclc7","1440","900","","","","","","","","","","","null","+","Fixation - short","","null","","","","","","","","","","","","","","","","",""
"","html-keyboard-response","31","156681","0.0-55.0","9trhclc7","","","","","","","","","","","","","436","jft","Diagnostic practice","","f","","Diagnostic practice","12","-84","true","false","true","prac equal","RIGHT","LEFT","f","1","false","","","",""
"","html-keyboard-response","32","157434","0.0-58.0","9trhclc7","1440","900","","","","","","","","","","","null","+","Fixation - short","","null","","","","","","","","","","","","","","","","",""
"","html-keyboard-response","33","157850","0.0-59.0","9trhclc7","","","","","","","","","","","","","414","jft","Diagnostic practice","","f","","Diagnostic practice","13","-84","true","false","true","prac equal","RIGHT","LEFT","f","1","false","","","",""
"","html-keyboard-response","34","158603","0.0-62.0","9trhclc7","1440","900","","","","","","","","","","","null","+","Fixation - short","","null","","","","","","","","","","","","","","","","",""
"","html-keyboard-response","35","159027","0.0-63.0","9trhclc7","","","","","","","","","","","","","422","jft","Diagnostic practice","","f","","Diagnostic practice","14","-84","true","false","true","prac equal","RIGHT","LEFT","f","1","false","","","",""
"","html-keyboard-response","36","159779","0.0-66.0","9trhclc7","1440","900","","","","","","","","","","","null","+","Fixation - short","","null","","","","","","","","","","","","","","","","",""
"","html-keyboard-response","37","160258","0.0-67.0","9trhclc7","","","","","","","","","","","","","478","mvv","Diagnostic practice","","j","","Diagnostic practice","15","-84","true","false","false","prac equal","LEFT","RIGHT","j","1","false","","","",""
"","html-keyboard-response","38","161011","0.0-70.0","9trhclc7","1440","900","","","","","","","","","","","null","+","Fixation - short","","null","","","","","","","","","","","","","","","","",""
"","instructions","39","172843","0.0-71.0","9trhclc7","","","","","","","","","","","","[{""page_index"":0,""viewing_time"":11829}]","11830","Instructions","Final experiment explanation","","","","","","","","","","","","","","","","","","",""
"","html-keyboard-response","40","183404","0.0-72.0","9trhclc7","","","","","","","","","","","","","9056","If ecl press LEFT | If bms press RIGHT","Inducer practice",""," ","","Practice","","","","","","","","","","","","","","",""
"","html-keyboard-response","41","184157","0.0-73.0","9trhclc7","1440","900","","","","","","","","","","","null","+","Fixation - short","","null","","","","","","","","","","","","","","","","",""
"","html-keyboard-response","42","184684","0.0-74.0","9trhclc7","","","","","","","","","","","","","525","ecl","Inducer practice","","f","","Practice","","","","true","","","","","f","1","","true","LEFT","",""
"","html-keyboard-response","43","185437","0.0-77.0","9trhclc7","1440","900","","","","","","","","","","","null","+","Fixation - short","","null","","","","","","","","","","","","","","","","",""
"","html-keyboard-response","44","199157","0.0-78.0","9trhclc7","","","","","","","","","","","","","13718","If tkb press LEFT | If fja press RIGHT","Inducer practice",""," ","","Practice","","","","","","","","","","","","","","",""
"","html-keyboard-response","45","199909","0.0-79.0","9trhclc7","1440","900","","","","","","","","","","","null","+","Fixation - short","","null","","","","","","","","","","","","","","","","",""
"","html-keyboard-response","46","200399","0.0-80.0","9trhclc7","","","","","","","","","","","","","489","fja","Inducer practice","","j","","Practice","","","","true","","","","","j","1","","true","RIGHT","",""
"","html-keyboard-response","47","201151","0.0-83.0","9trhclc7","1440","900","","","","","","","","","","","null","+","Fixation - short","","null","","","","","","","","","","","","","","","","",""
"","html-keyboard-response","48","206917","0.0-84.0","9trhclc7","","","","","","","","","","","","","5764","If chy press LEFT | If lct press RIGHT","Inducer practice",""," ","","Practice","","","","","","","","","","","","","","",""
"","html-keyboard-response","49","207670","0.0-85.0","9trhclc7","1440","900","","","","","","","","","","","null","+","Fixation - short","","null","","","","","","","","","","","","","","","","",""
"","html-keyboard-response","50","208303","0.0-86.0","9trhclc7","","","","","","","","","","","","","632","chy","Inducer practice","","f","","Practice","","","","true","","","","","f","1","","true","LEFT","",""
"","html-keyboard-response","51","209056","0.0-89.0","9trhclc7","1440","900","","","","","","","","","","","null","+","Fixation - short","","null","","","","","","","","","","","","","","","","",""
"","html-keyboard-response","52","214801","0.0-90.0","9trhclc7","","","","","","","","","","","","","5744","If slu press LEFT | If edc press RIGHT","Inducer practice",""," ","","Practice","","","","","","","","","","","","","","",""
"","html-keyboard-response","53","215553","0.0-91.0","9trhclc7","1440","900","","","","","","","","","","","null","+","Fixation - short","","null","","","","","","","","","","","","","","","","",""
"","html-keyboard-response","54","216115","0.0-92.0","9trhclc7","","","","","","","","","","","","","560","edc","Inducer practice","","j","","Practice","","","","true","","","","","j","1","","true","RIGHT","",""
"","html-keyboard-response","55","216867","0.0-95.0","9trhclc7","1440","900","","","","","","","","","","","null","+","Fixation - short","","null","","","","","","","","","","","","","","","","",""
"","html-keyboard-response","56","221536","0.0-96.0","9trhclc7","","","","","","","","","","","","","4666","If rrd press LEFT | If quy press RIGHT","Inducer practice",""," ","","Practice","","","","","","","","","","","","","","",""
"","html-keyboard-response","57","222288","0.0-97.0","9trhclc7","1440","900","","","","","","","","","","","null","+","Fixation - short","","null","","","","","","","","","","","","","","","","",""
"","html-keyboard-response","58","222777","0.0-98.0","9trhclc7","","","","","","","","","","","","","488","rrd","Inducer practice","","f","","Practice","","","","true","","","","","f","1","","true","LEFT","",""
"","html-keyboard-response","59","223530","0.0-101.0","9trhclc7","1440","900","","","","","","","","","","","null","+","Fixation - short","","null","","","","","","","","","","","","","","","","",""
"","html-keyboard-response","60","227169","0.0-102.0","9trhclc7","","","","","","","","","","","","","3637","If xet press LEFT | If epy press RIGHT","Inducer practice",""," ","","Practice","","","","","","","","","","","","","","",""
"","html-keyboard-response","61","227921","0.0-103.0","9trhclc7","1440","900","","","","","","","","","","","null","+","Fixation - short","","null","","","","","","","","","","","","","","","","",""
"","html-keyboard-response","62","228611","0.0-104.0","9trhclc7","","","","","","","","","","","","","688","epy","Inducer practice","","j","","Practice","","","","true","","","","","j","1","","true","RIGHT","",""
"","html-keyboard-response","63","229364","0.0-107.0","9trhclc7","1440","900","","","","","","","","","","","null","+","Fixation - short","","null","","","","","","","","","","","","","","","","",""
"","instructions","64","272817","0.0-108.0","9trhclc7","","","","","","","","","","","","[{""page_index"":0,""viewing_time"":43449}]","43450","Instructions","Final experiment explanation","","","","","","","","","","","","","","","","","","",""
"","html-keyboard-response","65","278581","0.0-109.0","9trhclc7","","","","","","","","","","","","","4262","If eeu press LEFT | If faq press RIGHT","Cue practice",""," ","","Practice","","","","","","","","","","","","","","",""
"","html-keyboard-response","66","279333","0.0-110.0","9trhclc7","1440","900","","","","","","","","","","","null","+","Fixation - short","","null","","","","","","","","","","","","","","","","",""
"","html-keyboard-response","67","280180","0.0-111.0","9trhclc7","","","","","","","","","","","","","846","faq","Cue practice","","j","","Practice","0","13","false","false","false","both pre & post","RIGHT","RIGHT","j","1","true","","","",""
"","html-keyboard-response","68","280933","0.0-114.0","9trhclc7","1440","900","","","","","","","","","","","null","+","Fixation - short","","null","","","","","","","","","","","","","","","","",""
"","html-keyboard-response","69","281909","0.0-115.0","9trhclc7","","","","","","","","","","","","","974","faq","Cue practice","","j","","Practice","1","13","false","false","true","both pre & post","RIGHT","LEFT","f","0","false","","","",""
"","call-function","70","281911","0.0-117.0-0.0","9trhclc7","","","","","","","","","","","","","","","","","","","","","","","","","","","","","","","","","",""
"","html-keyboard-response","71","282213","0.0-117.0-1.0","9trhclc7","1440","900","","","","","","","","","","","null","Wrong","Feedback","","null","","","","","","","","","","","","","","","","",""
"","call-function","72","282214","0.0-117.0-2.0","9trhclc7","","","","","","","","","","","","","","","","","","","","","","","","","","","","","","","","","",""
"","html-keyboard-response","73","282967","0.0-118.0","9trhclc7","1440","900","","","","","","","","","","","null","+","Fixation - short","","null","","","","","","","","","","","","","","","","",""
"","html-keyboard-response","74","283757","0.0-119.0","9trhclc7","","","","","","","","","","","","","789","eeu","Cue practice","","f","","Practice","2","13","false","false","true","both pre & post","LEFT","LEFT","f","1","true","","","",""
"","html-keyboard-response","75","284509","0.0-122.0","9trhclc7","1440","900","","","","","","","","","","","null","+","Fixation - short","","null","","","","","","","","","","","","","","","","",""
"","html-keyboard-response","76","285219","0.0-123.0","9trhclc7","","","","","","","","","","","","","709","faq","Cue practice","","j","","Practice","3","13","false","false","false","both pre & post","RIGHT","RIGHT","j","1","true","","","",""
"","html-keyboard-response","77","285972","0.0-126.0","9trhclc7","1440","900","","","","","","","","","","","null","+","Fixation - short","","null","","","","","","","","","","","","","","","","",""
"","html-keyboard-response","78","286566","0.0-127.0","9trhclc7","","","","","","","","","","","","","592","eeu","Cue practice","","f","","Practice","4","13","false","false","true","both pre & post","LEFT","LEFT","f","1","true","","","",""
"","html-keyboard-response","79","287318","0.0-130.0","9trhclc7","1440","900","","","","","","","","","","","null","+","Fixation - short","","null","","","","","","","","","","","","","","","","",""
"","html-keyboard-response","80","288023","0.0-131.0","9trhclc7","","","","","","","","","","","","","703","eeu","Cue practice","","j","","Practice","5","13","false","false","false","both pre & post","LEFT","RIGHT","j","1","false","","","",""
"","html-keyboard-response","81","288775","0.0-134.0","9trhclc7","1440","900","","","","","","","","","","","null","+","Fixation - short","","null","","","","","","","","","","","","","","","","",""
"","html-keyboard-response","82","289620","0.0-135.0","9trhclc7","","","","","","","","","","","","","843","faq","Cue practice","","j","","Practice","6","13","false","false","false","both pre & post","RIGHT","RIGHT","j","1","true","","","",""
"","html-keyboard-response","83","290372","0.0-138.0","9trhclc7","1440","900","","","","","","","","","","","null","+","Fixation - short","","null","","","","","","","","","","","","","","","","",""
"","html-keyboard-response","84","290954","0.0-139.0","9trhclc7","","","","","","","","","","","","","579","faq","Cue practice","","f","","Practice","7","13","false","false","true","both pre & post","RIGHT","LEFT","f","1","false","","","",""
"","html-keyboard-response","85","291706","0.0-142.0","9trhclc7","1440","900","","","","","","","","","","","null","+","Fixation - short","","null","","","","","","","","","","","","","","","","",""
"","html-keyboard-response","86","292327","0.0-143.0","9trhclc7","","","","","","","","","","","","","620","faq","Cue practice","","f","","Practice","8","13","false","false","true","both pre & post","RIGHT","LEFT","f","1","false","","","",""
"","html-keyboard-response","87","293080","0.0-146.0","9trhclc7","1440","900","","","","","","","","","","","null","+","Fixation - short","","null","","","","","","","","","","","","","","","","",""
"","html-keyboard-response","88","293800","0.0-147.0","9trhclc7","","","","","","","","","","","","","718","eeu","Cue practice","","f","","Practice","9","13","false","false","true","both pre & post","LEFT","LEFT","f","1","true","","","",""
"","html-keyboard-response","89","294552","0.0-150.0","9trhclc7","1440","900","","","","","","","","","","","null","+","Fixation - short","","null","","","","","","","","","","","","","","","","",""
"","html-keyboard-response","90","295227","0.0-151.0","9trhclc7","","","","","","","","","","","","","674","eeu","Cue practice","","j","","Practice","10","13","false","false","false","both pre & post","LEFT","RIGHT","j","1","false","","","",""
"","html-keyboard-response","91","295980","0.0-154.0","9trhclc7","1440","900","","","","","","","","","","","null","+","Fixation - short","","null","","","","","","","","","","","","","","","","",""
"","html-keyboard-response","92","296596","0.0-155.0","9trhclc7","","","","","","","","","","","","","615","eeu","Cue practice","","f","","Practice","11","13","false","false","true","both pre & post","LEFT","LEFT","f","1","true","","","",""
"","html-keyboard-response","93","297349","0.0-158.0","9trhclc7","1440","900","","","","","","","","","","","null","+","Fixation - short","","null","","","","","","","","","","","","","","","","",""
"","html-keyboard-response","94","297927","0.0-159.0","9trhclc7","","","","","","","","","","","","","576","eeu","Cue practice","","j","","Practice","12","13","false","false","false","both pre & post","LEFT","RIGHT","j","1","false","","","",""
"","html-keyboard-response","95","298679","0.0-162.0","9trhclc7","1440","900","","","","","","","","","","","null","+","Fixation - short","","null","","","","","","","","","","","","","","","","",""
"","canvas-keyboard-response","96","299937","0.0-163.0","9trhclc7","","","","","","","","","","","","","null","Cue","Cue","","null","","Practice","12","","","false","","","","","","","","","","",""
"","html-keyboard-response","97","300690","0.0-164.0","9trhclc7","1440","900","","","","","","","","","","","null","+","Fixation - short","","null","","","","","","","","","","","","","","","","",""
"","html-keyboard-response","98","301446","0.0-165.0","9trhclc7","","","","","","","","","","","","","754","eeu","Cue practice","","f","","Practice","13","13","true","false","true","both pre & post","LEFT","LEFT","f","1","true","","","",""
"","html-keyboard-response","99","302199","0.0-168.0","9trhclc7","1440","900","","","","","","","","","","","null","+","Fixation - short","","null","","","","","","","","","","","","","","","","",""
"","html-keyboard-response","100","303222","0.0-169.0","9trhclc7","","","","","","","","","","","","","1021","eeu","Cue practice","","f","","Practice","14","13","true","false","true","both pre & post","LEFT","LEFT","f","1","true","","","",""
"","html-keyboard-response","101","303975","0.0-172.0","9trhclc7","1440","900","","","","","","","","","","","null","+","Fixation - short","","null","","","","","","","","","","","","","","","","",""
"","html-keyboard-response","102","304694","0.0-173.0","9trhclc7","","","","","","","","","","","","","718","eeu","Cue practice","","j","","Practice","15","13","true","false","false","both pre & post","LEFT","RIGHT","j","1","false","","","",""
"","html-keyboard-response","103","305446","0.0-176.0","9trhclc7","1440","900","","","","","","","","","","","null","+","Fixation - short","","null","","","","","","","","","","","","","","","","",""
"","html-keyboard-response","104","306527","0.0-177.0","9trhclc7","","","","","","","","","","","","","1079","eeu","Inducer practice","","j","","Practice","","","","true","","","","","f","0","","false","LEFT","",""
"","call-function","105","306529","0.0-179.0-0.0","9trhclc7","","","","","","","","","","","","","","","","","","","","","","","","","","","","","","","","","",""
"","html-keyboard-response","106","306831","0.0-179.0-1.0","9trhclc7","1440","900","","","","","","","","","","","null","Wrong","Feedback","","null","","","","","","","","","","","","","","","","",""
"","call-function","107","306832","0.0-179.0-2.0","9trhclc7","","","","","","","","","","","","","","","","","","","","","","","","","","","","","","","","","",""
"","html-keyboard-response","108","307584","0.0-180.0","9trhclc7","1440","900","","","","","","","","","","","null","+","Fixation - short","","null","","","","","","","","","","","","","","","","",""
"","instructions","109","318839","0.0-181.0","9trhclc7","","","","","","","","","","","","[{""page_index"":0,""viewing_time"":11252}]","11252","End practice","End of practice","","","","","","","","","","","","","","","","","","",""
"","html-keyboard-response","110","321842","0.0-182.0","9trhclc7","1440","900","","","","","","","","","","","null","+","Fixation - long","","null","","","","","","","","","","","","","","","","",""
"","html-keyboard-response","111","326594","0.0-183.0","9trhclc7","","","","","","","","","","","","","4751","If byy press LEFT | If ibg press RIGHT","Inducer instructions",""," ","","0","","","","","","","","","","","","","","",""
"","html-keyboard-response","112","327347","0.0-184.0","9trhclc7","1440","900","","","","","","","","","","","null","+","Fixation - short","","null","","","","","","","","","","","","","","","","",""
"","html-keyboard-response","113","327931","0.0-185.0","9trhclc7","","","","","","","","","","","","","582","byy","Diagnostic trial","","f","","0","0","6","false","false","false","both pre & post","LEFT","RIGHT","j","0","false","","","",""
"","call-function","114","327932","0.0-187.0-0.0","9trhclc7","","","","","","","","","","","","","","","","","","","","","","","","","","","","","","","","","",""
"","html-keyboard-response","115","328235","0.0-187.0-1.0","9trhclc7","1440","900","","","","","","","","","","","null","Wrong","Feedback","","null","","","","","","","","","","","","","","","","",""
"","call-function","116","328236","0.0-187.0-2.0","9trhclc7","","","","","","","","","","","","","","","","","","","","","","","","","","","","","","","","","",""
"","html-keyboard-response","117","328988","0.0-188.0","9trhclc7","1440","900","","","","","","","","","","","null","+","Fixation - short","","null","","","","","","","","","","","","","","","","",""
"","html-keyboard-response","118","329722","0.0-189.0","9trhclc7","","","","","","","","","","","","","733","byy","Diagnostic trial","","f","","0","1","6","false","false","true","both pre & post","LEFT","LEFT","f","1","true","","","",""
"","html-keyboard-response","119","330474","0.0-192.0","9trhclc7","1440","900","","","","","","","","","","","null","+","Fixation - short","","null","","","","","","","","","","","","","","","","",""
"","html-keyboard-response","120","331140","0.0-193.0","9trhclc7","","","","","","","","","","","","","664","ibg","Diagnostic trial","","j","","0","2","6","false","false","false","both pre & post","RIGHT","RIGHT","j","1","true","","","",""
"","html-keyboard-response","121","331892","0.0-196.0","9trhclc7","1440","900","","","","","","","","","","","null","+","Fixation - short","","null","","","","","","","","","","","","","","","","",""
"","html-keyboard-response","122","332624","0.0-197.0","9trhclc7","","","","","","","","","","","","","730","ibg","Diagnostic trial","","f","","0","3","6","false","false","true","both pre & post","RIGHT","LEFT","f","1","false","","","",""
"","html-keyboard-response","123","333376","0.0-200.0","9trhclc7","1440","900","","","","","","","","","","","null","+","Fixation - short","","null","","","","","","","","","","","","","","","","",""
"","html-keyboard-response","124","334127","0.0-201.0","9trhclc7","","","","","","","","","","","","","749","ibg","Diagnostic trial","","j","","0","4","6","false","false","false","both pre & post","RIGHT","RIGHT","j","1","true","","","",""
"","html-keyboard-response","125","334879","0.0-204.0","9trhclc7","1440","900","","","","","","","","","","","null","+","Fixation - short","","null","","","","","","","","","","","","","","","","",""
"","html-keyboard-response","126","335647","0.0-205.0","9trhclc7","","","","","","","","","","","","","767","ibg","Diagnostic trial","","j","","0","5","6","false","false","false","both pre & post","RIGHT","RIGHT","j","1","true","","","",""
"","html-keyboard-response","127","336399","0.0-208.0","9trhclc7","1440","900","","","","","","","","","","","null","+","Fixation - short","","null","","","","","","","","","","","","","","","","",""
"","canvas-keyboard-response","128","337651","0.0-209.0","9trhclc7","","","","","","","","","","","","","null","Cue","Cue","","null","","0","5","","","false","","","","","","","","","","",""
"","html-keyboard-response","129","338403","0.0-210.0","9trhclc7","1440","900","","","","","","","","","","","null","+","Fixation - short","","null","","","","","","","","","","","","","","","","",""
"","html-keyboard-response","130","339402","0.0-211.0","9trhclc7","","","","","","","","","","","","","998","byy","Diagnostic trial","","j","","0","6","6","true","false","false","both pre & post","LEFT","RIGHT","j","1","false","","","",""
"","html-keyboard-response","131","340155","0.0-214.0","9trhclc7","1440","900","","","","","","","","","","","null","+","Fixation - short","","null","","","","","","","","","","","","","","","","",""
"","html-keyboard-response","132","341018","0.0-215.0","9trhclc7","","","","","","","","","","","","","862","byy","Inducer trial","","f","","0","","","","true","","","","","f","1","","false","LEFT","",""
"","html-keyboard-response","133","341770","0.0-218.0","9trhclc7","1440","900","","","","","","","","","","","null","+","Fixation - short","","null","","","","","","","","","","","","","","","","",""
"","html-keyboard-response","134","346579","0.0-219.0","9trhclc7","","","","","","","","","","","","","4807","If dgv press LEFT | If gdn press RIGHT","Inducer instructions",""," ","","1","","","","","","","","","","","","","","",""
"","html-keyboard-response","135","347330","0.0-220.0","9trhclc7","1440","900","","","","","","","","","","","null","+","Fixation - short","","null","","","","","","","","","","","","","","","","",""
"","html-keyboard-response","136","347978","0.0-221.0","9trhclc7","","","","","","","","","","","","","647","gdn","Diagnostic trial","","f","","1","0","6","false","false","true","both pre & post","RIGHT","LEFT","f","1","false","","","",""
"","html-keyboard-response","137","348730","0.0-224.0","9trhclc7","1440","900","","","","","","","","","","","null","+","Fixation - short","","null","","","","","","","","","","","","","","","","",""
"","html-keyboard-response","138","349421","0.0-225.0","9trhclc7","","","","","","","","","","","","","690","gdn","Diagnostic trial","","f","","1","1","6","false","false","true","both pre & post","RIGHT","LEFT","f","1","false","","","",""
"","html-keyboard-response","139","350174","0.0-228.0","9trhclc7","1440","900","","","","","","","","","","","null","+","Fixation - short","","null","","","","","","","","","","","","","","","","",""
"","html-keyboard-response","140","350853","0.0-229.0","9trhclc7","","","","","","","","","","","","","678","gdn","Diagnostic trial","","j","","1","2","6","false","false","false","both pre & post","RIGHT","RIGHT","j","1","true","","","",""
"","html-keyboard-response","141","351605","0.0-232.0","9trhclc7","1440","900","","","","","","","","","","","null","+","Fixation - short","","null","","","","","","","","","","","","","","","","",""
"","html-keyboard-response","142","352445","0.0-233.0","9trhclc7","","","","","","","","","","","","","839","dgv","Diagnostic trial","","f","","1","3","6","false","false","true","both pre & post","LEFT","LEFT","f","1","true","","","",""
"","html-keyboard-response","143","353198","0.0-236.0","9trhclc7","1440","900","","","","","","","","","","","null","+","Fixation - short","","null","","","","","","","","","","","","","","","","",""
"","html-keyboard-response","144","353921","0.0-237.0","9trhclc7","","","","","","","","","","","","","722","dgv","Diagnostic trial","","j","","1","4","6","false","false","false","both pre & post","LEFT","RIGHT","j","1","false","","","",""
"","html-keyboard-response","145","354673","0.0-240.0","9trhclc7","1440","900","","","","","","","","","","","null","+","Fixation - short","","null","","","","","","","","","","","","","","","","",""
"","html-keyboard-response","146","355512","0.0-241.0","9trhclc7","","","","","","","","","","","","","837","gdn","Diagnostic trial","","f","","1","5","6","false","false","true","both pre & post","RIGHT","LEFT","f","1","false","","","",""
"","html-keyboard-response","147","356264","0.0-244.0","9trhclc7","1440","900","","","","","","","","","","","null","+","Fixation - short","","null","","","","","","","","","","","","","","","","",""
"","canvas-keyboard-response","148","357516","0.0-245.0","9trhclc7","","","","","","","","","","","","","null","Cue","Cue","","null","","1","5","","","false","","","","","","","","","","",""
"","html-keyboard-response","149","358268","0.0-246.0","9trhclc7","1440","900","","","","","","","","","","","null","+","Fixation - short","","null","","","","","","","","","","","","","","","","",""
"","html-keyboard-response","150","359015","0.0-247.0","9trhclc7","","","","","","","","","","","","","746","dgv","Diagnostic trial","","f","","1","6","6","true","false","true","both pre & post","LEFT","LEFT","f","1","true","","","",""
"","html-keyboard-response","151","359767","0.0-250.0","9trhclc7","1440","900","","","","","","","","","","","null","+","Fixation - short","","null","","","","","","","","","","","","","","","","",""
"","html-keyboard-response","152","361391","0.0-251.0","9trhclc7","","","","","","","","","","","","","1623","dgv","Diagnostic trial","","j","","1","7","6","true","false","false","both pre & post","LEFT","RIGHT","j","1","false","","","",""
"","html-keyboard-response","153","362143","0.0-254.0","9trhclc7","1440","900","","","","","","","","","","","null","+","Fixation - short","","null","","","","","","","","","","","","","","","","",""
"","html-keyboard-response","154","362745","0.0-255.0","9trhclc7","","","","","","","","","","","","","601","dgv","Diagnostic trial","","f","","1","8","6","true","false","true","both pre & post","LEFT","LEFT","f","1","true","","","",""
"","html-keyboard-response","155","363498","0.0-258.0","9trhclc7","1440","900","","","","","","","","","","","null","+","Fixation - short","","null","","","","","","","","","","","","","","","","",""
"","html-keyboard-response","156","364248","0.0-259.0","9trhclc7","","","","","","","","","","","","","749","dgv","Diagnostic trial","","j","","1","9","6","true","false","false","both pre & post","LEFT","RIGHT","j","1","false","","","",""
"","html-keyboard-response","157","365000","0.0-262.0","9trhclc7","1440","900","","","","","","","","","","","null","+","Fixation - short","","null","","","","","","","","","","","","","","","","",""
"","html-keyboard-response","158","365755","0.0-263.0","9trhclc7","","","","","","","","","","","","","754","gdn","Inducer trial","","f","","1","","","","true","","","","","j","0","","false","RIGHT","",""
"","call-function","159","365757","0.0-265.0-0.0","9trhclc7","","","","","","","","","","","","","","","","","","","","","","","","","","","","","","","","","",""
"","html-keyboard-response","160","366058","0.0-265.0-1.0","9trhclc7","1440","900","","","","","","","","","","","null","Wrong","Feedback","","null","","","","","","","","","","","","","","","","",""
"","call-function","161","366058","0.0-265.0-2.0","9trhclc7","","","","","","","","","","","","","","","","","","","","","","","","","","","","","","","","","",""
"","html-keyboard-response","162","366810","0.0-266.0","9trhclc7","1440","900","","","","","","","","","","","null","+","Fixation - short","","null","","","","","","","","","","","","","","","","",""
"","html-keyboard-response","163","373497","0.0-267.0","9trhclc7","","","","","","","","","","","","","6686","If jlm press LEFT | If dpa press RIGHT","Inducer instructions",""," ","","2","","","","","","","","","","","","","","",""
"","html-keyboard-response","164","374249","0.0-268.0","9trhclc7","1440","900","","","","","","","","","","","null","+","Fixation - short","","null","","","","","","","","","","","","","","","","",""
"","html-keyboard-response","165","374914","0.0-269.0","9trhclc7","","","","","","","","","","","","","663","jlm","Diagnostic trial","","f","","2","0","6","false","false","true","both pre & post","LEFT","LEFT","f","1","true","","","",""
"","html-keyboard-response","166","375667","0.0-272.0","9trhclc7","1440","900","","","","","","","","","","","null","+","Fixation - short","","null","","","","","","","","","","","","","","","","",""
"","html-keyboard-response","167","376311","0.0-273.0","9trhclc7","","","","","","","","","","","","","643","jlm","Diagnostic trial","","f","","2","1","6","false","false","true","both pre & post","LEFT","LEFT","f","1","true","","","",""
"","html-keyboard-response","168","377063","0.0-276.0","9trhclc7","1440","900","","","","","","","","","","","null","+","Fixation - short","","null","","","","","","","","","","","","","","","","",""
"","html-keyboard-response","169","377723","0.0-277.0","9trhclc7","","","","","","","","","","","","","658","dpa","Diagnostic trial","","f","","2","2","6","false","false","true","both pre & post","RIGHT","LEFT","f","1","false","","","",""
"","html-keyboard-response","170","378475","0.0-280.0","9trhclc7","1440","900","","","","","","","","","","","null","+","Fixation - short","","null","","","","","","","","","","","","","","","","",""
"","html-keyboard-response","171","379293","0.0-281.0","9trhclc7","","","","","","","","","","","","","817","jlm","Diagnostic trial","","j","","2","3","6","false","false","false","both pre & post","LEFT","RIGHT","j","1","false","","","",""
"","html-keyboard-response","172","380046","0.0-284.0","9trhclc7","1440","900","","","","","","","","","","","null","+","Fixation - short","","null","","","","","","","","","","","","","","","","",""
"","html-keyboard-response","173","381249","0.0-285.0","9trhclc7","","","","","","","","","","","","","1202","dpa","Diagnostic trial","","f","","2","4","6","false","false","true","both pre & post","RIGHT","LEFT","f","1","false","","","",""
"","html-keyboard-response","174","382001","0.0-288.0","9trhclc7","1440","900","","","","","","","","","","","null","+","Fixation - short","","null","","","","","","","","","","","","","","","","",""
"","html-keyboard-response","175","382593","0.0-289.0","9trhclc7","","","","","","","","","","","","","591","dpa","Diagnostic trial","","f","","2","5","6","false","false","true","both pre & post","RIGHT","LEFT","f","1","false","","","",""
"","html-keyboard-response","176","383346","0.0-292.0","9trhclc7","1440","900","","","","","","","","","","","null","+","Fixation - short","","null","","","","","","","","","","","","","","","","",""
"","canvas-keyboard-response","177","384599","0.0-293.0","9trhclc7","","","","","","","","","","","","","null","Cue","Cue","","null","","2","5","","","false","","","","","","","","","","",""
"","html-keyboard-response","178","385351","0.0-294.0","9trhclc7","1440","900","","","","","","","","","","","null","+","Fixation - short","","null","","","","","","","","","","","","","","","","",""
"","html-keyboard-response","179","386117","0.0-295.0","9trhclc7","","","","","","","","","","","","","765","dpa","Diagnostic trial","","j","","2","6","6","true","false","false","both pre & post","RIGHT","RIGHT","j","1","true","","","",""
"","html-keyboard-response","180","386869","0.0-298.0","9trhclc7","1440","900","","","","","","","","","","","null","+","Fixation - short","","null","","","","","","","","","","","","","","","","",""
"","html-keyboard-response","181","387490","0.0-299.0","9trhclc7","","","","","","","","","","","","","620","dpa","Diagnostic trial","","f","","2","7","6","true","false","false","both pre & post","RIGHT","RIGHT","j","0","true","","","",""
"","call-function","182","387491","0.0-301.0-0.0","9trhclc7","","","","","","","","","","","","","","","","","","","","","","","","","","","","","","","","","",""
"","html-keyboard-response","183","387793","0.0-301.0-1.0","9trhclc7","1440","900","","","","","","","","","","","null","Wrong","Feedback","","null","","","","","","","","","","","","","","","","",""
"","call-function","184","387794","0.0-301.0-2.0","9trhclc7","","","","","","","","","","","","","","","","","","","","","","","","","","","","","","","","","",""
"","html-keyboard-response","185","388546","0.0-302.0","9trhclc7","1440","900","","","","","","","","","","","null","+","Fixation - short","","null","","","","","","","","","","","","","","","","",""
"","html-keyboard-response","186","390124","0.0-303.0","9trhclc7","","","","","","","","","","","","","1577","jlm","Inducer trial","","f","","2","","","","true","","","","","f","1","","false","LEFT","",""
"","html-keyboard-response","187","390876","0.0-306.0","9trhclc7","1440","900","","","","","","","","","","","null","+","Fixation - short","","null","","","","","","","","","","","","","","","","",""
"","html-keyboard-response","188","397211","0.0-307.0","9trhclc7","","","","","","","","","","","","","6334","If upf press LEFT | If zpl press RIGHT","Inducer instructions",""," ","","3","","","","","","","","","","","","","","",""
"","html-keyboard-response","189","397964","0.0-308.0","9trhclc7","1440","900","","","","","","","","","","","null","+","Fixation - short","","null","","","","","","","","","","","","","","","","",""
"","html-keyboard-response","190","398604","0.0-309.0","9trhclc7","","","","","","","","","","","","","639","zpl","Diagnostic trial","","f","","3","0","7","false","false","true","both pre & post","RIGHT","LEFT","f","1","false","","","",""
"","html-keyboard-response","191","399357","0.0-312.0","9trhclc7","1440","900","","","","","","","","","","","null","+","Fixation - short","","null","","","","","","","","","","","","","","","","",""
"","html-keyboard-response","192","400030","0.0-313.0","9trhclc7","","","","","","","","","","","","","671","upf","Diagnostic trial","","j","","3","1","7","false","false","false","both pre & post","LEFT","RIGHT","j","1","false","","","",""
"","html-keyboard-response","193","400782","0.0-316.0","9trhclc7","1440","900","","","","","","","","","","","null","+","Fixation - short","","null","","","","","","","","","","","","","","","","",""
"","html-keyboard-response","194","401576","0.0-317.0","9trhclc7","","","","","","","","","","","","","793","upf","Diagnostic trial","","f","","3","2","7","false","false","true","both pre & post","LEFT","LEFT","f","1","true","","","",""
"","html-keyboard-response","195","402329","0.0-320.0","9trhclc7","1440","900","","","","","","","","","","","null","+","Fixation - short","","null","","","","","","","","","","","","","","","","",""
"","html-keyboard-response","196","403462","0.0-321.0","9trhclc7","","","","","","","","","","","","","1131","upf","Diagnostic trial","","j","","3","3","7","false","false","false","both pre & post","LEFT","RIGHT","j","1","false","","","",""
"","html-keyboard-response","197","404214","0.0-324.0","9trhclc7","1440","900","","","","","","","","","","","null","+","Fixation - short","","null","","","","","","","","","","","","","","","","",""
"","html-keyboard-response","198","404761","0.0-325.0","9trhclc7","","","","","","","","","","","","","546","zpl","Diagnostic trial","","f","","3","4","7","false","false","true","both pre & post","RIGHT","LEFT","f","1","false","","","",""
"","html-keyboard-response","199","405513","0.0-328.0","9trhclc7","1440","900","","","","","","","","","","","null","+","Fixation - short","","null","","","","","","","","","","","","","","","","",""
"","html-keyboard-response","200","406432","0.0-329.0","9trhclc7","","","","","","","","","","","","","917","upf","Diagnostic trial","","f","","3","5","7","false","false","true","both pre & post","LEFT","LEFT","f","1","true","","","",""
"","html-keyboard-response","201","407183","0.0-332.0","9trhclc7","1440","900","","","","","","","","","","","null","+","Fixation - short","","null","","","","","","","","","","","","","","","","",""
"","html-keyboard-response","202","407913","0.0-333.0","9trhclc7","","","","","","","","","","","","","730","zpl","Diagnostic trial","","j","","3","6","7","false","false","false","both pre & post","RIGHT","RIGHT","j","1","true","","","",""
"","html-keyboard-response","203","408666","0.0-336.0","9trhclc7","1440","900","","","","","","","","","","","null","+","Fixation - short","","null","","","","","","","","","","","","","","","","",""
"","canvas-keyboard-response","204","409919","0.0-337.0","9trhclc7","","","","","","","","","","","","","null","Cue","Cue","","null","","3","6","","","false","","","","","","","","","","",""
"","html-keyboard-response","205","410670","0.0-338.0","9trhclc7","1440","900","","","","","","","","","","","null","+","Fixation - short","","null","","","","","","","","","","","","","","","","",""
"","html-keyboard-response","206","411385","0.0-339.0","9trhclc7","","","","","","","","","","","","","713","upf","Diagnostic trial","","f","","3","7","7","true","false","true","both pre & post","LEFT","LEFT","f","1","true","","","",""
"","html-keyboard-response","207","412138","0.0-342.0","9trhclc7","1440","900","","","","","","","","","","","null","+","Fixation - short","","null","","","","","","","","","","","","","","","","",""
"","html-keyboard-response","208","413210","0.0-343.0","9trhclc7","","","","","","","","","","","","","1071","upf","Diagnostic trial","","f","","3","8","7","true","false","true","both pre & post","LEFT","LEFT","f","1","true","","","",""
"","html-keyboard-response","209","413963","0.0-346.0","9trhclc7","1440","900","","","","","","","","","","","null","+","Fixation - short","","null","","","","","","","","","","","","","","","","",""
"","html-keyboard-response","210","414733","0.0-347.0","9trhclc7","","","","","","","","","","","","","769","zpl","Diagnostic trial","","j","","3","9","7","true","false","false","both pre & post","RIGHT","RIGHT","j","1","true","","","",""
"","html-keyboard-response","211","415485","0.0-350.0","9trhclc7","1440","900","","","","","","","","","","","null","+","Fixation - short","","null","","","","","","","","","","","","","","","","",""
"","html-keyboard-response","212","416315","0.0-351.0","9trhclc7","","","","","","","","","","","","","829","upf","Diagnostic trial","","j","","3","10","7","true","false","false","both pre & post","LEFT","RIGHT","j","1","false","","","",""
"","html-keyboard-response","213","417068","0.0-354.0","9trhclc7","1440","900","","","","","","","","","","","null","+","Fixation - short","","null","","","","","","","","","","","","","","","","",""
"","html-keyboard-response","214","417875","0.0-355.0","9trhclc7","","","","","","","","","","","","","805","zpl","Inducer trial","","j","","3","","","","true","","","","","j","1","","false","RIGHT","",""
"","html-keyboard-response","215","418628","0.0-358.0","9trhclc7","1440","900","","","","","","","","","","","null","+","Fixation - short","","null","","","","","","","","","","","","","","","","",""
"","html-keyboard-response","216","421775","0.0-359.0","9trhclc7","","","","","","","","","","","","","3145","If cnl press LEFT | If ttm press RIGHT","Inducer instructions",""," ","","4","","","","","","","","","","","","","","",""
"","html-keyboard-response","217","422528","0.0-360.0","9trhclc7","1440","900","","","","","","","","","","","null","+","Fixation - short","","null","","","","","","","","","","","","","","","","",""
"","html-keyboard-response","218","423197","0.0-361.0","9trhclc7","","","","","","","","","","","","","669","ttm","Diagnostic trial","","f","","4","0","4","false","false","false","both pre & post","RIGHT","RIGHT","j","0","true","","","",""
"","call-function","219","423197","0.0-363.0-0.0","9trhclc7","","","","","","","","","","","","","","","","","","","","","","","","","","","","","","","","","",""
"","html-keyboard-response","220","423499","0.0-363.0-1.0","9trhclc7","1440","900","","","","","","","","","","","null","Wrong","Feedback","","null","","","","","","","","","","","","","","","","",""
"","call-function","221","423500","0.0-363.0-2.0","9trhclc7","","","","","","","","","","","","","","","","","","","","","","","","","","","","","","","","","",""
"","html-keyboard-response","222","424252","0.0-364.0","9trhclc7","1440","900","","","","","","","","","","","null","+","Fixation - short","","null","","","","","","","","","","","","","","","","",""
"","html-keyboard-response","223","424994","0.0-365.0","9trhclc7","","","","","","","","","","","","","740","cnl","Diagnostic trial","","f","","4","1","4","false","false","true","both pre & post","LEFT","LEFT","f","1","true","","","",""
"","html-keyboard-response","224","425746","0.0-368.0","9trhclc7","1440","900","","","","","","","","","","","null","+","Fixation - short","","null","","","","","","","","","","","","","","","","",""
"","html-keyboard-response","225","426480","0.0-369.0","9trhclc7","","","","","","","","","","","","","733","cnl","Diagnostic trial","","j","","4","2","4","false","false","false","both pre & post","LEFT","RIGHT","j","1","false","","","",""
"","html-keyboard-response","226","427233","0.0-372.0","9trhclc7","1440","900","","","","","","","","","","","null","+","Fixation - short","","null","","","","","","","","","","","","","","","","",""
"","html-keyboard-response","227","428149","0.0-373.0","9trhclc7","","","","","","","","","","","","","914","cnl","Diagnostic trial","","f","","4","3","4","false","false","true","both pre & post","LEFT","LEFT","f","1","true","","","",""
"","html-keyboard-response","228","428902","0.0-376.0","9trhclc7","1440","900","","","","","","","","","","","null","+","Fixation - short","","null","","","","","","","","","","","","","","","","",""
"","canvas-keyboard-response","229","430154","0.0-377.0","9trhclc7","","","","","","","","","","","","","null","Cue","Cue","","null","","4","3","","","false","","","","","","","","","","",""
"","html-keyboard-response","230","430907","0.0-378.0","9trhclc7","1440","900","","","","","","","","","","","null","+","Fixation - short","","null","","","","","","","","","","","","","","","","",""
"","html-keyboard-response","231","431698","0.0-379.0","9trhclc7","","","","","","","","","","","","","789","ttm","Diagnostic trial","","f","","4","4","4","true","false","true","both pre & post","RIGHT","LEFT","f","1","false","","","",""
"","html-keyboard-response","232","432450","0.0-382.0","9trhclc7","1440","900","","","","","","","","","","","null","+","Fixation - short","","null","","","","","","","","","","","","","","","","",""
"","html-keyboard-response","233","433405","0.0-383.0","9trhclc7","","","","","","","","","","","","","954","ttm","Diagnostic trial","","j","","4","5","4","true","false","false","both pre & post","RIGHT","RIGHT","j","1","true","","","",""
"","html-keyboard-response","234","434157","0.0-386.0","9trhclc7","1440","900","","","","","","","","","","","null","+","Fixation - short","","null","","","","","","","","","","","","","","","","",""
"","html-keyboard-response","235","434887","0.0-387.0","9trhclc7","","","","","","","","","","","","","729","ttm","Diagnostic trial","","f","","4","6","4","true","false","true","both pre & post","RIGHT","LEFT","f","1","false","","","",""
"","html-keyboard-response","236","435639","0.0-390.0","9trhclc7","1440","900","","","","","","","","","","","null","+","Fixation - short","","null","","","","","","","","","","","","","","","","",""
"","html-keyboard-response","237","436484","0.0-391.0","9trhclc7","","","","","","","","","","","","","844","cnl","Inducer trial","","f","","4","","","","true","","","","","f","1","","false","LEFT","",""
"","html-keyboard-response","238","437237","0.0-394.0","9trhclc7","1440","900","","","","","","","","","","","null","+","Fixation - short","","null","","","","","","","","","","","","","","","","",""
"","html-keyboard-response","239","439340","0.0-395.0","9trhclc7","","","","","","","","","","","","","2102","If dnc press LEFT | If vpu press RIGHT","Inducer instructions",""," ","","5","","","","","","","","","","","","","","",""
"","html-keyboard-response","240","440093","0.0-396.0","9trhclc7","1440","900","","","","","","","","","","","null","+","Fixation - short","","null","","","","","","","","","","","","","","","","",""
"","html-keyboard-response","241","440687","0.0-397.0","9trhclc7","","","","","","","","","","","","","593","vpu","Diagnostic trial","","f","","5","0","11","false","false","true","both pre & post","RIGHT","LEFT","f","1","false","","","",""
"","html-keyboard-response","242","441440","0.0-400.0","9trhclc7","1440","900","","","","","","","","","","","null","+","Fixation - short","","null","","","","","","","","","","","","","","","","",""
"","html-keyboard-response","243","442180","0.0-401.0","9trhclc7","","","","","","","","","","","","","739","dnc","Diagnostic trial","","f","","5","1","11","false","false","true","both pre & post","LEFT","LEFT","f","1","true","","","",""
"","html-keyboard-response","244","442933","0.0-404.0","9trhclc7","1440","900","","","","","","","","","","","null","+","Fixation - short","","null","","","","","","","","","","","","","","","","",""
"","html-keyboard-response","245","443612","0.0-405.0","9trhclc7","","","","","","","","","","","","","678","dnc","Diagnostic trial","","j","","5","2","11","false","false","false","both pre & post","LEFT","RIGHT","j","1","false","","","",""
"","html-keyboard-response","246","444364","0.0-408.0","9trhclc7","1440","900","","","","","","","","","","","null","+","Fixation - short","","null","","","","","","","","","","","","","","","","",""
"","html-keyboard-response","247","444967","0.0-409.0","9trhclc7","","","","","","","","","","","","","601","dnc","Diagnostic trial","","f","","5","3","11","false","false","true","both pre & post","LEFT","LEFT","f","1","true","","","",""
"","html-keyboard-response","248","445718","0.0-412.0","9trhclc7","1440","900","","","","","","","","","","","null","+","Fixation - short","","null","","","","","","","","","","","","","","","","",""
"","html-keyboard-response","249","446411","0.0-413.0","9trhclc7","","","","","","","","","","","","","691","dnc","Diagnostic trial","","j","","5","4","11","false","false","false","both pre & post","LEFT","RIGHT","j","1","false","","","",""
"","html-keyboard-response","250","447164","0.0-416.0","9trhclc7","1440","900","","","","","","","","","","","null","+","Fixation - short","","null","","","","","","","","","","","","","","","","",""
"","html-keyboard-response","251","447854","0.0-417.0","9trhclc7","","","","","","","","","","","","","689","vpu","Diagnostic trial","","f","","5","5","11","false","false","true","both pre & post","RIGHT","LEFT","f","1","false","","","",""
"","html-keyboard-response","252","448606","0.0-420.0","9trhclc7","1440","900","","","","","","","","","","","null","+","Fixation - short","","null","","","","","","","","","","","","","","","","",""
"","html-keyboard-response","253","449337","0.0-421.0","9trhclc7","","","","","","","","","","","","","730","dnc","Diagnostic trial","","j","","5","6","11","false","false","false","both pre & post","LEFT","RIGHT","j","1","false","","","",""
"","html-keyboard-response","254","450089","0.0-424.0","9trhclc7","1440","900","","","","","","","","","","","null","+","Fixation - short","","null","","","","","","","","","","","","","","","","",""
"","html-keyboard-response","255","450693","0.0-425.0","9trhclc7","","","","","","","","","","","","","603","vpu","Diagnostic trial","","f","","5","7","11","false","false","false","both pre & post","RIGHT","RIGHT","j","0","true","","","",""
"","call-function","256","450694","0.0-427.0-0.0","9trhclc7","","","","","","","","","","","","","","","","","","","","","","","","","","","","","","","","","",""
"","html-keyboard-response","257","450996","0.0-427.0-1.0","9trhclc7","1440","900","","","","","","","","","","","null","Wrong","Feedback","","null","","","","","","","","","","","","","","","","",""
"","call-function","258","450997","0.0-427.0-2.0","9trhclc7","","","","","","","","","","","","","","","","","","","","","","","","","","","","","","","","","",""
"","html-keyboard-response","259","451749","0.0-428.0","9trhclc7","1440","900","","","","","","","","","","","null","+","Fixation - short","","null","","","","","","","","","","","","","","","","",""
"","html-keyboard-response","260","452398","0.0-429.0","9trhclc7","","","","","","","","","","","","","648","vpu","Diagnostic trial","","j","","5","8","11","false","false","false","both pre & post","RIGHT","RIGHT","j","1","true","","","",""
"","html-keyboard-response","261","453150","0.0-432.0","9trhclc7","1440","900","","","","","","","","","","","null","+","Fixation - short","","null","","","","","","","","","","","","","","","","",""
"","html-keyboard-response","262","453887","0.0-433.0","9trhclc7","","","","","","","","","","","","","736","vpu","Diagnostic trial","","j","","5","9","11","false","false","false","both pre & post","RIGHT","RIGHT","j","1","true","","","",""
"","html-keyboard-response","263","454639","0.0-436.0","9trhclc7","1440","900","","","","","","","","","","","null","+","Fixation - short","","null","","","","","","","","","","","","","","","","",""
"","html-keyboard-response","264","455180","0.0-437.0","9trhclc7","","","","","","","","","","","","","540","dnc","Diagnostic trial","","f","","5","10","11","false","false","true","both pre & post","LEFT","LEFT","f","1","true","","","",""
"","html-keyboard-response","265","455933","0.0-440.0","9trhclc7","1440","900","","","","","","","","","","","null","+","Fixation - short","","null","","","","","","","","","","","","","","","","",""
"","canvas-keyboard-response","266","457186","0.0-441.0","9trhclc7","","","","","","","","","","","","","null","Cue","Cue","","null","","5","10","","","false","","","","","","","","","","",""
"","html-keyboard-response","267","457938","0.0-442.0","9trhclc7","1440","900","","","","","","","","","","","null","+","Fixation - short","","null","","","","","","","","","","","","","","","","",""
"","html-keyboard-response","268","459089","0.0-443.0","9trhclc7","","","","","","","","","","","","","1150","vpu","Diagnostic trial","","f","","5","11","11","true","false","true","both pre & post","RIGHT","LEFT","f","1","false","","","",""
"","html-keyboard-response","269","459842","0.0-446.0","9trhclc7","1440","900","","","","","","","","","","","null","+","Fixation - short","","null","","","","","","","","","","","","","","","","",""
"","html-keyboard-response","270","460498","0.0-447.0","9trhclc7","","","","","","","","","","","","","655","vpu","Diagnostic trial","","j","","5","12","11","true","false","false","both pre & post","RIGHT","RIGHT","j","1","true","","","",""
"","html-keyboard-response","271","461251","0.0-450.0","9trhclc7","1440","900","","","","","","","","","","","null","+","Fixation - short","","null","","","","","","","","","","","","","","","","",""
"","html-keyboard-response","272","461853","0.0-451.0","9trhclc7","","","","","","","","","","","","","601","dnc","Diagnostic trial","","f","","5","13","11","true","false","false","both pre & post","LEFT","RIGHT","j","0","false","","","",""
"","call-function","273","461854","0.0-453.0-0.0","9trhclc7","","","","","","","","","","","","","","","","","","","","","","","","","","","","","","","","","",""
"","html-keyboard-response","274","462156","0.0-453.0-1.0","9trhclc7","1440","900","","","","","","","","","","","null","Wrong","Feedback","","null","","","","","","","","","","","","","","","","",""
"","call-function","275","462157","0.0-453.0-2.0","9trhclc7","","","","","","","","","","","","","","","","","","","","","","","","","","","","","","","","","",""
"","html-keyboard-response","276","462910","0.0-454.0","9trhclc7","1440","900","","","","","","","","","","","null","+","Fixation - short","","null","","","","","","","","","","","","","","","","",""
"","html-keyboard-response","277","463752","0.0-455.0","9trhclc7","","","","","","","","","","","","","840","vpu","Diagnostic trial","","j","","5","14","11","true","false","false","both pre & post","RIGHT","RIGHT","j","1","true","","","",""
"","html-keyboard-response","278","464504","0.0-458.0","9trhclc7","1440","900","","","","","","","","","","","null","+","Fixation - short","","null","","","","","","","","","","","","","","","","",""
"","html-keyboard-response","279","465294","0.0-459.0","9trhclc7","","","","","","","","","","","","","788","dnc","Inducer trial","","j","","5","","","","true","","","","","f","0","","false","LEFT","",""
"","call-function","280","465295","0.0-461.0-0.0","9trhclc7","","","","","","","","","","","","","","","","","","","","","","","","","","","","","","","","","",""
"","html-keyboard-response","281","465597","0.0-461.0-1.0","9trhclc7","1440","900","","","","","","","","","","","null","Wrong","Feedback","","null","","","","","","","","","","","","","","","","",""
"","call-function","282","465598","0.0-461.0-2.0","9trhclc7","","","","","","","","","","","","","","","","","","","","","","","","","","","","","","","","","",""
"","html-keyboard-response","283","466350","0.0-462.0","9trhclc7","1440","900","","","","","","","","","","","null","+","Fixation - short","","null","","","","","","","","","","","","","","","","",""
"","html-keyboard-response","284","468496","0.0-463.0","9trhclc7","","","","","","","","","","","","","2145","If cui press LEFT | If vnn press RIGHT","Inducer instructions",""," ","","6","","","","","","","","","","","","","","",""
"","html-keyboard-response","285","469249","0.0-464.0","9trhclc7","1440","900","","","","","","","","","","","null","+","Fixation - short","","null","","","","","","","","","","","","","","","","",""
"","html-keyboard-response","286","469954","0.0-465.0","9trhclc7","","","","","","","","","","","","","705","cui","Diagnostic trial","","f","","6","0","9","false","false","true","both pre & post","LEFT","LEFT","f","1","true","","","",""
"","html-keyboard-response","287","470707","0.0-468.0","9trhclc7","1440","900","","","","","","","","","","","null","+","Fixation - short","","null","","","","","","","","","","","","","","","","",""
"","html-keyboard-response","288","471531","0.0-469.0","9trhclc7","","","","","","","","","","","","","823","vnn","Diagnostic trial","","j","","6","1","9","false","false","false","both pre & post","RIGHT","RIGHT","j","1","true","","","",""
"","html-keyboard-response","289","472283","0.0-472.0","9trhclc7","1440","900","","","","","","","","","","","null","+","Fixation - short","","null","","","","","","","","","","","","","","","","",""
"","html-keyboard-response","290","472856","0.0-473.0","9trhclc7","","","","","","","","","","","","","572","vnn","Diagnostic trial","","j","","6","2","9","false","false","false","both pre & post","RIGHT","RIGHT","j","1","true","","","",""
"","html-keyboard-response","291","473609","0.0-476.0","9trhclc7","1440","900","","","","","","","","","","","null","+","Fixation - short","","null","","","","","","","","","","","","","","","","",""
"","html-keyboard-response","292","474148","0.0-477.0","9trhclc7","","","","","","","","","","","","","539","vnn","Diagnostic trial","","j","","6","3","9","false","false","false","both pre & post","RIGHT","RIGHT","j","1","true","","","",""
"","html-keyboard-response","293","474901","0.0-480.0","9trhclc7","1440","900","","","","","","","","","","","null","+","Fixation - short","","null","","","","","","","","","","","","","","","","",""
"","html-keyboard-response","294","475558","0.0-481.0","9trhclc7","","","","","","","","","","","","","656","vnn","Diagnostic trial","","j","","6","4","9","false","false","false","both pre & post","RIGHT","RIGHT","j","1","true","","","",""
"","html-keyboard-response","295","476311","0.0-484.0","9trhclc7","1440","900","","","","","","","","","","","null","+","Fixation - short","","null","","","","","","","","","","","","","","","","",""
"","html-keyboard-response","296","476983","0.0-485.0","9trhclc7","","","","","","","","","","","","","671","vnn","Diagnostic trial","","f","","6","5","9","false","false","true","both pre & post","RIGHT","LEFT","f","1","false","","","",""
"","html-keyboard-response","297","477735","0.0-488.0","9trhclc7","1440","900","","","","","","","","","","","null","+","Fixation - short","","null","","","","","","","","","","","","","","","","",""
"","html-keyboard-response","298","478786","0.0-489.0","9trhclc7","","","","","","","","","","","","","1050","cui","Diagnostic trial","","j","","6","6","9","false","false","false","both pre & post","LEFT","RIGHT","j","1","false","","","",""
"","html-keyboard-response","299","479538","0.0-492.0","9trhclc7","1440","900","","","","","","","","","","","null","+","Fixation - short","","null","","","","","","","","","","","","","","","","",""
"","html-keyboard-response","300","480231","0.0-493.0","9trhclc7","","","","","","","","","","","","","692","cui","Diagnostic trial","","f","","6","7","9","false","false","true","both pre & post","LEFT","LEFT","f","1","true","","","",""
"","html-keyboard-response","301","480982","0.0-496.0","9trhclc7","1440","900","","","","","","","","","","","null","+","Fixation - short","","null","","","","","","","","","","","","","","","","",""
"","html-keyboard-response","302","481673","0.0-497.0","9trhclc7","","","","","","","","","","","","","690","cui","Diagnostic trial","","f","","6","8","9","false","false","true","both pre & post","LEFT","LEFT","f","1","true","","","",""
"","html-keyboard-response","303","482425","0.0-500.0","9trhclc7","1440","900","","","","","","","","","","","null","+","Fixation - short","","null","","","","","","","","","","","","","","","","",""
"","canvas-keyboard-response","304","483678","0.0-501.0","9trhclc7","","","","","","","","","","","","","null","Cue","Cue","","null","","6","8","","","false","","","","","","","","","","",""
"","html-keyboard-response","305","484430","0.0-502.0","9trhclc7","1440","900","","","","","","","","","","","null","+","Fixation - short","","null","","","","","","","","","","","","","","","","",""
"","html-keyboard-response","306","485150","0.0-503.0","9trhclc7","","","","","","","","","","","","","719","vnn","Diagnostic trial","","f","","6","9","9","true","false","true","both pre & post","RIGHT","LEFT","f","1","false","","","",""
"","html-keyboard-response","307","485903","0.0-506.0","9trhclc7","1440","900","","","","","","","","","","","null","+","Fixation - short","","null","","","","","","","","","","","","","","","","",""
"","html-keyboard-response","308","486750","0.0-507.0","9trhclc7","","","","","","","","","","","","","847","cui","Diagnostic trial","","j","","6","10","9","true","false","false","both pre & post","LEFT","RIGHT","j","1","false","","","",""
"","html-keyboard-response","309","487502","0.0-510.0","9trhclc7","1440","900","","","","","","","","","","","null","+","Fixation - short","","null","","","","","","","","","","","","","","","","",""
"","html-keyboard-response","310","488561","0.0-511.0","9trhclc7","","","","","","","","","","","","","1057","vnn","Diagnostic trial","","j","","6","11","9","true","false","false","both pre & post","RIGHT","RIGHT","j","1","true","","","",""
"","html-keyboard-response","311","489313","0.0-514.0","9trhclc7","1440","900","","","","","","","","","","","null","+","Fixation - short","","null","","","","","","","","","","","","","","","","",""
"","html-keyboard-response","312","489854","0.0-515.0","9trhclc7","","","","","","","","","","","","","539","cui","Diagnostic trial","","f","","6","12","9","true","false","true","both pre & post","LEFT","LEFT","f","1","true","","","",""
"","html-keyboard-response","313","490606","0.0-518.0","9trhclc7","1440","900","","","","","","","","","","","null","+","Fixation - short","","null","","","","","","","","","","","","","","","","",""
"","html-keyboard-response","314","491347","0.0-519.0","9trhclc7","","","","","","","","","","","","","739","cui","Inducer trial","","f","","6","","","","true","","","","","f","1","","false","LEFT","",""
"","html-keyboard-response","315","492099","0.0-522.0","9trhclc7","1440","900","","","","","","","","","","","null","+","Fixation - short","","null","","","","","","","","","","","","","","","","",""
"","html-keyboard-response","316","493786","0.0-523.0","9trhclc7","","","","","","","","","","","","","1685","If rif press LEFT | If pmf press RIGHT","Inducer instructions",""," ","","7","","","","","","","","","","","","","","",""
"","html-keyboard-response","317","494538","0.0-524.0","9trhclc7","1440","900","","","","","","","","","","","null","+","Fixation - short","","null","","","","","","","","","","","","","","","","",""
"","html-keyboard-response","318","495284","0.0-525.0","9trhclc7","","","","","","","","","","","","","744","pmf","Diagnostic trial","","f","","7","0","6","false","false","true","both pre & post","RIGHT","LEFT","f","1","false","","","",""
"","html-keyboard-response","319","496037","0.0-528.0","9trhclc7","1440","900","","","","","","","","","","","null","+","Fixation - short","","null","","","","","","","","","","","","","","","","",""
"","html-keyboard-response","320","496673","0.0-529.0","9trhclc7","","","","","","","","","","","","","635","rif","Diagnostic trial","","j","","7","1","6","false","false","false","both pre & post","LEFT","RIGHT","j","1","false","","","",""
"","html-keyboard-response","321","497425","0.0-532.0","9trhclc7","1440","900","","","","","","","","","","","null","+","Fixation - short","","null","","","","","","","","","","","","","","","","",""
"","html-keyboard-response","322","498066","0.0-533.0","9trhclc7","","","","","","","","","","","","","639","rif","Diagnostic trial","","f","","7","2","6","false","false","true","both pre & post","LEFT","LEFT","f","1","true","","","",""
"","html-keyboard-response","323","498819","0.0-536.0","9trhclc7","1440","900","","","","","","","","","","","null","+","Fixation - short","","null","","","","","","","","","","","","","","","","",""
"","html-keyboard-response","324","499388","0.0-537.0","9trhclc7","","","","","","","","","","","","","567","rif","Diagnostic trial","","f","","7","3","6","false","false","true","both pre & post","LEFT","LEFT","f","1","true","","","",""
"","html-keyboard-response","325","500140","0.0-540.0","9trhclc7","1440","900","","","","","","","","","","","null","+","Fixation - short","","null","","","","","","","","","","","","","","","","",""
"","html-keyboard-response","326","500848","0.0-541.0","9trhclc7","","","","","","","","","","","","","708","rif","Diagnostic trial","","j","","7","4","6","false","false","false","both pre & post","LEFT","RIGHT","j","1","false","","","",""
"","html-keyboard-response","327","501601","0.0-544.0","9trhclc7","1440","900","","","","","","","","","","","null","+","Fixation - short","","null","","","","","","","","","","","","","","","","",""
"","html-keyboard-response","328","502203","0.0-545.0","9trhclc7","","","","","","","","","","","","","601","pmf","Diagnostic trial","","f","","7","5","6","false","false","true","both pre & post","RIGHT","LEFT","f","1","false","","","",""
"","html-keyboard-response","329","502956","0.0-548.0","9trhclc7","1440","900","","","","","","","","","","","null","+","Fixation - short","","null","","","","","","","","","","","","","","","","",""
"","canvas-keyboard-response","330","504208","0.0-549.0","9trhclc7","","","","","","","","","","","","","null","Cue","Cue","","null","","7","5","","","false","","","","","","","","","","",""
"","html-keyboard-response","331","504960","0.0-550.0","9trhclc7","1440","900","","","","","","","","","","","null","+","Fixation - short","","null","","","","","","","","","","","","","","","","",""
"","html-keyboard-response","332","505498","0.0-551.0","9trhclc7","","","","","","","","","","","","","537","pmf","Diagnostic trial","","f","","7","6","6","true","false","true","both pre & post","RIGHT","LEFT","f","1","false","","","",""
"","html-keyboard-response","333","506250","0.0-554.0","9trhclc7","1440","900","","","","","","","","","","","null","+","Fixation - short","","null","","","","","","","","","","","","","","","","",""
"","html-keyboard-response","334","506898","0.0-555.0","9trhclc7","","","","","","","","","","","","","646","rif","Diagnostic trial","","j","","7","7","6","true","false","false","both pre & post","LEFT","RIGHT","j","1","false","","","",""
"","html-keyboard-response","335","507651","0.0-558.0","9trhclc7","1440","900","","","","","","","","","","","null","+","Fixation - short","","null","","","","","","","","","","","","","","","","",""
"","html-keyboard-response","336","508230","0.0-559.0","9trhclc7","","","","","","","","","","","","","578","rif","Diagnostic trial","","f","","7","8","6","true","false","true","both pre & post","LEFT","LEFT","f","1","true","","","",""
"","html-keyboard-response","337","508983","0.0-562.0","9trhclc7","1440","900","","","","","","","","","","","null","+","Fixation - short","","null","","","","","","","","","","","","","","","","",""
"","html-keyboard-response","338","510002","0.0-563.0","9trhclc7","","","","","","","","","","","","","1017","rif","Inducer trial","","f","","7","","","","true","","","","","f","1","","false","LEFT","",""
"","html-keyboard-response","339","510754","0.0-566.0","9trhclc7","1440","900","","","","","","","","","","","null","+","Fixation - short","","null","","","","","","","","","","","","","","","","",""
"","html-keyboard-response","340","512613","0.0-567.0","9trhclc7","","","","","","","","","","","","","1857","If sjn press LEFT | If hrc press RIGHT","Inducer instructions",""," ","","8","","","","","","","","","","","","","","",""
"","html-keyboard-response","341","513366","0.0-568.0","9trhclc7","1440","900","","","","","","","","","","","null","+","Fixation - short","","null","","","","","","","","","","","","","","","","",""
"","html-keyboard-response","342","513938","0.0-569.0","9trhclc7","","","","","","","","","","","","","571","hrc","Diagnostic trial","","f","","8","0","11","false","false","true","both pre & post","RIGHT","LEFT","f","1","false","","","",""
"","html-keyboard-response","343","514689","0.0-572.0","9trhclc7","1440","900","","","","","","","","","","","null","+","Fixation - short","","null","","","","","","","","","","","","","","","","",""
"","html-keyboard-response","344","515289","0.0-573.0","9trhclc7","","","","","","","","","","","","","599","hrc","Diagnostic trial","","j","","8","1","11","false","false","false","both pre & post","RIGHT","RIGHT","j","1","true","","","",""
"","html-keyboard-response","345","516042","0.0-576.0","9trhclc7","1440","900","","","","","","","","","","","null","+","Fixation - short","","null","","","","","","","","","","","","","","","","",""
"","html-keyboard-response","346","516615","0.0-577.0","9trhclc7","","","","","","","","","","","","","571","sjn","Diagnostic trial","","f","","8","2","11","false","false","true","both pre & post","LEFT","LEFT","f","1","true","","","",""
"","html-keyboard-response","347","517367","0.0-580.0","9trhclc7","1440","900","","","","","","","","","","","null","+","Fixation - short","","null","","","","","","","","","","","","","","","","",""
"","html-keyboard-response","348","517972","0.0-581.0","9trhclc7","","","","","","","","","","","","","604","hrc","Diagnostic trial","","f","","8","3","11","false","false","true","both pre & post","RIGHT","LEFT","f","1","false","","","",""
"","html-keyboard-response","349","518723","0.0-584.0","9trhclc7","1440","900","","","","","","","","","","","null","+","Fixation - short","","null","","","","","","","","","","","","","","","","",""
"","html-keyboard-response","350","519361","0.0-585.0","9trhclc7","","","","","","","","","","","","","636","hrc","Diagnostic trial","","j","","8","4","11","false","false","false","both pre & post","RIGHT","RIGHT","j","1","true","","","",""
"","html-keyboard-response","351","520113","0.0-588.0","9trhclc7","1440","900","","","","","","","","","","","null","+","Fixation - short","","null","","","","","","","","","","","","","","","","",""
"","html-keyboard-response","352","520870","0.0-589.0","9trhclc7","","","","","","","","","","","","","756","hrc","Diagnostic trial","","j","","8","5","11","false","false","false","both pre & post","RIGHT","RIGHT","j","1","true","","","",""
"","html-keyboard-response","353","521622","0.0-592.0","9trhclc7","1440","900","","","","","","","","","","","null","+","Fixation - short","","null","","","","","","","","","","","","","","","","",""
"","html-keyboard-response","354","522258","0.0-593.0","9trhclc7","","","","","","","","","","","","","635","hrc","Diagnostic trial","","f","","8","6","11","false","false","true","both pre & post","RIGHT","LEFT","f","1","false","","","",""
"","html-keyboard-response","355","523011","0.0-596.0","9trhclc7","1440","900","","","","","","","","","","","null","+","Fixation - short","","null","","","","","","","","","","","","","","","","",""
"","html-keyboard-response","356","523637","0.0-597.0","9trhclc7","","","","","","","","","","","","","624","hrc","Diagnostic trial","","j","","8","7","11","false","false","false","both pre & post","RIGHT","RIGHT","j","1","true","","","",""
"","html-keyboard-response","357","524389","0.0-600.0","9trhclc7","1440","900","","","","","","","","","","","null","+","Fixation - short","","null","","","","","","","","","","","","","","","","",""
"","html-keyboard-response","358","524966","0.0-601.0","9trhclc7","","","","","","","","","","","","","576","hrc","Diagnostic trial","","f","","8","8","11","false","false","true","both pre & post","RIGHT","LEFT","f","1","false","","","",""
"","html-keyboard-response","359","525719","0.0-604.0","9trhclc7","1440","900","","","","","","","","","","","null","+","Fixation - short","","null","","","","","","","","","","","","","","","","",""
"","html-keyboard-response","360","526296","0.0-605.0","9trhclc7","","","","","","","","","","","","","576","hrc","Diagnostic trial","","j","","8","9","11","false","false","false","both pre & post","RIGHT","RIGHT","j","1","true","","","",""
"","html-keyboard-response","361","527048","0.0-608.0","9trhclc7","1440","900","","","","","","","","","","","null","+","Fixation - short","","null","","","","","","","","","","","","","","","","",""
"","html-keyboard-response","362","527579","0.0-609.0","9trhclc7","","","","","","","","","","","","","529","hrc","Diagnostic trial","","j","","8","10","11","false","false","false","both pre & post","RIGHT","RIGHT","j","1","true","","","",""
"","html-keyboard-response","363","528331","0.0-612.0","9trhclc7","1440","900","","","","","","","","","","","null","+","Fixation - short","","null","","","","","","","","","","","","","","","","",""
"","canvas-keyboard-response","364","529584","0.0-613.0","9trhclc7","","","","","","","","","","","","","null","Cue","Cue","","null","","8","10","","","false","","","","","","","","","","",""
"","html-keyboard-response","365","530336","0.0-614.0","9trhclc7","1440","900","","","","","","","","","","","null","+","Fixation - short","","null","","","","","","","","","","","","","","","","",""
"","html-keyboard-response","366","530911","0.0-615.0","9trhclc7","","","","","","","","","","","","","573","sjn","Diagnostic trial","","f","","8","11","11","true","false","true","both pre & post","LEFT","LEFT","f","1","true","","","",""
"","html-keyboard-response","367","531663","0.0-618.0","9trhclc7","1440","900","","","","","","","","","","","null","+","Fixation - short","","null","","","","","","","","","","","","","","","","",""
"","html-keyboard-response","368","532367","0.0-619.0","9trhclc7","","","","","","","","","","","","","702","hrc","Diagnostic trial","","j","","8","12","11","true","false","false","both pre & post","RIGHT","RIGHT","j","1","true","","","",""
"","html-keyboard-response","369","533118","0.0-622.0","9trhclc7","1440","900","","","","","","","","","","","null","+","Fixation - short","","null","","","","","","","","","","","","","","","","",""
"","html-keyboard-response","370","533633","0.0-623.0","9trhclc7","","","","","","","","","","","","","513","sjn","Diagnostic trial","","f","","8","13","11","true","false","true","both pre & post","LEFT","LEFT","f","1","true","","","",""
"","html-keyboard-response","371","534385","0.0-626.0","9trhclc7","1440","900","","","","","","","","","","","null","+","Fixation - short","","null","","","","","","","","","","","","","","","","",""
"","html-keyboard-response","372","534944","0.0-627.0","9trhclc7","","","","","","","","","","","","","557","hrc","Inducer trial","","j","","8","","","","true","","","","","j","1","","false","RIGHT","",""
"","html-keyboard-response","373","535696","0.0-630.0","9trhclc7","1440","900","","","","","","","","","","","null","+","Fixation - short","","null","","","","","","","","","","","","","","","","",""
"","html-keyboard-response","374","537603","0.0-631.0","9trhclc7","","","","","","","","","","","","","1904","If lpn press LEFT | If amb press RIGHT","Inducer instructions",""," ","","9","","","","","","","","","","","","","","",""
"","html-keyboard-response","375","538355","0.0-632.0","9trhclc7","1440","900","","","","","","","","","","","null","+","Fixation - short","","null","","","","","","","","","","","","","","","","",""
"","html-keyboard-response","376","538887","0.0-633.0","9trhclc7","","","","","","","","","","","","","530","amb","Diagnostic trial","","f","","9","0","7","false","false","true","both pre & post","RIGHT","LEFT","f","1","false","","","",""
"","html-keyboard-response","377","539639","0.0-636.0","9trhclc7","1440","900","","","","","","","","","","","null","+","Fixation - short","","null","","","","","","","","","","","","","","","","",""
"","html-keyboard-response","378","540271","0.0-637.0","9trhclc7","","","","","","","","","","","","","630","lpn","Diagnostic trial","","j","","9","1","7","false","false","false","both pre & post","LEFT","RIGHT","j","1","false","","","",""
"","html-keyboard-response","379","541023","0.0-640.0","9trhclc7","1440","900","","","","","","","","","","","null","+","Fixation - short","","null","","","","","","","","","","","","","","","","",""
"","html-keyboard-response","380","541792","0.0-641.0","9trhclc7","","","","","","","","","","","","","768","lpn","Diagnostic trial","","j","","9","2","7","false","false","false","both pre & post","LEFT","RIGHT","j","1","false","","","",""
"","html-keyboard-response","381","542545","0.0-644.0","9trhclc7","1440","900","","","","","","","","","","","null","+","Fixation - short","","null","","","","","","","","","","","","","","","","",""
"","html-keyboard-response","382","543377","0.0-645.0","9trhclc7","","","","","","","","","","","","","832","lpn","Diagnostic trial","","j","","9","3","7","false","false","false","both pre & post","LEFT","RIGHT","j","1","false","","","",""
"","html-keyboard-response","383","544130","0.0-648.0","9trhclc7","1440","900","","","","","","","","","","","null","+","Fixation - short","","null","","","","","","","","","","","","","","","","",""
"","html-keyboard-response","384","544710","0.0-649.0","9trhclc7","","","","","","","","","","","","","579","lpn","Diagnostic trial","","f","","9","4","7","false","false","true","both pre & post","LEFT","LEFT","f","1","true","","","",""
"","html-keyboard-response","385","545463","0.0-652.0","9trhclc7","1440","900","","","","","","","","","","","null","+","Fixation - short","","null","","","","","","","","","","","","","","","","",""
"","html-keyboard-response","386","546006","0.0-653.0","9trhclc7","","","","","","","","","","","","","542","lpn","Diagnostic trial","","f","","9","5","7","false","false","true","both pre & post","LEFT","LEFT","f","1","true","","","",""
"","html-keyboard-response","387","546759","0.0-656.0","9trhclc7","1440","900","","","","","","","","","","","null","+","Fixation - short","","null","","","","","","","","","","","","","","","","",""
"","html-keyboard-response","388","547371","0.0-657.0","9trhclc7","","","","","","","","","","","","","611","amb","Diagnostic trial","","j","","9","6","7","false","false","false","both pre & post","RIGHT","RIGHT","j","1","true","","","",""
"","html-keyboard-response","389","548122","0.0-660.0","9trhclc7","1440","900","","","","","","","","","","","null","+","Fixation - short","","null","","","","","","","","","","","","","","","","",""
"","canvas-keyboard-response","390","549375","0.0-661.0","9trhclc7","","","","","","","","","","","","","null","Cue","Cue","","null","","9","6","","","false","","","","","","","","","","",""
"","html-keyboard-response","391","550127","0.0-662.0","9trhclc7","1440","900","","","","","","","","","","","null","+","Fixation - short","","null","","","","","","","","","","","","","","","","",""
"","html-keyboard-response","392","550920","0.0-663.0","9trhclc7","","","","","","","","","","","","","791","amb","Diagnostic trial","","j","","9","7","7","true","false","false","both pre & post","RIGHT","RIGHT","j","1","true","","","",""
"","html-keyboard-response","393","551672","0.0-666.0","9trhclc7","1440","900","","","","","","","","","","","null","+","Fixation - short","","null","","","","","","","","","","","","","","","","",""
"","html-keyboard-response","394","552224","0.0-667.0","9trhclc7","","","","","","","","","","","","","551","lpn","Diagnostic trial","","f","","9","8","7","true","false","true","both pre & post","LEFT","LEFT","f","1","true","","","",""
"","html-keyboard-response","395","552976","0.0-670.0","9trhclc7","1440","900","","","","","","","","","","","null","+","Fixation - short","","null","","","","","","","","","","","","","","","","",""
"","html-keyboard-response","396","553578","0.0-671.0","9trhclc7","","","","","","","","","","","","","601","amb","Diagnostic trial","","f","","9","9","7","true","false","true","both pre & post","RIGHT","LEFT","f","1","false","","","",""
"","html-keyboard-response","397","554331","0.0-674.0","9trhclc7","1440","900","","","","","","","","","","","null","+","Fixation - short","","null","","","","","","","","","","","","","","","","",""
"","html-keyboard-response","398","554877","0.0-675.0","9trhclc7","","","","","","","","","","","","","545","amb","Diagnostic trial","","f","","9","10","7","true","false","true","both pre & post","RIGHT","LEFT","f","1","false","","","",""
"","html-keyboard-response","399","555629","0.0-678.0","9trhclc7","1440","900","","","","","","","","","","","null","+","Fixation - short","","null","","","","","","","","","","","","","","","","",""
"","html-keyboard-response","400","556374","0.0-679.0","9trhclc7","","","","","","","","","","","","","743","lpn","Inducer trial","","f","","9","","","","true","","","","","f","1","","false","LEFT","",""
"","html-keyboard-response","401","557126","0.0-682.0","9trhclc7","1440","900","","","","","","","","","","","null","+","Fixation - short","","null","","","","","","","","","","","","","","","","",""
"","html-keyboard-response","402","558635","0.0-683.0","9trhclc7","","","","","","","","","","","","","1507","If iei press LEFT | If dul press RIGHT","Inducer instructions",""," ","","10","","","","","","","","","","","","","","",""
"","html-keyboard-response","403","559387","0.0-684.0","9trhclc7","1440","900","","","","","","","","","","","null","+","Fixation - short","","null","","","","","","","","","","","","","","","","",""
"","html-keyboard-response","404","560060","0.0-685.0","9trhclc7","","","","","","","","","","","","","671","iei","Diagnostic trial","","f","","10","0","8","false","false","true","both pre & post","LEFT","LEFT","f","1","true","","","",""
"","html-keyboard-response","405","560811","0.0-688.0","9trhclc7","1440","900","","","","","","","","","","","null","+","Fixation - short","","null","","","","","","","","","","","","","","","","",""
"","html-keyboard-response","406","561367","0.0-689.0","9trhclc7","","","","","","","","","","","","","555","dul","Diagnostic trial","","f","","10","1","8","false","false","true","both pre & post","RIGHT","LEFT","f","1","false","","","",""
"","html-keyboard-response","407","562119","0.0-692.0","9trhclc7","1440","900","","","","","","","","","","","null","+","Fixation - short","","null","","","","","","","","","","","","","","","","",""
"","html-keyboard-response","408","562646","0.0-693.0","9trhclc7","","","","","","","","","","","","","526","iei","Diagnostic trial","","f","","10","2","8","false","false","true","both pre & post","LEFT","LEFT","f","1","true","","","",""
"","html-keyboard-response","409","563399","0.0-696.0","9trhclc7","1440","900","","","","","","","","","","","null","+","Fixation - short","","null","","","","","","","","","","","","","","","","",""
"","html-keyboard-response","410","563874","0.0-697.0","9trhclc7","","","","","","","","","","","","","475","iei","Diagnostic trial","","f","","10","3","8","false","false","true","both pre & post","LEFT","LEFT","f","1","true","","","",""
"","html-keyboard-response","411","564627","0.0-700.0","9trhclc7","1440","900","","","","","","","","","","","null","+","Fixation - short","","null","","","","","","","","","","","","","","","","",""
"","html-keyboard-response","412","565149","0.0-701.0","9trhclc7","","","","","","","","","","","","","521","dul","Diagnostic trial","","j","","10","4","8","false","false","false","both pre & post","RIGHT","RIGHT","j","1","true","","","",""
"","html-keyboard-response","413","565901","0.0-704.0","9trhclc7","1440","900","","","","","","","","","","","null","+","Fixation - short","","null","","","","","","","","","","","","","","","","",""
"","html-keyboard-response","414","566599","0.0-705.0","9trhclc7","","","","","","","","","","","","","696","iei","Diagnostic trial","","j","","10","5","8","false","false","false","both pre & post","LEFT","RIGHT","j","1","false","","","",""
"","html-keyboard-response","415","567351","0.0-708.0","9trhclc7","1440","900","","","","","","","","","","","null","+","Fixation - short","","null","","","","","","","","","","","","","","","","",""
"","html-keyboard-response","416","567910","0.0-709.0","9trhclc7","","","","","","","","","","","","","557","dul","Diagnostic trial","","j","","10","6","8","false","false","false","both pre & post","RIGHT","RIGHT","j","1","true","","","",""
"","html-keyboard-response","417","568661","0.0-712.0","9trhclc7","1440","900","","","","","","","","","","","null","+","Fixation - short","","null","","","","","","","","","","","","","","","","",""
"","html-keyboard-response","418","569225","0.0-713.0","9trhclc7","","","","","","","","","","","","","564","iei","Diagnostic trial","","f","","10","7","8","false","false","true","both pre & post","LEFT","LEFT","f","1","true","","","",""
"","html-keyboard-response","419","569978","0.0-716.0","9trhclc7","1440","900","","","","","","","","","","","null","+","Fixation - short","","null","","","","","","","","","","","","","","","","",""
"","canvas-keyboard-response","420","571231","0.0-717.0","9trhclc7","","","","","","","","","","","","","null","Cue","Cue","","null","","10","7","","","false","","","","","","","","","","",""
"","html-keyboard-response","421","571983","0.0-718.0","9trhclc7","1440","900","","","","","","","","","","","null","+","Fixation - short","","null","","","","","","","","","","","","","","","","",""
"","html-keyboard-response","422","572793","0.0-719.0","9trhclc7","","","","","","","","","","","","","808","iei","Diagnostic trial","","j","","10","8","8","true","false","false","both pre & post","LEFT","RIGHT","j","1","false","","","",""
"","html-keyboard-response","423","573546","0.0-722.0","9trhclc7","1440","900","","","","","","","","","","","null","+","Fixation - short","","null","","","","","","","","","","","","","","","","",""
"","html-keyboard-response","424","574102","0.0-723.0","9trhclc7","","","","","","","","","","","","","555","iei","Diagnostic trial","","f","","10","9","8","true","false","true","both pre & post","LEFT","LEFT","f","1","true","","","",""
"","html-keyboard-response","425","574854","0.0-726.0","9trhclc7","1440","900","","","","","","","","","","","null","+","Fixation - short","","null","","","","","","","","","","","","","","","","",""
"","html-keyboard-response","426","575496","0.0-727.0","9trhclc7","","","","","","","","","","","","","639","iei","Inducer trial","","j","","10","","","","true","","","","","f","0","","false","LEFT","",""
"","call-function","427","575496","0.0-729.0-0.0","9trhclc7","","","","","","","","","","","","","","","","","","","","","","","","","","","","","","","","","",""
"","html-keyboard-response","428","575799","0.0-729.0-1.0","9trhclc7","1440","900","","","","","","","","","","","null","Wrong","Feedback","","null","","","","","","","","","","","","","","","","",""
"","call-function","429","575800","0.0-729.0-2.0","9trhclc7","","","","","","","","","","","","","","","","","","","","","","","","","","","","","","","","","",""
"","html-keyboard-response","430","576552","0.0-730.0","9trhclc7","1440","900","","","","","","","","","","","null","+","Fixation - short","","null","","","","","","","","","","","","","","","","",""
"","html-keyboard-response","431","578518","0.0-731.0","9trhclc7","","","","","","","","","","","","","1965","If hlb press LEFT | If drk press RIGHT","Inducer instructions",""," ","","11","","","","","","","","","","","","","","",""
"","html-keyboard-response","432","579271","0.0-732.0","9trhclc7","1440","900","","","","","","","","","","","null","+","Fixation - short","","null","","","","","","","","","","","","","","","","",""
"","html-keyboard-response","433","579822","0.0-733.0","9trhclc7","","","","","","","","","","","","","550","hlb","Diagnostic trial","","f","","11","0","9","false","false","true","both pre & post","LEFT","LEFT","f","1","true","","","",""
"","html-keyboard-response","434","580575","0.0-736.0","9trhclc7","1440","900","","","","","","","","","","","null","+","Fixation - short","","null","","","","","","","","","","","","","","","","",""
"","html-keyboard-response","435","581327","0.0-737.0","9trhclc7","","","","","","","","","","","","","751","hlb","Diagnostic trial","","f","","11","1","9","false","false","true","both pre & post","LEFT","LEFT","f","1","true","","","",""
"","html-keyboard-response","436","582079","0.0-740.0","9trhclc7","1440","900","","","","","","","","","","","null","+","Fixation - short","","null","","","","","","","","","","","","","","","","",""
"","html-keyboard-response","437","582538","0.0-741.0","9trhclc7","","","","","","","","","","","","","458","hlb","Diagnostic trial","","f","","11","2","9","false","false","true","both pre & post","LEFT","LEFT","f","1","true","","","",""
"","html-keyboard-response","438","583291","0.0-744.0","9trhclc7","1440","900","","","","","","","","","","","null","+","Fixation - short","","null","","","","","","","","","","","","","","","","",""
"","html-keyboard-response","439","583819","0.0-745.0","9trhclc7","","","","","","","","","","","","","527","drk","Diagnostic trial","","f","","11","3","9","false","false","true","both pre & post","RIGHT","LEFT","f","1","false","","","",""
"","html-keyboard-response","440","584572","0.0-748.0","9trhclc7","1440","900","","","","","","","","","","","null","+","Fixation - short","","null","","","","","","","","","","","","","","","","",""
"","html-keyboard-response","441","585214","0.0-749.0","9trhclc7","","","","","","","","","","","","","641","drk","Diagnostic trial","","j","","11","4","9","false","false","false","both pre & post","RIGHT","RIGHT","j","1","true","","","",""
"","html-keyboard-response","442","585967","0.0-752.0","9trhclc7","1440","900","","","","","","","","","","","null","+","Fixation - short","","null","","","","","","","","","","","","","","","","",""
"","html-keyboard-response","443","586744","0.0-753.0","9trhclc7","","","","","","","","","","","","","776","drk","Diagnostic trial","","f","","11","5","9","false","false","false","both pre & post","RIGHT","RIGHT","j","0","true","","","",""
"","call-function","444","586745","0.0-755.0-0.0","9trhclc7","","","","","","","","","","","","","","","","","","","","","","","","","","","","","","","","","",""
"","html-keyboard-response","445","587047","0.0-755.0-1.0","9trhclc7","1440","900","","","","","","","","","","","null","Wrong","Feedback","","null","","","","","","","","","","","","","","","","",""
"","call-function","446","587048","0.0-755.0-2.0","9trhclc7","","","","","","","","","","","","","","","","","","","","","","","","","","","","","","","","","",""
"","html-keyboard-response","447","587800","0.0-756.0","9trhclc7","1440","900","","","","","","","","","","","null","+","Fixation - short","","null","","","","","","","","","","","","","","","","",""
"","html-keyboard-response","448","588403","0.0-757.0","9trhclc7","","","","","","","","","","","","","601","drk","Diagnostic trial","","j","","11","6","9","false","false","false","both pre & post","RIGHT","RIGHT","j","1","true","","","",""
"","html-keyboard-response","449","589155","0.0-760.0","9trhclc7","1440","900","","","","","","","","","","","null","+","Fixation - short","","null","","","","","","","","","","","","","","","","",""
"","html-keyboard-response","450","589731","0.0-761.0","9trhclc7","","","","","","","","","","","","","575","drk","Diagnostic trial","","j","","11","7","9","false","false","false","both pre & post","RIGHT","RIGHT","j","1","true","","","",""
"","html-keyboard-response","451","590483","0.0-764.0","9trhclc7","1440","900","","","","","","","","","","","null","+","Fixation - short","","null","","","","","","","","","","","","","","","","",""
"","html-keyboard-response","452","591090","0.0-765.0","9trhclc7","","","","","","","","","","","","","606","hlb","Diagnostic trial","","f","","11","8","9","false","false","true","both pre & post","LEFT","LEFT","f","1","true","","","",""
"","html-keyboard-response","453","591842","0.0-768.0","9trhclc7","1440","900","","","","","","","","","","","null","+","Fixation - short","","null","","","","","","","","","","","","","","","","",""
"","canvas-keyboard-response","454","593095","0.0-769.0","9trhclc7","","","","","","","","","","","","","null","Cue","Cue","","null","","11","8","","","false","","","","","","","","","","",""
"","html-keyboard-response","455","593847","0.0-770.0","9trhclc7","1440","900","","","","","","","","","","","null","+","Fixation - short","","null","","","","","","","","","","","","","","","","",""
"","html-keyboard-response","456","594448","0.0-771.0","9trhclc7","","","","","","","","","","","","","600","hlb","Diagnostic trial","","f","","11","9","9","true","false","true","both pre & post","LEFT","LEFT","f","1","true","","","",""
"","html-keyboard-response","457","595201","0.0-774.0","9trhclc7","1440","900","","","","","","","","","","","null","+","Fixation - short","","null","","","","","","","","","","","","","","","","",""
"","html-keyboard-response","458","595859","0.0-775.0","9trhclc7","","","","","","","","","","","","","658","drk","Diagnostic trial","","f","","11","10","9","true","false","false","both pre & post","RIGHT","RIGHT","j","0","true","","","",""
"","call-function","459","595860","0.0-777.0-0.0","9trhclc7","","","","","","","","","","","","","","","","","","","","","","","","","","","","","","","","","",""
