"value","trial_type","trial_index","time_elapsed","internal_node_id","id","width","height","webaudio","browser","browser_version","mobile","os","fullscreen","vsync_rate","webcam","microphone","view_history","rt","stimulus","trial_info","success","response","exp_parameters","inducer_run","diagnostic_run","cue_num","post_cue","inducer_trial","italic","forced_equal_run","correct_inducer_response_side","correct_diag_response_side","correct_response_key","correct_response","congruent","force_equal","correct_indu_response_side","accuracy","interactive"
"","call-function","0","3","0.0-0.0","4f32gkws","","","","","","","","","","","","","","","","","","","","","","","","","","","","","","","","","",""
"","browser-check","1","1010","0.0-1.0","4f32gkws","1440","680","true","chrome","123.0.0","false","Mac OS","true","60.05","true","true","","","","","","","","","","","","","","","","","","","","","","",""
"","instructions","2","42164","0.0-2.0","4f32gkws","","","","","","","","","","","","[{""page_index"":0,""viewing_time"":10547},{""page_index"":1,""viewing_time"":27946},{""page_index"":2,""viewing_time"":2657}]","41150","The experiment and consent","The experiment and consent","","","","","","","","","","","","","","","","","","",""
"","fullscreen","3","46658","0.0-3.0","4f32gkws","","","","","","","","","","","","","3491","","Full screen","true","","","","","","","","","","","","","","","","","",""
"","instructions","4","63980","0.0-4.0","4f32gkws","","","","","","","","","","","","[{""page_index"":0,""viewing_time"":13101},{""page_index"":1,""viewing_time"":4218}]","17320","Instructions","Basic overview explanation","","","","","","","","","","","","","","","","","","",""
"","html-keyboard-response","5","70925","0.0-5.0","4f32gkws","","","","","","","","","","","","","5441","If italic press LEFT | If upright press RIGHT","Diagnostic instructions",""," ","{""debug"":false,""skip_instructions"":false,""skip_practice"":false,""save_local_data"":false,""studu_name"":""exp2"",""default_background_colour"":""#cccccc"",""wrong_response_colour"":""#d22d2d"",""instruction_delay"":20000,""trial_duration"":2000,""short_fixation"":750,""long_fixation"":1500,""wrong_response_delay"":300,""too_slow_delay"":300,""instruction_font_size"":""24px"",""general_font_size"":""42px"",""fixation_size"":""48px"",""allowed_responses"":[""f"",""j""],""cue_min_length"":0,""cue_max_length"":4,""tot_post_cue_len"":72,""cue_colour"":""red"",""cue_shape"":""Square"",""cue_size"":70,""cue_duration"":1250,""avg_number_of_cues"":3,""inducer_colour"":""yellow"",""number_of_inducers"":24,""pre_cue_italic_forced_equal"":true,""post_cue_italic_forced_equal"":true,""prac_diagnostic_rounds"":16,""prac_inducer_rounds"":6,""prac_cue_rounds"":16,""prac_post_cue_num"":3}","","","","","","","","","","","","","","","",""
"","html-keyboard-response","6","71678","0.0-6.0","4f32gkws","1440","900","","","","","","","","","","","null","+","Fixation - short","","null","","","","","","","","","","","","","","","","",""
"","html-keyboard-response","7","72326","0.0-7.0","4f32gkws","","","","","","","","","","","","","647","jup","Diagnostic practice","","j","","Diagnostic practice","0","-84","true","false","false","prac equal","RIGHT","RIGHT","j","1","true","","","",""
"","html-keyboard-response","8","73080","0.0-10.0","4f32gkws","1440","900","","","","","","","","","","","null","+","Fixation - short","","null","","","","","","","","","","","","","","","","",""
"","html-keyboard-response","9","73753","0.0-11.0","4f32gkws","","","","","","","","","","","","","671","jup","Diagnostic practice","","f","","Diagnostic practice","1","-84","true","false","true","prac equal","RIGHT","LEFT","f","1","false","","","",""
"","html-keyboard-response","10","74505","0.0-14.0","4f32gkws","1440","900","","","","","","","","","","","null","+","Fixation - short","","null","","","","","","","","","","","","","","","","",""
"","html-keyboard-response","11","75138","0.0-15.0","4f32gkws","","","","","","","","","","","","","631","xlv","Diagnostic practice","","f","","Diagnostic practice","2","-84","true","false","true","prac equal","LEFT","LEFT","f","1","true","","","",""
"","html-keyboard-response","12","75891","0.0-18.0","4f32gkws","1440","900","","","","","","","","","","","null","+","Fixation - short","","null","","","","","","","","","","","","","","","","",""
"","html-keyboard-response","13","76586","0.0-19.0","4f32gkws","","","","","","","","","","","","","694","jup","Diagnostic practice","","f","","Diagnostic practice","3","-84","true","false","true","prac equal","RIGHT","LEFT","f","1","false","","","",""
"","html-keyboard-response","14","77339","0.0-22.0","4f32gkws","1440","900","","","","","","","","","","","null","+","Fixation - short","","null","","","","","","","","","","","","","","","","",""
"","html-keyboard-response","15","77852","0.0-23.0","4f32gkws","","","","","","","","","","","","","512","xlv","Diagnostic practice","","f","","Diagnostic practice","4","-84","true","false","true","prac equal","LEFT","LEFT","f","1","true","","","",""
"","html-keyboard-response","16","78604","0.0-26.0","4f32gkws","1440","900","","","","","","","","","","","null","+","Fixation - short","","null","","","","","","","","","","","","","","","","",""
"","html-keyboard-response","17","79088","0.0-27.0","4f32gkws","","","","","","","","","","","","","483","xlv","Diagnostic practice","","f","","Diagnostic practice","5","-84","true","false","true","prac equal","LEFT","LEFT","f","1","true","","","",""
"","html-keyboard-response","18","79841","0.0-30.0","4f32gkws","1440","900","","","","","","","","","","","null","+","Fixation - short","","null","","","","","","","","","","","","","","","","",""
"","html-keyboard-response","19","80422","0.0-31.0","4f32gkws","","","","","","","","","","","","","580","xlv","Diagnostic practice","","j","","Diagnostic practice","6","-84","true","false","false","prac equal","LEFT","RIGHT","j","1","false","","","",""
"","html-keyboard-response","20","81175","0.0-34.0","4f32gkws","1440","900","","","","","","","","","","","null","+","Fixation - short","","null","","","","","","","","","","","","","","","","",""
"","html-keyboard-response","21","81796","0.0-35.0","4f32gkws","","","","","","","","","","","","","620","jup","Diagnostic practice","","j","","Diagnostic practice","7","-84","true","false","false","prac equal","RIGHT","RIGHT","j","1","true","","","",""
"","html-keyboard-response","22","82549","0.0-38.0","4f32gkws","1440","900","","","","","","","","","","","null","+","Fixation - short","","null","","","","","","","","","","","","","","","","",""
"","html-keyboard-response","23","83066","0.0-39.0","4f32gkws","","","","","","","","","","","","","516","jup","Diagnostic practice","","j","","Diagnostic practice","8","-84","true","false","false","prac equal","RIGHT","RIGHT","j","1","true","","","",""
"","html-keyboard-response","24","83819","0.0-42.0","4f32gkws","1440","900","","","","","","","","","","","null","+","Fixation - short","","null","","","","","","","","","","","","","","","","",""
"","html-keyboard-response","25","84408","0.0-43.0","4f32gkws","","","","","","","","","","","","","588","xlv","Diagnostic practice","","f","","Diagnostic practice","9","-84","true","false","true","prac equal","LEFT","LEFT","f","1","true","","","",""
"","html-keyboard-response","26","85161","0.0-46.0","4f32gkws","1440","900","","","","","","","","","","","null","+","Fixation - short","","null","","","","","","","","","","","","","","","","",""
"","html-keyboard-response","27","85687","0.0-47.0","4f32gkws","","","","","","","","","","","","","525","xlv","Diagnostic practice","","f","","Diagnostic practice","10","-84","true","false","true","prac equal","LEFT","LEFT","f","1","true","","","",""
"","html-keyboard-response","28","86440","0.0-50.0","4f32gkws","1440","900","","","","","","","","","","","null","+","Fixation - short","","null","","","","","","","","","","","","","","","","",""
"","html-keyboard-response","29","86994","0.0-51.0","4f32gkws","","","","","","","","","","","","","553","jup","Diagnostic practice","","j","","Diagnostic practice","11","-84","true","false","false","prac equal","RIGHT","RIGHT","j","1","true","","","",""
"","html-keyboard-response","30","87747","0.0-54.0","4f32gkws","1440","900","","","","","","","","","","","null","+","Fixation - short","","null","","","","","","","","","","","","","","","","",""
"","html-keyboard-response","31","88415","0.0-55.0","4f32gkws","","","","","","","","","","","","","667","xlv","Diagnostic practice","","j","","Diagnostic practice","12","-84","true","false","false","prac equal","LEFT","RIGHT","j","1","false","","","",""
"","html-keyboard-response","32","89166","0.0-58.0","4f32gkws","1440","900","","","","","","","","","","","null","+","Fixation - short","","null","","","","","","","","","","","","","","","","",""
"","html-keyboard-response","33","89778","0.0-59.0","4f32gkws","","","","","","","","","","","","","611","xlv","Diagnostic practice","","f","","Diagnostic practice","13","-84","true","false","true","prac equal","LEFT","LEFT","f","1","true","","","",""
"","html-keyboard-response","34","90531","0.0-62.0","4f32gkws","1440","900","","","","","","","","","","","null","+","Fixation - short","","null","","","","","","","","","","","","","","","","",""
"","html-keyboard-response","35","91085","0.0-63.0","4f32gkws","","","","","","","","","","","","","553","xlv","Diagnostic practice","","j","","Diagnostic practice","14","-84","true","false","false","prac equal","LEFT","RIGHT","j","1","false","","","",""
"","html-keyboard-response","36","91837","0.0-66.0","4f32gkws","1440","900","","","","","","","","","","","null","+","Fixation - short","","null","","","","","","","","","","","","","","","","",""
"","html-keyboard-response","37","92369","0.0-67.0","4f32gkws","","","","","","","","","","","","","531","jup","Diagnostic practice","","j","","Diagnostic practice","15","-84","true","false","false","prac equal","RIGHT","RIGHT","j","1","true","","","",""
"","html-keyboard-response","38","93121","0.0-70.0","4f32gkws","1440","900","","","","","","","","","","","null","+","Fixation - short","","null","","","","","","","","","","","","","","","","",""
"","instructions","39","205049","0.0-71.0","4f32gkws","","","","","","","","","","","","[{""page_index"":0,""viewing_time"":111922}]","111923","Instructions","Final experiment explanation","","","","","","","","","","","","","","","","","","",""
"","html-keyboard-response","40","212694","0.0-72.0","4f32gkws","","","","","","","","","","","","","6143","If iei press LEFT | If geb press RIGHT","Inducer practice",""," ","","Practice","","","","","","","","","","","","","","",""
"","html-keyboard-response","41","213448","0.0-73.0","4f32gkws","1440","900","","","","","","","","","","","null","+","Fixation - short","","null","","","","","","","","","","","","","","","","",""
"","html-keyboard-response","42","214676","0.0-74.0","4f32gkws","","","","","","","","","","","","","1227","iei","Inducer practice","","f","","Practice","","","","true","","","","","f","1","","true","LEFT","",""
"","html-keyboard-response","43","215428","0.0-77.0","4f32gkws","1440","900","","","","","","","","","","","null","+","Fixation - short","","null","","","","","","","","","","","","","","","","",""
"","html-keyboard-response","44","219374","0.0-78.0","4f32gkws","","","","","","","","","","","","","3945","If ivr press LEFT | If asn press RIGHT","Inducer practice",""," ","","Practice","","","","","","","","","","","","","","",""
"","html-keyboard-response","45","220127","0.0-79.0","4f32gkws","1440","900","","","","","","","","","","","null","+","Fixation - short","","null","","","","","","","","","","","","","","","","",""
"","html-keyboard-response","46","220828","0.0-80.0","4f32gkws","","","","","","","","","","","","","700","asn","Inducer practice","","j","","Practice","","","","true","","","","","j","1","","true","RIGHT","",""
"","html-keyboard-response","47","221580","0.0-83.0","4f32gkws","1440","900","","","","","","","","","","","null","+","Fixation - short","","null","","","","","","","","","","","","","","","","",""
"","html-keyboard-response","48","223408","0.0-84.0","4f32gkws","","","","","","","","","","","","","1826","If ttm press LEFT | If cpt press RIGHT","Inducer practice",""," ","","Practice","","","","","","","","","","","","","","",""
"","html-keyboard-response","49","224159","0.0-85.0","4f32gkws","1440","900","","","","","","","","","","","null","+","Fixation - short","","null","","","","","","","","","","","","","","","","",""
"","html-keyboard-response","50","224671","0.0-86.0","4f32gkws","","","","","","","","","","","","","511","ttm","Inducer practice","","f","","Practice","","","","true","","","","","f","1","","true","LEFT","",""
"","html-keyboard-response","51","225424","0.0-89.0","4f32gkws","1440","900","","","","","","","","","","","null","+","Fixation - short","","null","","","","","","","","","","","","","","","","",""
"","html-keyboard-response","52","226363","0.0-90.0","4f32gkws","","","","","","","","","","","","","938","If rrd press LEFT | If afp press RIGHT","Inducer practice",""," ","","Practice","","","","","","","","","","","","","","",""
"","html-keyboard-response","53","227115","0.0-91.0","4f32gkws","1440","900","","","","","","","","","","","null","+","Fixation - short","","null","","","","","","","","","","","","","","","","",""
"","html-keyboard-response","54","227654","0.0-92.0","4f32gkws","","","","","","","","","","","","","538","rrd","Inducer practice","","f","","Practice","","","","true","","","","","f","1","","true","LEFT","",""
"","html-keyboard-response","55","228407","0.0-95.0","4f32gkws","1440","900","","","","","","","","","","","null","+","Fixation - short","","null","","","","","","","","","","","","","","","","",""
"","html-keyboard-response","56","229362","0.0-96.0","4f32gkws","","","","","","","","","","","","","954","If psl press LEFT | If pxv press RIGHT","Inducer practice",""," ","","Practice","","","","","","","","","","","","","","",""
"","html-keyboard-response","57","230115","0.0-97.0","4f32gkws","1440","900","","","","","","","","","","","null","+","Fixation - short","","null","","","","","","","","","","","","","","","","",""
"","html-keyboard-response","58","230620","0.0-98.0","4f32gkws","","","","","","","","","","","","","504","pxv","Inducer practice","","j","","Practice","","","","true","","","","","j","1","","true","RIGHT","",""
"","html-keyboard-response","59","231373","0.0-101.0","4f32gkws","1440","900","","","","","","","","","","","null","+","Fixation - short","","null","","","","","","","","","","","","","","","","",""
"","html-keyboard-response","60","232856","0.0-102.0","4f32gkws","","","","","","","","","","","","","1482","If amb press LEFT | If csp press RIGHT","Inducer practice",""," ","","Practice","","","","","","","","","","","","","","",""
"","html-keyboard-response","61","233609","0.0-103.0","4f32gkws","1440","900","","","","","","","","","","","null","+","Fixation - short","","null","","","","","","","","","","","","","","","","",""
"","html-keyboard-response","62","234220","0.0-104.0","4f32gkws","","","","","","","","","","","","","610","csp","Inducer practice","","j","","Practice","","","","true","","","","","j","1","","true","RIGHT","",""
"","html-keyboard-response","63","234972","0.0-107.0","4f32gkws","1440","900","","","","","","","","","","","null","+","Fixation - short","","null","","","","","","","","","","","","","","","","",""
"","instructions","64","298376","0.0-108.0","4f32gkws","","","","","","","","","","","","[{""page_index"":0,""viewing_time"":63399}]","63400","Instructions","Final experiment explanation","","","","","","","","","","","","","","","","","","",""
"","html-keyboard-response","65","302648","0.0-109.0","4f32gkws","","","","","","","","","","","","","2769","If wwt press LEFT | If cmj press RIGHT","Cue practice",""," ","","Practice","","","","","","","","","","","","","","",""
"","html-keyboard-response","66","303401","0.0-110.0","4f32gkws","1440","900","","","","","","","","","","","null","+","Fixation - short","","null","","","","","","","","","","","","","","","","",""
"","html-keyboard-response","67","304010","0.0-111.0","4f32gkws","","","","","","","","","","","","","608","wwt","Cue practice","","f","","Practice","0","13","false","false","false","both pre & post","LEFT","RIGHT","j","0","false","","","",""
"","call-function","68","304011","0.0-113.0-0.0","4f32gkws","","","","","","","","","","","","","","","","","","","","","","","","","","","","","","","","","",""
"","html-keyboard-response","69","304313","0.0-113.0-1.0","4f32gkws","1440","900","","","","","","","","","","","null","Wrong","Feedback","","null","","","","","","","","","","","","","","","","",""
"","call-function","70","304314","0.0-113.0-2.0","4f32gkws","","","","","","","","","","","","","","","","","","","","","","","","","","","","","","","","","",""
"","html-keyboard-response","71","305066","0.0-114.0","4f32gkws","1440","900","","","","","","","","","","","null","+","Fixation - short","","null","","","","","","","","","","","","","","","","",""
"","html-keyboard-response","72","306678","0.0-115.0","4f32gkws","","","","","","","","","","","","","1611","cmj","Cue practice","","j","","Practice","1","13","false","false","true","both pre & post","RIGHT","LEFT","f","0","false","","","",""
"","call-function","73","306679","0.0-117.0-0.0","4f32gkws","","","","","","","","","","","","","","","","","","","","","","","","","","","","","","","","","",""
"","html-keyboard-response","74","306982","0.0-117.0-1.0","4f32gkws","1440","900","","","","","","","","","","","null","Wrong","Feedback","","null","","","","","","","","","","","","","","","","",""
"","call-function","75","306983","0.0-117.0-2.0","4f32gkws","","","","","","","","","","","","","","","","","","","","","","","","","","","","","","","","","",""
"","html-keyboard-response","76","307735","0.0-118.0","4f32gkws","1440","900","","","","","","","","","","","null","+","Fixation - short","","null","","","","","","","","","","","","","","","","",""
"","html-keyboard-response","77","308593","0.0-119.0","4f32gkws","","","","","","","","","","","","","858","wwt","Cue practice","","f","","Practice","2","13","false","false","true","both pre & post","LEFT","LEFT","f","1","true","","","",""
"","html-keyboard-response","78","309346","0.0-122.0","4f32gkws","1440","900","","","","","","","","","","","null","+","Fixation - short","","null","","","","","","","","","","","","","","","","",""
"","html-keyboard-response","79","310829","0.0-123.0","4f32gkws","","","","","","","","","","","","","1483","cmj","Cue practice","","j","","Practice","3","13","false","false","false","both pre & post","RIGHT","RIGHT","j","1","true","","","",""
"","html-keyboard-response","80","311582","0.0-126.0","4f32gkws","1440","900","","","","","","","","","","","null","+","Fixation - short","","null","","","","","","","","","","","","","","","","",""
"","html-keyboard-response","81","313275","0.0-127.0","4f32gkws","","","","","","","","","","","","","1692","wwt","Cue practice","","j","","Practice","4","13","false","false","true","both pre & post","LEFT","LEFT","f","0","true","","","",""
"","call-function","82","313276","0.0-129.0-0.0","4f32gkws","","","","","","","","","","","","","","","","","","","","","","","","","","","","","","","","","",""
"","html-keyboard-response","83","313578","0.0-129.0-1.0","4f32gkws","1440","900","","","","","","","","","","","null","Wrong","Feedback","","null","","","","","","","","","","","","","","","","",""
"","call-function","84","313579","0.0-129.0-2.0","4f32gkws","","","","","","","","","","","","","","","","","","","","","","","","","","","","","","","","","",""
"","html-keyboard-response","85","314331","0.0-130.0","4f32gkws","1440","900","","","","","","","","","","","null","+","Fixation - short","","null","","","","","","","","","","","","","","","","",""
"","html-keyboard-response","86","315564","0.0-131.0","4f32gkws","","","","","","","","","","","","","1231","wwt","Cue practice","","j","","Practice","5","13","false","false","false","both pre & post","LEFT","RIGHT","j","1","false","","","",""
"","html-keyboard-response","87","316316","0.0-134.0","4f32gkws","1440","900","","","","","","","","","","","null","+","Fixation - short","","null","","","","","","","","","","","","","","","","",""
"","html-keyboard-response","88","317132","0.0-135.0","4f32gkws","","","","","","","","","","","","","815","cmj","Cue practice","","f","","Practice","6","13","false","false","true","both pre & post","RIGHT","LEFT","f","1","false","","","",""
"","html-keyboard-response","89","317884","0.0-138.0","4f32gkws","1440","900","","","","","","","","","","","null","+","Fixation - short","","null","","","","","","","","","","","","","","","","",""
"","html-keyboard-response","90","318776","0.0-139.0","4f32gkws","","","","","","","","","","","","","891","wwt","Cue practice","","j","","Practice","7","13","false","false","false","both pre & post","LEFT","RIGHT","j","1","false","","","",""
"","html-keyboard-response","91","319529","0.0-142.0","4f32gkws","1440","900","","","","","","","","","","","null","+","Fixation - short","","null","","","","","","","","","","","","","","","","",""
"","html-keyboard-response","92","320360","0.0-143.0","4f32gkws","","","","","","","","","","","","","830","wwt","Cue practice","","j","","Practice","8","13","false","false","false","both pre & post","LEFT","RIGHT","j","1","false","","","",""
"","html-keyboard-response","93","321111","0.0-146.0","4f32gkws","1440","900","","","","","","","","","","","null","+","Fixation - short","","null","","","","","","","","","","","","","","","","",""
"","html-keyboard-response","94","321842","0.0-147.0","4f32gkws","","","","","","","","","","","","","730","wwt","Cue practice","","f","","Practice","9","13","false","false","true","both pre & post","LEFT","LEFT","f","1","true","","","",""
"","html-keyboard-response","95","322596","0.0-150.0","4f32gkws","1440","900","","","","","","","","","","","null","+","Fixation - short","","null","","","","","","","","","","","","","","","","",""
"","html-keyboard-response","96","323390","0.0-151.0","4f32gkws","","","","","","","","","","","","","793","wwt","Cue practice","","f","","Practice","10","13","false","false","true","both pre & post","LEFT","LEFT","f","1","true","","","",""
"","html-keyboard-response","97","324141","0.0-154.0","4f32gkws","1440","900","","","","","","","","","","","null","+","Fixation - short","","null","","","","","","","","","","","","","","","","",""
"","html-keyboard-response","98","324805","0.0-155.0","4f32gkws","","","","","","","","","","","","","663","cmj","Cue practice","","f","","Practice","11","13","false","false","true","both pre & post","RIGHT","LEFT","f","1","false","","","",""
"","html-keyboard-response","99","325558","0.0-158.0","4f32gkws","1440","900","","","","","","","","","","","null","+","Fixation - short","","null","","","","","","","","","","","","","","","","",""
"","html-keyboard-response","100","326329","0.0-159.0","4f32gkws","","","","","","","","","","","","","771","wwt","Cue practice","","j","","Practice","12","13","false","false","false","both pre & post","LEFT","RIGHT","j","1","false","","","",""
"","html-keyboard-response","101","327082","0.0-162.0","4f32gkws","1440","900","","","","","","","","","","","null","+","Fixation - short","","null","","","","","","","","","","","","","","","","",""
"","canvas-keyboard-response","102","328355","0.0-163.0","4f32gkws","","","","","","","","","","","","","null","Cue","Cue","","null","","Practice","12","","","false","","","","","","","","","","",""
"","html-keyboard-response","103","329107","0.0-164.0","4f32gkws","1440","900","","","","","","","","","","","null","+","Fixation - short","","null","","","","","","","","","","","","","","","","",""
"","html-keyboard-response","104","330291","0.0-165.0","4f32gkws","","","","","","","","","","","","","1183","wwt","Cue practice","","f","","Practice","13","13","true","false","true","both pre & post","LEFT","LEFT","f","1","true","","","",""
"","html-keyboard-response","105","331044","0.0-168.0","4f32gkws","1440","900","","","","","","","","","","","null","+","Fixation - short","","null","","","","","","","","","","","","","","","","",""
"","html-keyboard-response","106","331874","0.0-169.0","4f32gkws","","","","","","","","","","","","","829","wwt","Cue practice","","j","","Practice","14","13","true","false","false","both pre & post","LEFT","RIGHT","j","1","false","","","",""
"","html-keyboard-response","107","332627","0.0-172.0","4f32gkws","1440","900","","","","","","","","","","","null","+","Fixation - short","","null","","","","","","","","","","","","","","","","",""
"","html-keyboard-response","108","333546","0.0-173.0","4f32gkws","","","","","","","","","","","","","918","wwt","Cue practice","","f","","Practice","15","13","true","false","true","both pre & post","LEFT","LEFT","f","1","true","","","",""
"","html-keyboard-response","109","334298","0.0-176.0","4f32gkws","1440","900","","","","","","","","","","","null","+","Fixation - short","","null","","","","","","","","","","","","","","","","",""
"","html-keyboard-response","110","335763","0.0-177.0","4f32gkws","","","","","","","","","","","","","1464","wwt","Inducer practice","","f","","Practice","","","","true","","","","","f","1","","false","LEFT","",""
"","html-keyboard-response","111","336516","0.0-180.0","4f32gkws","1440","900","","","","","","","","","","","null","+","Fixation - short","","null","","","","","","","","","","","","","","","","",""
"","instructions","112","347980","0.0-181.0","4f32gkws","","","","","","","","","","","","[{""page_index"":0,""viewing_time"":11463}]","11463","End practice","End of practice","","","","","","","","","","","","","","","","","","",""
"","html-keyboard-response","113","350986","0.0-182.0","4f32gkws","1440","900","","","","","","","","","","","null","+","Fixation - long","","null","","","","","","","","","","","","","","","","",""
"","html-keyboard-response","114","353097","0.0-183.0","4f32gkws","","","","","","","","","","","","","2109","If pph press LEFT | If tgf press RIGHT","Inducer instructions",""," ","","0","","","","","","","","","","","","","","",""
"","html-keyboard-response","115","353850","0.0-184.0","4f32gkws","1440","900","","","","","","","","","","","null","+","Fixation - short","","null","","","","","","","","","","","","","","","","",""
"","html-keyboard-response","116","355024","0.0-185.0","4f32gkws","","","","","","","","","","","","","1173","tgf","Diagnostic trial","","j","","0","0","8","false","false","true","both pre & post","RIGHT","LEFT","f","0","false","","","",""
"","call-function","117","355024","0.0-187.0-0.0","4f32gkws","","","","","","","","","","","","","","","","","","","","","","","","","","","","","","","","","",""
"","html-keyboard-response","118","355327","0.0-187.0-1.0","4f32gkws","1440","900","","","","","","","","","","","null","Wrong","Feedback","","null","","","","","","","","","","","","","","","","",""
"","call-function","119","355328","0.0-187.0-2.0","4f32gkws","","","","","","","","","","","","","","","","","","","","","","","","","","","","","","","","","",""
"","html-keyboard-response","120","356080","0.0-188.0","4f32gkws","1440","900","","","","","","","","","","","null","+","Fixation - short","","null","","","","","","","","","","","","","","","","",""
"","html-keyboard-response","121","356929","0.0-189.0","4f32gkws","","","","","","","","","","","","","847","pph","Diagnostic trial","","f","","0","1","8","false","false","true","both pre & post","LEFT","LEFT","f","1","true","","","",""
"","html-keyboard-response","122","357681","0.0-192.0","4f32gkws","1440","900","","","","","","","","","","","null","+","Fixation - short","","null","","","","","","","","","","","","","","","","",""
"","html-keyboard-response","123","358355","0.0-193.0","4f32gkws","","","","","","","","","","","","","673","pph","Diagnostic trial","","f","","0","2","8","false","false","true","both pre & post","LEFT","LEFT","f","1","true","","","",""
"","html-keyboard-response","124","359107","0.0-196.0","4f32gkws","1440","900","","","","","","","","","","","null","+","Fixation - short","","null","","","","","","","","","","","","","","","","",""
"","html-keyboard-response","125","361076","0.0-197.0","4f32gkws","","","","","","","","","","","","","1969","tgf","Diagnostic trial","","j","","0","3","8","false","false","true","both pre & post","RIGHT","LEFT","f","0","false","","","",""
"","call-function","126","361077","0.0-199.0-0.0","4f32gkws","","","","","","","","","","","","","","","","","","","","","","","","","","","","","","","","","",""
"","html-keyboard-response","127","361378","0.0-199.0-1.0","4f32gkws","1440","900","","","","","","","","","","","null","Wrong","Feedback","","null","","","","","","","","","","","","","","","","",""
"","call-function","128","361379","0.0-199.0-2.0","4f32gkws","","","","","","","","","","","","","","","","","","","","","","","","","","","","","","","","","",""
"","html-keyboard-response","129","362131","0.0-200.0","4f32gkws","1440","900","","","","","","","","","","","null","+","Fixation - short","","null","","","","","","","","","","","","","","","","",""
"","html-keyboard-response","130","363395","0.0-201.0","4f32gkws","","","","","","","","","","","","","1263","pph","Diagnostic trial","","f","","0","4","8","false","false","false","both pre & post","LEFT","RIGHT","j","0","false","","","",""
"","call-function","131","363395","0.0-203.0-0.0","4f32gkws","","","","","","","","","","","","","","","","","","","","","","","","","","","","","","","","","",""
"","html-keyboard-response","132","363698","0.0-203.0-1.0","4f32gkws","1440","900","","","","","","","","","","","null","Wrong","Feedback","","null","","","","","","","","","","","","","","","","",""
"","call-function","133","363698","0.0-203.0-2.0","4f32gkws","","","","","","","","","","","","","","","","","","","","","","","","","","","","","","","","","",""
"","html-keyboard-response","134","364451","0.0-204.0","4f32gkws","1440","900","","","","","","","","","","","null","+","Fixation - short","","null","","","","","","","","","","","","","","","","",""
"","html-keyboard-response","135","365726","0.0-205.0","4f32gkws","","","","","","","","","","","","","1275","tgf","Diagnostic trial","","j","","0","5","8","false","false","true","both pre & post","RIGHT","LEFT","f","0","false","","","",""
"","call-function","136","365727","0.0-207.0-0.0","4f32gkws","","","","","","","","","","","","","","","","","","","","","","","","","","","","","","","","","",""
"","html-keyboard-response","137","366028","0.0-207.0-1.0","4f32gkws","1440","900","","","","","","","","","","","null","Wrong","Feedback","","null","","","","","","","","","","","","","","","","",""
"","call-function","138","366029","0.0-207.0-2.0","4f32gkws","","","","","","","","","","","","","","","","","","","","","","","","","","","","","","","","","",""
"","html-keyboard-response","139","366781","0.0-208.0","4f32gkws","1440","900","","","","","","","","","","","null","+","Fixation - short","","null","","","","","","","","","","","","","","","","",""
"","html-keyboard-response","140","367500","0.0-209.0","4f32gkws","","","","","","","","","","","","","718","pph","Diagnostic trial","","f","","0","6","8","false","false","false","both pre & post","LEFT","RIGHT","j","0","false","","","",""
"","call-function","141","367500","0.0-211.0-0.0","4f32gkws","","","","","","","","","","","","","","","","","","","","","","","","","","","","","","","","","",""
"","html-keyboard-response","142","367803","0.0-211.0-1.0","4f32gkws","1440","900","","","","","","","","","","","null","Wrong","Feedback","","null","","","","","","","","","","","","","","","","",""
"","call-function","143","367803","0.0-211.0-2.0","4f32gkws","","","","","","","","","","","","","","","","","","","","","","","","","","","","","","","","","",""
"","html-keyboard-response","144","368556","0.0-212.0","4f32gkws","1440","900","","","","","","","","","","","null","+","Fixation - short","","null","","","","","","","","","","","","","","","","",""
"","html-keyboard-response","145","369336","0.0-213.0","4f32gkws","","","","","","","","","","","","","779","tgf","Diagnostic trial","","j","","0","7","8","false","false","false","both pre & post","RIGHT","RIGHT","j","1","true","","","",""
"","html-keyboard-response","146","370089","0.0-216.0","4f32gkws","1440","900","","","","","","","","","","","null","+","Fixation - short","","null","","","","","","","","","","","","","","","","",""
"","canvas-keyboard-response","147","371342","0.0-217.0","4f32gkws","","","","","","","","","","","","","null","Cue","Cue","","null","","0","7","","","false","","","","","","","","","","",""
"","html-keyboard-response","148","372094","0.0-218.0","4f32gkws","1440","900","","","","","","","","","","","null","+","Fixation - short","","null","","","","","","","","","","","","","","","","",""
"","html-keyboard-response","149","372852","0.0-219.0","4f32gkws","","","","","","","","","","","","","757","pph","Diagnostic trial","","f","","0","8","8","true","false","true","both pre & post","LEFT","LEFT","f","1","true","","","",""
"","html-keyboard-response","150","373605","0.0-222.0","4f32gkws","1440","900","","","","","","","","","","","null","+","Fixation - short","","null","","","","","","","","","","","","","","","","",""
"","html-keyboard-response","151","374163","0.0-223.0","4f32gkws","","","","","","","","","","","","","557","tgf","Diagnostic trial","","f","","0","9","8","true","false","true","both pre & post","RIGHT","LEFT","f","1","false","","","",""
"","html-keyboard-response","152","374916","0.0-226.0","4f32gkws","1440","900","","","","","","","","","","","null","+","Fixation - short","","null","","","","","","","","","","","","","","","","",""
"","html-keyboard-response","153","375398","0.0-227.0","4f32gkws","","","","","","","","","","","","","482","tgf","Diagnostic trial","","f","","0","10","8","true","false","true","both pre & post","RIGHT","LEFT","f","1","false","","","",""
"","html-keyboard-response","154","376151","0.0-230.0","4f32gkws","1440","900","","","","","","","","","","","null","+","Fixation - short","","null","","","","","","","","","","","","","","","","",""
"","html-keyboard-response","155","377008","0.0-231.0","4f32gkws","","","","","","","","","","","","","856","tgf","Inducer trial","","f","","0","","","","true","","","","","j","0","","false","RIGHT","",""
"","call-function","156","377009","0.0-233.0-0.0","4f32gkws","","","","","","","","","","","","","","","","","","","","","","","","","","","","","","","","","",""
"","html-keyboard-response","157","377311","0.0-233.0-1.0","4f32gkws","1440","900","","","","","","","","","","","null","Wrong","Feedback","","null","","","","","","","","","","","","","","","","",""
"","call-function","158","377311","0.0-233.0-2.0","4f32gkws","","","","","","","","","","","","","","","","","","","","","","","","","","","","","","","","","",""
"","html-keyboard-response","159","378064","0.0-234.0","4f32gkws","1440","900","","","","","","","","","","","null","+","Fixation - short","","null","","","","","","","","","","","","","","","","",""
"","html-keyboard-response","160","385947","0.0-235.0","4f32gkws","","","","","","","","","","","","","7883","If otr press LEFT | If hfs press RIGHT","Inducer instructions",""," ","","1","","","","","","","","","","","","","","",""
"","html-keyboard-response","161","386700","0.0-236.0","4f32gkws","1440","900","","","","","","","","","","","null","+","Fixation - short","","null","","","","","","","","","","","","","","","","",""
"","html-keyboard-response","162","387921","0.0-237.0","4f32gkws","","","","","","","","","","","","","1220","hfs","Diagnostic trial","","j","","1","0","10","false","false","false","both pre & post","RIGHT","RIGHT","j","1","true","","","",""
"","html-keyboard-response","163","388673","0.0-240.0","4f32gkws","1440","900","","","","","","","","","","","null","+","Fixation - short","","null","","","","","","","","","","","","","","","","",""
"","html-keyboard-response","164","389142","0.0-241.0","4f32gkws","","","","","","","","","","","","","468","hfs","Diagnostic trial","","j","","1","1","10","false","false","false","both pre & post","RIGHT","RIGHT","j","1","true","","","",""
"","html-keyboard-response","165","389894","0.0-244.0","4f32gkws","1440","900","","","","","","","","","","","null","+","Fixation - short","","null","","","","","","","","","","","","","","","","",""
"","html-keyboard-response","166","390410","0.0-245.0","4f32gkws","","","","","","","","","","","","","515","hfs","Diagnostic trial","","f","","1","2","10","false","false","true","both pre & post","RIGHT","LEFT","f","1","false","","","",""
"","html-keyboard-response","167","391163","0.0-248.0","4f32gkws","1440","900","","","","","","","","","","","null","+","Fixation - short","","null","","","","","","","","","","","","","","","","",""
"","html-keyboard-response","168","391758","0.0-249.0","4f32gkws","","","","","","","","","","","","","593","otr","Diagnostic trial","","f","","1","3","10","false","false","true","both pre & post","LEFT","LEFT","f","1","true","","","",""
"","html-keyboard-response","169","392510","0.0-252.0","4f32gkws","1440","900","","","","","","","","","","","null","+","Fixation - short","","null","","","","","","","","","","","","","","","","",""
"","html-keyboard-response","170","393126","0.0-253.0","4f32gkws","","","","","","","","","","","","","615","otr","Diagnostic trial","","f","","1","4","10","false","false","true","both pre & post","LEFT","LEFT","f","1","true","","","",""
"","html-keyboard-response","171","393880","0.0-256.0","4f32gkws","1440","900","","","","","","","","","","","null","+","Fixation - short","","null","","","","","","","","","","","","","","","","",""
"","html-keyboard-response","172","394655","0.0-257.0","4f32gkws","","","","","","","","","","","","","775","otr","Diagnostic trial","","f","","1","5","10","false","false","false","both pre & post","LEFT","RIGHT","j","0","false","","","",""
"","call-function","173","394656","0.0-259.0-0.0","4f32gkws","","","","","","","","","","","","","","","","","","","","","","","","","","","","","","","","","",""
"","html-keyboard-response","174","394958","0.0-259.0-1.0","4f32gkws","1440","900","","","","","","","","","","","null","Wrong","Feedback","","null","","","","","","","","","","","","","","","","",""
"","call-function","175","394959","0.0-259.0-2.0","4f32gkws","","","","","","","","","","","","","","","","","","","","","","","","","","","","","","","","","",""
"","html-keyboard-response","176","395712","0.0-260.0","4f32gkws","1440","900","","","","","","","","","","","null","+","Fixation - short","","null","","","","","","","","","","","","","","","","",""
"","html-keyboard-response","177","397075","0.0-261.0","4f32gkws","","","","","","","","","","","","","1362","hfs","Diagnostic trial","","f","","1","6","10","false","false","true","both pre & post","RIGHT","LEFT","f","1","false","","","",""
"","html-keyboard-response","178","397827","0.0-264.0","4f32gkws","1440","900","","","","","","","","","","","null","+","Fixation - short","","null","","","","","","","","","","","","","","","","",""
"","html-keyboard-response","179","399268","0.0-265.0","4f32gkws","","","","","","","","","","","","","1440","otr","Diagnostic trial","","j","","1","7","10","false","false","false","both pre & post","LEFT","RIGHT","j","1","false","","","",""
"","html-keyboard-response","180","400020","0.0-268.0","4f32gkws","1440","900","","","","","","","","","","","null","+","Fixation - short","","null","","","","","","","","","","","","","","","","",""
"","html-keyboard-response","181","400925","0.0-269.0","4f32gkws","","","","","","","","","","","","","904","hfs","Diagnostic trial","","f","","1","8","10","false","false","true","both pre & post","RIGHT","LEFT","f","1","false","","","",""
"","html-keyboard-response","182","401678","0.0-272.0","4f32gkws","1440","900","","","","","","","","","","","null","+","Fixation - short","","null","","","","","","","","","","","","","","","","",""
"","html-keyboard-response","183","402600","0.0-273.0","4f32gkws","","","","","","","","","","","","","921","otr","Diagnostic trial","","f","","1","9","10","false","false","true","both pre & post","LEFT","LEFT","f","1","true","","","",""
"","html-keyboard-response","184","403352","0.0-276.0","4f32gkws","1440","900","","","","","","","","","","","null","+","Fixation - short","","null","","","","","","","","","","","","","","","","",""
"","canvas-keyboard-response","185","404605","0.0-277.0","4f32gkws","","","","","","","","","","","","","null","Cue","Cue","","null","","1","9","","","false","","","","","","","","","","",""
"","html-keyboard-response","186","405358","0.0-278.0","4f32gkws","1440","900","","","","","","","","","","","null","+","Fixation - short","","null","","","","","","","","","","","","","","","","",""
"","html-keyboard-response","187","406373","0.0-279.0","4f32gkws","","","","","","","","","","","","","1014","hfs","Diagnostic trial","","j","","1","10","10","true","false","false","both pre & post","RIGHT","RIGHT","j","1","true","","","",""
"","html-keyboard-response","188","407125","0.0-282.0","4f32gkws","1440","900","","","","","","","","","","","null","+","Fixation - short","","null","","","","","","","","","","","","","","","","",""
"","html-keyboard-response","189","408019","0.0-283.0","4f32gkws","","","","","","","","","","","","","893","hfs","Diagnostic trial","","j","","1","11","10","true","false","false","both pre & post","RIGHT","RIGHT","j","1","true","","","",""
"","html-keyboard-response","190","408772","0.0-286.0","4f32gkws","1440","900","","","","","","","","","","","null","+","Fixation - short","","null","","","","","","","","","","","","","","","","",""
"","html-keyboard-response","191","409500","0.0-287.0","4f32gkws","","","","","","","","","","","","","727","hfs","Diagnostic trial","","j","","1","12","10","true","false","false","both pre & post","RIGHT","RIGHT","j","1","true","","","",""
"","html-keyboard-response","192","410252","0.0-290.0","4f32gkws","1440","900","","","","","","","","","","","null","+","Fixation - short","","null","","","","","","","","","","","","","","","","",""
"","html-keyboard-response","193","411596","0.0-291.0","4f32gkws","","","","","","","","","","","","","1343","hfs","Inducer trial","","j","","1","","","","true","","","","","j","1","","false","RIGHT","",""
"","html-keyboard-response","194","412349","0.0-294.0","4f32gkws","1440","900","","","","","","","","","","","null","+","Fixation - short","","null","","","","","","","","","","","","","","","","",""
"","html-keyboard-response","195","416087","0.0-295.0","4f32gkws","","","","","","","","","","","","","3736","If snx press LEFT | If faq press RIGHT","Inducer instructions",""," ","","2","","","","","","","","","","","","","","",""
"","html-keyboard-response","196","416840","0.0-296.0","4f32gkws","1440","900","","","","","","","","","","","null","+","Fixation - short","","null","","","","","","","","","","","","","","","","",""
"","html-keyboard-response","197","418058","0.0-297.0","4f32gkws","","","","","","","","","","","","","1217","faq","Diagnostic trial","","f","","2","0","7","false","false","true","both pre & post","RIGHT","LEFT","f","1","false","","","",""
"","html-keyboard-response","198","418811","0.0-300.0","4f32gkws","1440","900","","","","","","","","","","","null","+","Fixation - short","","null","","","","","","","","","","","","","","","","",""
"","html-keyboard-response","199","419483","0.0-301.0","4f32gkws","","","","","","","","","","","","","671","snx","Diagnostic trial","","j","","2","1","7","false","false","false","both pre & post","LEFT","RIGHT","j","1","false","","","",""
"","html-keyboard-response","200","420236","0.0-304.0","4f32gkws","1440","900","","","","","","","","","","","null","+","Fixation - short","","null","","","","","","","","","","","","","","","","",""
"","html-keyboard-response","201","420876","0.0-305.0","4f32gkws","","","","","","","","","","","","","639","faq","Diagnostic trial","","f","","2","2","7","false","false","true","both pre & post","RIGHT","LEFT","f","1","false","","","",""
"","html-keyboard-response","202","421628","0.0-308.0","4f32gkws","1440","900","","","","","","","","","","","null","+","Fixation - short","","null","","","","","","","","","","","","","","","","",""
"","html-keyboard-response","203","422132","0.0-309.0","4f32gkws","","","","","","","","","","","","","503","snx","Diagnostic trial","","f","","2","3","7","false","false","true","both pre & post","LEFT","LEFT","f","1","true","","","",""
"","html-keyboard-response","204","422884","0.0-312.0","4f32gkws","1440","900","","","","","","","","","","","null","+","Fixation - short","","null","","","","","","","","","","","","","","","","",""
"","html-keyboard-response","205","423801","0.0-313.0","4f32gkws","","","","","","","","","","","","","916","snx","Diagnostic trial","","j","","2","4","7","false","false","false","both pre & post","LEFT","RIGHT","j","1","false","","","",""
"","html-keyboard-response","206","424554","0.0-316.0","4f32gkws","1440","900","","","","","","","","","","","null","+","Fixation - short","","null","","","","","","","","","","","","","","","","",""
"","html-keyboard-response","207","425453","0.0-317.0","4f32gkws","","","","","","","","","","","","","898","snx","Diagnostic trial","","f","","2","5","7","false","false","true","both pre & post","LEFT","LEFT","f","1","true","","","",""
"","html-keyboard-response","208","426204","0.0-320.0","4f32gkws","1440","900","","","","","","","","","","","null","+","Fixation - short","","null","","","","","","","","","","","","","","","","",""
"","html-keyboard-response","209","427650","0.0-321.0","4f32gkws","","","","","","","","","","","","","1444","snx","Diagnostic trial","","j","","2","6","7","false","false","false","both pre & post","LEFT","RIGHT","j","1","false","","","",""
"","html-keyboard-response","210","428402","0.0-324.0","4f32gkws","1440","900","","","","","","","","","","","null","+","Fixation - short","","null","","","","","","","","","","","","","","","","",""
"","canvas-keyboard-response","211","429655","0.0-325.0","4f32gkws","","","","","","","","","","","","","null","Cue","Cue","","null","","2","6","","","false","","","","","","","","","","",""
"","html-keyboard-response","212","430407","0.0-326.0","4f32gkws","1440","900","","","","","","","","","","","null","+","Fixation - short","","null","","","","","","","","","","","","","","","","",""
"","html-keyboard-response","213","431440","0.0-327.0","4f32gkws","","","","","","","","","","","","","1032","snx","Diagnostic trial","","j","","2","7","7","true","false","false","both pre & post","LEFT","RIGHT","j","1","false","","","",""
"","html-keyboard-response","214","432193","0.0-330.0","4f32gkws","1440","900","","","","","","","","","","","null","+","Fixation - short","","null","","","","","","","","","","","","","","","","",""
"","html-keyboard-response","215","432995","0.0-331.0","4f32gkws","","","","","","","","","","","","","800","faq","Diagnostic trial","","f","","2","8","7","true","false","true","both pre & post","RIGHT","LEFT","f","1","false","","","",""
"","html-keyboard-response","216","433747","0.0-334.0","4f32gkws","1440","900","","","","","","","","","","","null","+","Fixation - short","","null","","","","","","","","","","","","","","","","",""
"","html-keyboard-response","217","434451","0.0-335.0","4f32gkws","","","","","","","","","","","","","703","snx","Diagnostic trial","","f","","2","9","7","true","false","true","both pre & post","LEFT","LEFT","f","1","true","","","",""
"","html-keyboard-response","218","435203","0.0-338.0","4f32gkws","1440","900","","","","","","","","","","","null","+","Fixation - short","","null","","","","","","","","","","","","","","","","",""
"","html-keyboard-response","219","435863","0.0-339.0","4f32gkws","","","","","","","","","","","","","659","snx","Diagnostic trial","","j","","2","10","7","true","false","false","both pre & post","LEFT","RIGHT","j","1","false","","","",""
"","html-keyboard-response","220","436616","0.0-342.0","4f32gkws","1440","900","","","","","","","","","","","null","+","Fixation - short","","null","","","","","","","","","","","","","","","","",""
"","html-keyboard-response","221","438054","0.0-343.0","4f32gkws","","","","","","","","","","","","","1437","faq","Inducer trial","","j","","2","","","","true","","","","","j","1","","false","RIGHT","",""
"","html-keyboard-response","222","438807","0.0-346.0","4f32gkws","1440","900","","","","","","","","","","","null","+","Fixation - short","","null","","","","","","","","","","","","","","","","",""
"","html-keyboard-response","223","445755","0.0-347.0","4f32gkws","","","","","","","","","","","","","6947","If ydi press LEFT | If epy press RIGHT","Inducer instructions",""," ","","3","","","","","","","","","","","","","","",""
"","html-keyboard-response","224","446507","0.0-348.0","4f32gkws","1440","900","","","","","","","","","","","null","+","Fixation - short","","null","","","","","","","","","","","","","","","","",""
"","html-keyboard-response","225","447626","0.0-349.0","4f32gkws","","","","","","","","","","","","","1118","ydi","Diagnostic trial","","j","","3","0","8","false","false","false","both pre & post","LEFT","RIGHT","j","1","false","","","",""
"","html-keyboard-response","226","448379","0.0-352.0","4f32gkws","1440","900","","","","","","","","","","","null","+","Fixation - short","","null","","","","","","","","","","","","","","","","",""
"","html-keyboard-response","227","449367","0.0-353.0","4f32gkws","","","","","","","","","","","","","987","ydi","Diagnostic trial","","f","","3","1","8","false","false","true","both pre & post","LEFT","LEFT","f","1","true","","","",""
"","html-keyboard-response","228","450120","0.0-356.0","4f32gkws","1440","900","","","","","","","","","","","null","+","Fixation - short","","null","","","","","","","","","","","","","","","","",""
"","html-keyboard-response","229","450914","0.0-357.0","4f32gkws","","","","","","","","","","","","","793","ydi","Diagnostic trial","","j","","3","2","8","false","false","false","both pre & post","LEFT","RIGHT","j","1","false","","","",""
"","html-keyboard-response","230","451666","0.0-360.0","4f32gkws","1440","900","","","","","","","","","","","null","+","Fixation - short","","null","","","","","","","","","","","","","","","","",""
"","html-keyboard-response","231","452457","0.0-361.0","4f32gkws","","","","","","","","","","","","","790","ydi","Diagnostic trial","","j","","3","3","8","false","false","false","both pre & post","LEFT","RIGHT","j","1","false","","","",""
"","html-keyboard-response","232","453209","0.0-364.0","4f32gkws","1440","900","","","","","","","","","","","null","+","Fixation - short","","null","","","","","","","","","","","","","","","","",""
"","html-keyboard-response","233","453861","0.0-365.0","4f32gkws","","","","","","","","","","","","","651","epy","Diagnostic trial","","j","","3","4","8","false","false","false","both pre & post","RIGHT","RIGHT","j","1","true","","","",""
"","html-keyboard-response","234","454614","0.0-368.0","4f32gkws","1440","900","","","","","","","","","","","null","+","Fixation - short","","null","","","","","","","","","","","","","","","","",""
"","html-keyboard-response","235","455416","0.0-369.0","4f32gkws","","","","","","","","","","","","","802","epy","Diagnostic trial","","f","","3","5","8","false","false","true","both pre & post","RIGHT","LEFT","f","1","false","","","",""
"","html-keyboard-response","236","456168","0.0-372.0","4f32gkws","1440","900","","","","","","","","","","","null","+","Fixation - short","","null","","","","","","","","","","","","","","","","",""
"","html-keyboard-response","237","457306","0.0-373.0","4f32gkws","","","","","","","","","","","","","1137","epy","Diagnostic trial","","f","","3","6","8","false","false","true","both pre & post","RIGHT","LEFT","f","1","false","","","",""
"","html-keyboard-response","238","458059","0.0-376.0","4f32gkws","1440","900","","","","","","","","","","","null","+","Fixation - short","","null","","","","","","","","","","","","","","","","",""
"","html-keyboard-response","239","458911","0.0-377.0","4f32gkws","","","","","","","","","","","","","851","ydi","Diagnostic trial","","j","","3","7","8","false","false","false","both pre & post","LEFT","RIGHT","j","1","false","","","",""
"","html-keyboard-response","240","459664","0.0-380.0","4f32gkws","1440","900","","","","","","","","","","","null","+","Fixation - short","","null","","","","","","","","","","","","","","","","",""
"","canvas-keyboard-response","241","460918","0.0-381.0","4f32gkws","","","","","","","","","","","","","null","Cue","Cue","","null","","3","7","","","false","","","","","","","","","","",""
"","html-keyboard-response","242","461669","0.0-382.0","4f32gkws","1440","900","","","","","","","","","","","null","+","Fixation - short","","null","","","","","","","","","","","","","","","","",""
"","html-keyboard-response","243","462617","0.0-383.0","4f32gkws","","","","","","","","","","","","","947","ydi","Diagnostic trial","","j","","3","8","8","true","false","false","both pre & post","LEFT","RIGHT","j","1","false","","","",""
"","html-keyboard-response","244","463369","0.0-386.0","4f32gkws","1440","900","","","","","","","","","","","null","+","Fixation - short","","null","","","","","","","","","","","","","","","","",""
"","html-keyboard-response","245","464045","0.0-387.0","4f32gkws","","","","","","","","","","","","","675","ydi","Diagnostic trial","","j","","3","9","8","true","false","false","both pre & post","LEFT","RIGHT","j","1","false","","","",""
"","html-keyboard-response","246","464797","0.0-390.0","4f32gkws","1440","900","","","","","","","","","","","null","+","Fixation - short","","null","","","","","","","","","","","","","","","","",""
"","html-keyboard-response","247","465487","0.0-391.0","4f32gkws","","","","","","","","","","","","","689","ydi","Diagnostic trial","","j","","3","10","8","true","false","false","both pre & post","LEFT","RIGHT","j","1","false","","","",""
"","html-keyboard-response","248","466239","0.0-394.0","4f32gkws","1440","900","","","","","","","","","","","null","+","Fixation - short","","null","","","","","","","","","","","","","","","","",""
"","html-keyboard-response","249","466948","0.0-395.0","4f32gkws","","","","","","","","","","","","","707","ydi","Diagnostic trial","","j","","3","11","8","true","false","false","both pre & post","LEFT","RIGHT","j","1","false","","","",""
"","html-keyboard-response","250","467701","0.0-398.0","4f32gkws","1440","900","","","","","","","","","","","null","+","Fixation - short","","null","","","","","","","","","","","","","","","","",""
"","html-keyboard-response","251","469066","0.0-399.0","4f32gkws","","","","","","","","","","","","","1364","epy","Inducer trial","","j","","3","","","","true","","","","","j","1","","false","RIGHT","",""
"","html-keyboard-response","252","469818","0.0-402.0","4f32gkws","1440","900","","","","","","","","","","","null","+","Fixation - short","","null","","","","","","","","","","","","","","","","",""
"","html-keyboard-response","253","472363","0.0-403.0","4f32gkws","","","","","","","","","","","","","2544","If ume press LEFT | If vnn press RIGHT","Inducer instructions",""," ","","4","","","","","","","","","","","","","","",""
"","html-keyboard-response","254","473115","0.0-404.0","4f32gkws","1440","900","","","","","","","","","","","null","+","Fixation - short","","null","","","","","","","","","","","","","","","","",""
"","html-keyboard-response","255","474490","0.0-405.0","4f32gkws","","","","","","","","","","","","","1374","vnn","Diagnostic trial","","j","","4","0","6","false","false","false","both pre & post","RIGHT","RIGHT","j","1","true","","","",""
"","html-keyboard-response","256","475243","0.0-408.0","4f32gkws","1440","900","","","","","","","","","","","null","+","Fixation - short","","null","","","","","","","","","","","","","","","","",""
"","html-keyboard-response","257","475845","0.0-409.0","4f32gkws","","","","","","","","","","","","","601","vnn","Diagnostic trial","","j","","4","1","6","false","false","false","both pre & post","RIGHT","RIGHT","j","1","true","","","",""
"","html-keyboard-response","258","476598","0.0-412.0","4f32gkws","1440","900","","","","","","","","","","","null","+","Fixation - short","","null","","","","","","","","","","","","","","","","",""
"","html-keyboard-response","259","477047","0.0-413.0","4f32gkws","","","","","","","","","","","","","448","vnn","Diagnostic trial","","j","","4","2","6","false","false","false","both pre & post","RIGHT","RIGHT","j","1","true","","","",""
"","html-keyboard-response","260","477800","0.0-416.0","4f32gkws","1440","900","","","","","","","","","","","null","+","Fixation - short","","null","","","","","","","","","","","","","","","","",""
"","html-keyboard-response","261","478573","0.0-417.0","4f32gkws","","","","","","","","","","","","","772","ume","Diagnostic trial","","j","","4","3","6","false","false","false","both pre & post","LEFT","RIGHT","j","1","false","","","",""
"","html-keyboard-response","262","479326","0.0-420.0","4f32gkws","1440","900","","","","","","","","","","","null","+","Fixation - short","","null","","","","","","","","","","","","","","","","",""
"","html-keyboard-response","263","479955","0.0-421.0","4f32gkws","","","","","","","","","","","","","627","vnn","Diagnostic trial","","j","","4","4","6","false","false","false","both pre & post","RIGHT","RIGHT","j","1","true","","","",""
"","html-keyboard-response","264","480708","0.0-424.0","4f32gkws","1440","900","","","","","","","","","","","null","+","Fixation - short","","null","","","","","","","","","","","","","","","","",""
"","html-keyboard-response","265","481547","0.0-425.0","4f32gkws","","","","","","","","","","","","","838","vnn","Diagnostic trial","","f","","4","5","6","false","false","true","both pre & post","RIGHT","LEFT","f","1","false","","","",""
"","html-keyboard-response","266","482300","0.0-428.0","4f32gkws","1440","900","","","","","","","","","","","null","+","Fixation - short","","null","","","","","","","","","","","","","","","","",""
"","canvas-keyboard-response","267","483554","0.0-429.0","4f32gkws","","","","","","","","","","","","","null","Cue","Cue","","null","","4","5","","","false","","","","","","","","","","",""
"","html-keyboard-response","268","484306","0.0-430.0","4f32gkws","1440","900","","","","","","","","","","","null","+","Fixation - short","","null","","","","","","","","","","","","","","","","",""
"","html-keyboard-response","269","485142","0.0-431.0","4f32gkws","","","","","","","","","","","","","835","vnn","Diagnostic trial","","f","","4","6","6","true","false","true","both pre & post","RIGHT","LEFT","f","1","false","","","",""
"","html-keyboard-response","270","485894","0.0-434.0","4f32gkws","1440","900","","","","","","","","","","","null","+","Fixation - short","","null","","","","","","","","","","","","","","","","",""
"","html-keyboard-response","271","486523","0.0-435.0","4f32gkws","","","","","","","","","","","","","627","ume","Diagnostic trial","","j","","4","7","6","true","false","false","both pre & post","LEFT","RIGHT","j","1","false","","","",""
"","html-keyboard-response","272","487276","0.0-438.0","4f32gkws","1440","900","","","","","","","","","","","null","+","Fixation - short","","null","","","","","","","","","","","","","","","","",""
"","html-keyboard-response","273","487881","0.0-439.0","4f32gkws","","","","","","","","","","","","","604","vnn","Diagnostic trial","","j","","4","8","6","true","false","false","both pre & post","RIGHT","RIGHT","j","1","true","","","",""
"","html-keyboard-response","274","488634","0.0-442.0","4f32gkws","1440","900","","","","","","","","","","","null","+","Fixation - short","","null","","","","","","","","","","","","","","","","",""
"","html-keyboard-response","275","489291","0.0-443.0","4f32gkws","","","","","","","","","","","","","656","vnn","Diagnostic trial","","f","","4","9","6","true","false","true","both pre & post","RIGHT","LEFT","f","1","false","","","",""
"","html-keyboard-response","276","490044","0.0-446.0","4f32gkws","1440","900","","","","","","","","","","","null","+","Fixation - short","","null","","","","","","","","","","","","","","","","",""
"","html-keyboard-response","277","491218","0.0-447.0","4f32gkws","","","","","","","","","","","","","1173","ume","Inducer trial","","j","","4","","","","true","","","","","f","0","","false","LEFT","",""
"","call-function","278","491218","0.0-449.0-0.0","4f32gkws","","","","","","","","","","","","","","","","","","","","","","","","","","","","","","","","","",""
"","html-keyboard-response","279","491520","0.0-449.0-1.0","4f32gkws","1440","900","","","","","","","","","","","null","Wrong","Feedback","","null","","","","","","","","","","","","","","","","",""
"","call-function","280","491521","0.0-449.0-2.0","4f32gkws","","","","","","","","","","","","","","","","","","","","","","","","","","","","","","","","","",""
"","html-keyboard-response","281","492273","0.0-450.0","4f32gkws","1440","900","","","","","","","","","","","null","+","Fixation - short","","null","","","","","","","","","","","","","","","","",""
"","html-keyboard-response","282","496235","0.0-451.0","4f32gkws","","","","","","","","","","","","","3960","If tkb press LEFT | If ois press RIGHT","Inducer instructions",""," ","","5","","","","","","","","","","","","","","",""
"","html-keyboard-response","283","496987","0.0-452.0","4f32gkws","1440","900","","","","","","","","","","","null","+","Fixation - short","","null","","","","","","","","","","","","","","","","",""
"","html-keyboard-response","284","497836","0.0-453.0","4f32gkws","","","","","","","","","","","","","848","ois","Diagnostic trial","","f","","5","0","6","false","false","true","both pre & post","RIGHT","LEFT","f","1","false","","","",""
"","html-keyboard-response","285","498589","0.0-456.0","4f32gkws","1440","900","","","","","","","","","","","null","+","Fixation - short","","null","","","","","","","","","","","","","","","","",""
"","html-keyboard-response","286","499541","0.0-457.0","4f32gkws","","","","","","","","","","","","","951","tkb","Diagnostic trial","","j","","5","1","6","false","false","false","both pre & post","LEFT","RIGHT","j","1","false","","","",""
"","html-keyboard-response","287","500294","0.0-460.0","4f32gkws","1440","900","","","","","","","","","","","null","+","Fixation - short","","null","","","","","","","","","","","","","","","","",""
"","html-keyboard-response","288","500944","0.0-461.0","4f32gkws","","","","","","","","","","","","","649","ois","Diagnostic trial","","j","","5","2","6","false","false","false","both pre & post","RIGHT","RIGHT","j","1","true","","","",""
"","html-keyboard-response","289","501697","0.0-464.0","4f32gkws","1440","900","","","","","","","","","","","null","+","Fixation - short","","null","","","","","","","","","","","","","","","","",""
"","html-keyboard-response","290","502324","0.0-465.0","4f32gkws","","","","","","","","","","","","","626","tkb","Diagnostic trial","","f","","5","3","6","false","false","true","both pre & post","LEFT","LEFT","f","1","true","","","",""
"","html-keyboard-response","291","503077","0.0-468.0","4f32gkws","1440","900","","","","","","","","","","","null","+","Fixation - short","","null","","","","","","","","","","","","","","","","",""
"","html-keyboard-response","292","503802","0.0-469.0","4f32gkws","","","","","","","","","","","","","724","tkb","Diagnostic trial","","j","","5","4","6","false","false","false","both pre & post","LEFT","RIGHT","j","1","false","","","",""
"","html-keyboard-response","293","504555","0.0-472.0","4f32gkws","1440","900","","","","","","","","","","","null","+","Fixation - short","","null","","","","","","","","","","","","","","","","",""
"","html-keyboard-response","294","505428","0.0-473.0","4f32gkws","","","","","","","","","","","","","872","ois","Diagnostic trial","","j","","5","5","6","false","false","false","both pre & post","RIGHT","RIGHT","j","1","true","","","",""
"","html-keyboard-response","295","506181","0.0-476.0","4f32gkws","1440","900","","","","","","","","","","","null","+","Fixation - short","","null","","","","","","","","","","","","","","","","",""
"","canvas-keyboard-response","296","507435","0.0-477.0","4f32gkws","","","","","","","","","","","","","null","Cue","Cue","","null","","5","5","","","false","","","","","","","","","","",""
"","html-keyboard-response","297","508187","0.0-478.0","4f32gkws","1440","900","","","","","","","","","","","null","+","Fixation - short","","null","","","","","","","","","","","","","","","","",""
"","html-keyboard-response","298","509043","0.0-479.0","4f32gkws","","","","","","","","","","","","","855","ois","Diagnostic trial","","j","","5","6","6","true","false","false","both pre & post","RIGHT","RIGHT","j","1","true","","","",""
"","html-keyboard-response","299","509796","0.0-482.0","4f32gkws","1440","900","","","","","","","","","","","null","+","Fixation - short","","null","","","","","","","","","","","","","","","","",""
"","html-keyboard-response","300","510592","0.0-483.0","4f32gkws","","","","","","","","","","","","","795","ois","Diagnostic trial","","f","","5","7","6","true","false","true","both pre & post","RIGHT","LEFT","f","1","false","","","",""
"","html-keyboard-response","301","511344","0.0-486.0","4f32gkws","1440","900","","","","","","","","","","","null","+","Fixation - short","","null","","","","","","","","","","","","","","","","",""
"","html-keyboard-response","302","513347","0.0-487.0","4f32gkws","","","","","","","","","","","","","null","tkb","Diagnostic trial","","null","","5","8","6","true","false","true","both pre & post","LEFT","LEFT","f","NaN","true","","","",""
"","call-function","303","513348","0.0-488.0-0.0","4f32gkws","","","","","","","","","","","","","","","","","","","","","","","","","","","","","","","","","",""
"","html-keyboard-response","304","513652","0.0-488.0-1.0","4f32gkws","1440","900","","","","","","","","","","","null","Slow","Feedback","","null","","","","","","","","","","","","","","","","",""
"","call-function","305","513652","0.0-488.0-2.0","4f32gkws","","","","","","","","","","","","","","","","","","","","","","","","","","","","","","","","","",""
"","html-keyboard-response","306","514404","0.0-490.0","4f32gkws","1440","900","","","","","","","","","","","null","+","Fixation - short","","null","","","","","","","","","","","","","","","","",""
"","html-keyboard-response","307","515306","0.0-491.0","4f32gkws","","","","","","","","","","","","","901","tkb","Inducer trial","","f","","5","","","","true","","","","","f","1","","false","LEFT","",""
"","html-keyboard-response","308","516059","0.0-494.0","4f32gkws","1440","900","","","","","","","","","","","null","+","Fixation - short","","null","","","","","","","","","","","","","","","","",""
"","html-keyboard-response","309","518345","0.0-495.0","4f32gkws","","","","","","","","","","","","","2285","If mik press LEFT | If uus press RIGHT","Inducer instructions",""," ","","6","","","","","","","","","","","","","","",""
"","html-keyboard-response","310","519096","0.0-496.0","4f32gkws","1440","900","","","","","","","","","","","null","+","Fixation - short","","null","","","","","","","","","","","","","","","","",""
"","html-keyboard-response","311","519959","0.0-497.0","4f32gkws","","","","","","","","","","","","","862","uus","Diagnostic trial","","j","","6","0","8","false","false","false","both pre & post","RIGHT","RIGHT","j","1","true","","","",""
"","html-keyboard-response","312","520712","0.0-500.0","4f32gkws","1440","900","","","","","","","","","","","null","+","Fixation - short","","null","","","","","","","","","","","","","","","","",""
"","html-keyboard-response","313","521407","0.0-501.0","4f32gkws","","","","","","","","","","","","","695","mik","Diagnostic trial","","f","","6","1","8","false","false","true","both pre & post","LEFT","LEFT","f","1","true","","","",""
"","html-keyboard-response","314","522160","0.0-504.0","4f32gkws","1440","900","","","","","","","","","","","null","+","Fixation - short","","null","","","","","","","","","","","","","","","","",""
"","html-keyboard-response","315","522979","0.0-505.0","4f32gkws","","","","","","","","","","","","","818","mik","Diagnostic trial","","f","","6","2","8","false","false","true","both pre & post","LEFT","LEFT","f","1","true","","","",""
"","html-keyboard-response","316","523732","0.0-508.0","4f32gkws","1440","900","","","","","","","","","","","null","+","Fixation - short","","null","","","","","","","","","","","","","","","","",""
"","html-keyboard-response","317","524329","0.0-509.0","4f32gkws","","","","","","","","","","","","","596","uus","Diagnostic trial","","j","","6","3","8","false","false","false","both pre & post","RIGHT","RIGHT","j","1","true","","","",""
"","html-keyboard-response","318","525081","0.0-512.0","4f32gkws","1440","900","","","","","","","","","","","null","+","Fixation - short","","null","","","","","","","","","","","","","","","","",""
"","html-keyboard-response","319","525852","0.0-513.0","4f32gkws","","","","","","","","","","","","","769","mik","Diagnostic trial","","j","","6","4","8","false","false","false","both pre & post","LEFT","RIGHT","j","1","false","","","",""
"","html-keyboard-response","320","526605","0.0-516.0","4f32gkws","1440","900","","","","","","","","","","","null","+","Fixation - short","","null","","","","","","","","","","","","","","","","",""
"","html-keyboard-response","321","527156","0.0-517.0","4f32gkws","","","","","","","","","","","","","550","uus","Diagnostic trial","","j","","6","5","8","false","false","false","both pre & post","RIGHT","RIGHT","j","1","true","","","",""
"","html-keyboard-response","322","527909","0.0-520.0","4f32gkws","1440","900","","","","","","","","","","","null","+","Fixation - short","","null","","","","","","","","","","","","","","","","",""
"","html-keyboard-response","323","528545","0.0-521.0","4f32gkws","","","","","","","","","","","","","635","mik","Diagnostic trial","","f","","6","6","8","false","false","true","both pre & post","LEFT","LEFT","f","1","true","","","",""
"","html-keyboard-response","324","529297","0.0-524.0","4f32gkws","1440","900","","","","","","","","","","","null","+","Fixation - short","","null","","","","","","","","","","","","","","","","",""
"","html-keyboard-response","325","529939","0.0-525.0","4f32gkws","","","","","","","","","","","","","641","uus","Diagnostic trial","","j","","6","7","8","false","false","false","both pre & post","RIGHT","RIGHT","j","1","true","","","",""
"","html-keyboard-response","326","530692","0.0-528.0","4f32gkws","1440","900","","","","","","","","","","","null","+","Fixation - short","","null","","","","","","","","","","","","","","","","",""
"","canvas-keyboard-response","327","531945","0.0-529.0","4f32gkws","","","","","","","","","","","","","null","Cue","Cue","","null","","6","7","","","false","","","","","","","","","","",""
"","html-keyboard-response","328","532698","0.0-530.0","4f32gkws","1440","900","","","","","","","","","","","null","+","Fixation - short","","null","","","","","","","","","","","","","","","","",""
"","html-keyboard-response","329","533486","0.0-531.0","4f32gkws","","","","","","","","","","","","","788","uus","Diagnostic trial","","j","","6","8","8","true","false","false","both pre & post","RIGHT","RIGHT","j","1","true","","","",""
"","html-keyboard-response","330","534238","0.0-534.0","4f32gkws","1440","900","","","","","","","","","","","null","+","Fixation - short","","null","","","","","","","","","","","","","","","","",""
"","html-keyboard-response","331","534761","0.0-535.0","4f32gkws","","","","","","","","","","","","","522","uus","Diagnostic trial","","j","","6","9","8","true","false","false","both pre & post","RIGHT","RIGHT","j","1","true","","","",""
"","html-keyboard-response","332","535514","0.0-538.0","4f32gkws","1440","900","","","","","","","","","","","null","+","Fixation - short","","null","","","","","","","","","","","","","","","","",""
"","html-keyboard-response","333","536330","0.0-539.0","4f32gkws","","","","","","","","","","","","","815","mik","Diagnostic trial","","f","","6","10","8","true","false","true","both pre & post","LEFT","LEFT","f","1","true","","","",""
"","html-keyboard-response","334","537083","0.0-542.0","4f32gkws","1440","900","","","","","","","","","","","null","+","Fixation - short","","null","","","","","","","","","","","","","","","","",""
"","html-keyboard-response","335","538322","0.0-543.0","4f32gkws","","","","","","","","","","","","","1238","mik","Diagnostic trial","","j","","6","11","8","true","false","false","both pre & post","LEFT","RIGHT","j","1","false","","","",""
"","html-keyboard-response","336","539073","0.0-546.0","4f32gkws","1440","900","","","","","","","","","","","null","+","Fixation - short","","null","","","","","","","","","","","","","","","","",""
"","html-keyboard-response","337","540086","0.0-547.0","4f32gkws","","","","","","","","","","","","","1013","uus","Inducer trial","","j","","6","","","","true","","","","","j","1","","false","RIGHT","",""
"","html-keyboard-response","338","540839","0.0-550.0","4f32gkws","1440","900","","","","","","","","","","","null","+","Fixation - short","","null","","","","","","","","","","","","","","","","",""
"","html-keyboard-response","339","553028","0.0-551.0","4f32gkws","","","","","","","","","","","","","12188","If sjn press LEFT | If wrz press RIGHT","Inducer instructions",""," ","","7","","","","","","","","","","","","","","",""
"","html-keyboard-response","340","553779","0.0-552.0","4f32gkws","1440","900","","","","","","","","","","","null","+","Fixation - short","","null","","","","","","","","","","","","","","","","",""
"","html-keyboard-response","341","554887","0.0-553.0","4f32gkws","","","","","","","","","","","","","1107","wrz","Diagnostic trial","","f","","7","0","11","false","false","true","both pre & post","RIGHT","LEFT","f","1","false","","","",""
"","html-keyboard-response","342","555640","0.0-556.0","4f32gkws","1440","900","","","","","","","","","","","null","+","Fixation - short","","null","","","","","","","","","","","","","","","","",""
"","html-keyboard-response","343","556247","0.0-557.0","4f32gkws","","","","","","","","","","","","","607","wrz","Diagnostic trial","","f","","7","1","11","false","false","true","both pre & post","RIGHT","LEFT","f","1","false","","","",""
"","html-keyboard-response","344","557000","0.0-560.0","4f32gkws","1440","900","","","","","","","","","","","null","+","Fixation - short","","null","","","","","","","","","","","","","","","","",""
"","html-keyboard-response","345","557553","0.0-561.0","4f32gkws","","","","","","","","","","","","","551","sjn","Diagnostic trial","","f","","7","2","11","false","false","true","both pre & post","LEFT","LEFT","f","1","true","","","",""
"","html-keyboard-response","346","558306","0.0-564.0","4f32gkws","1440","900","","","","","","","","","","","null","+","Fixation - short","","null","","","","","","","","","","","","","","","","",""
"","html-keyboard-response","347","559016","0.0-565.0","4f32gkws","","","","","","","","","","","","","709","wrz","Diagnostic trial","","j","","7","3","11","false","false","false","both pre & post","RIGHT","RIGHT","j","1","true","","","",""
"","html-keyboard-response","348","559769","0.0-568.0","4f32gkws","1440","900","","","","","","","","","","","null","+","Fixation - short","","null","","","","","","","","","","","","","","","","",""
"","html-keyboard-response","349","560767","0.0-569.0","4f32gkws","","","","","","","","","","","","","997","sjn","Diagnostic trial","","f","","7","4","11","false","false","true","both pre & post","LEFT","LEFT","f","1","true","","","",""
"","html-keyboard-response","350","561520","0.0-572.0","4f32gkws","1440","900","","","","","","","","","","","null","+","Fixation - short","","null","","","","","","","","","","","","","","","","",""
"","html-keyboard-response","351","562086","0.0-573.0","4f32gkws","","","","","","","","","","","","","566","sjn","Diagnostic trial","","j","","7","5","11","false","false","false","both pre & post","LEFT","RIGHT","j","1","false","","","",""
"","html-keyboard-response","352","562839","0.0-576.0","4f32gkws","1440","900","","","","","","","","","","","null","+","Fixation - short","","null","","","","","","","","","","","","","","","","",""
"","html-keyboard-response","353","563440","0.0-577.0","4f32gkws","","","","","","","","","","","","","599","wrz","Diagnostic trial","","j","","7","6","11","false","false","false","both pre & post","RIGHT","RIGHT","j","1","true","","","",""
"","html-keyboard-response","354","564191","0.0-580.0","4f32gkws","1440","900","","","","","","","","","","","null","+","Fixation - short","","null","","","","","","","","","","","","","","","","",""
"","html-keyboard-response","355","564635","0.0-581.0","4f32gkws","","","","","","","","","","","","","443","sjn","Diagnostic trial","","j","","7","7","11","false","false","false","both pre & post","LEFT","RIGHT","j","1","false","","","",""
"","html-keyboard-response","356","565388","0.0-584.0","4f32gkws","1440","900","","","","","","","","","","","null","+","Fixation - short","","null","","","","","","","","","","","","","","","","",""
"","html-keyboard-response","357","566432","0.0-585.0","4f32gkws","","","","","","","","","","","","","1043","sjn","Diagnostic trial","","f","","7","8","11","false","false","true","both pre & post","LEFT","LEFT","f","1","true","","","",""
"","html-keyboard-response","358","567185","0.0-588.0","4f32gkws","1440","900","","","","","","","","","","","null","+","Fixation - short","","null","","","","","","","","","","","","","","","","",""
"","html-keyboard-response","359","567790","0.0-589.0","4f32gkws","","","","","","","","","","","","","604","wrz","Diagnostic trial","","j","","7","9","11","false","false","false","both pre & post","RIGHT","RIGHT","j","1","true","","","",""
"","html-keyboard-response","360","568542","0.0-592.0","4f32gkws","1440","900","","","","","","","","","","","null","+","Fixation - short","","null","","","","","","","","","","","","","","","","",""
"","html-keyboard-response","361","569461","0.0-593.0","4f32gkws","","","","","","","","","","","","","918","sjn","Diagnostic trial","","f","","7","10","11","false","false","true","both pre & post","LEFT","LEFT","f","1","true","","","",""
"","html-keyboard-response","362","570213","0.0-596.0","4f32gkws","1440","900","","","","","","","","","","","null","+","Fixation - short","","null","","","","","","","","","","","","","","","","",""
"","canvas-keyboard-response","363","571466","0.0-597.0","4f32gkws","","","","","","","","","","","","","null","Cue","Cue","","null","","7","10","","","false","","","","","","","","","","",""
"","html-keyboard-response","364","572219","0.0-598.0","4f32gkws","1440","900","","","","","","","","","","","null","+","Fixation - short","","null","","","","","","","","","","","","","","","","",""
"","html-keyboard-response","365","573180","0.0-599.0","4f32gkws","","","","","","","","","","","","","961","sjn","Diagnostic trial","","j","","7","11","11","true","false","false","both pre & post","LEFT","RIGHT","j","1","false","","","",""
"","html-keyboard-response","366","573932","0.0-602.0","4f32gkws","1440","900","","","","","","","","","","","null","+","Fixation - short","","null","","","","","","","","","","","","","","","","",""
"","html-keyboard-response","367","575740","0.0-603.0","4f32gkws","","","","","","","","","","","","","1808","wrz","Inducer trial","","j","","7","","","","true","","","","","j","1","","false","RIGHT","",""
"","html-keyboard-response","368","576493","0.0-606.0","4f32gkws","1440","900","","","","","","","","","","","null","+","Fixation - short","","null","","","","","","","","","","","","","","","","",""
"","html-keyboard-response","369","596496","0.0-607.0","4f32gkws","","","","","","","","","","","","","null","If ebe press LEFT | If wab press RIGHT","Inducer instructions","","null","","8","","","","","","","","","","","","","","",""
"","html-keyboard-response","370","597248","0.0-608.0","4f32gkws","1440","900","","","","","","","","","","","null","+","Fixation - short","","null","","","","","","","","","","","","","","","","",""
"","html-keyboard-response","371","598335","0.0-609.0","4f32gkws","","","","","","","","","","","","","1086","wab","Diagnostic trial","","j","","8","0","4","false","false","true","both pre & post","RIGHT","LEFT","f","0","false","","","",""
"","call-function","372","598336","0.0-611.0-0.0","4f32gkws","","","","","","","","","","","","","","","","","","","","","","","","","","","","","","","","","",""
"","html-keyboard-response","373","598639","0.0-611.0-1.0","4f32gkws","1440","900","","","","","","","","","","","null","Wrong","Feedback","","null","","","","","","","","","","","","","","","","",""
"","call-function","374","598639","0.0-611.0-2.0","4f32gkws","","","","","","","","","","","","","","","","","","","","","","","","","","","","","","","","","",""
"","html-keyboard-response","375","599391","0.0-612.0","4f32gkws","1440","900","","","","","","","","","","","null","+","Fixation - short","","null","","","","","","","","","","","","","","","","",""
"","html-keyboard-response","376","600108","0.0-613.0","4f32gkws","","","","","","","","","","","","","716","ebe","Diagnostic trial","","f","","8","1","4","false","false","false","both pre & post","LEFT","RIGHT","j","0","false","","","",""
"","call-function","377","600109","0.0-615.0-0.0","4f32gkws","","","","","","","","","","","","","","","","","","","","","","","","","","","","","","","","","",""
"","html-keyboard-response","378","600411","0.0-615.0-1.0","4f32gkws","1440","900","","","","","","","","","","","null","Wrong","Feedback","","null","","","","","","","","","","","","","","","","",""
"","call-function","379","600412","0.0-615.0-2.0","4f32gkws","","","","","","","","","","","","","","","","","","","","","","","","","","","","","","","","","",""
"","html-keyboard-response","380","601164","0.0-616.0","4f32gkws","1440","900","","","","","","","","","","","null","+","Fixation - short","","null","","","","","","","","","","","","","","","","",""
"","html-keyboard-response","381","601872","0.0-617.0","4f32gkws","","","","","","","","","","","","","707","wab","Diagnostic trial","","j","","8","2","4","false","false","false","both pre & post","RIGHT","RIGHT","j","1","true","","","",""
"","html-keyboard-response","382","602625","0.0-620.0","4f32gkws","1440","900","","","","","","","","","","","null","+","Fixation - short","","null","","","","","","","","","","","","","","","","",""
"","html-keyboard-response","383","603091","0.0-621.0","4f32gkws","","","","","","","","","","","","","465","wab","Diagnostic trial","","j","","8","3","4","false","false","false","both pre & post","RIGHT","RIGHT","j","1","true","","","",""
"","html-keyboard-response","384","603844","0.0-624.0","4f32gkws","1440","900","","","","","","","","","","","null","+","Fixation - short","","null","","","","","","","","","","","","","","","","",""
"","canvas-keyboard-response","385","605097","0.0-625.0","4f32gkws","","","","","","","","","","","","","null","Cue","Cue","","null","","8","3","","","false","","","","","","","","","","",""
"","html-keyboard-response","386","605850","0.0-626.0","4f32gkws","1440","900","","","","","","","","","","","null","+","Fixation - short","","null","","","","","","","","","","","","","","","","",""
"","html-keyboard-response","387","606652","0.0-627.0","4f32gkws","","","","","","","","","","","","","801","ebe","Diagnostic trial","","f","","8","4","4","true","false","true","both pre & post","LEFT","LEFT","f","1","true","","","",""
"","html-keyboard-response","388","607404","0.0-630.0","4f32gkws","1440","900","","","","","","","","","","","null","+","Fixation - short","","null","","","","","","","","","","","","","","","","",""
"","html-keyboard-response","389","608448","0.0-631.0","4f32gkws","","","","","","","","","","","","","1043","wab","Diagnostic trial","","j","","8","5","4","true","false","false","both pre & post","RIGHT","RIGHT","j","1","true","","","",""
"","html-keyboard-response","390","609199","0.0-634.0","4f32gkws","1440","900","","","","","","","","","","","null","+","Fixation - short","","null","","","","","","","","","","","","","","","","",""
"","html-keyboard-response","391","610857","0.0-635.0","4f32gkws","","","","","","","","","","","","","1657","wab","Inducer trial","","j","","8","","","","true","","","","","j","1","","false","RIGHT","",""
"","html-keyboard-response","392","611610","0.0-638.0","4f32gkws","1440","900","","","","","","","","","","","null","+","Fixation - short","","null","","","","","","","","","","","","","","","","",""
"","html-keyboard-response","393","614106","0.0-639.0","4f32gkws","","","","","","","","","","","","","2495","If gso press LEFT | If chy press RIGHT","Inducer instructions",""," ","","9","","","","","","","","","","","","","","",""
"","html-keyboard-response","394","614858","0.0-640.0","4f32gkws","1440","900","","","","","","","","","","","null","+","Fixation - short","","null","","","","","","","","","","","","","","","","",""
"","html-keyboard-response","395","615862","0.0-641.0","4f32gkws","","","","","","","","","","","","","1002","gso","Diagnostic trial","","f","","9","0","4","false","false","true","both pre & post","LEFT","LEFT","f","1","true","","","",""
"","html-keyboard-response","396","616614","0.0-644.0","4f32gkws","1440","900","","","","","","","","","","","null","+","Fixation - short","","null","","","","","","","","","","","","","","","","",""
"","html-keyboard-response","397","617306","0.0-645.0","4f32gkws","","","","","","","","","","","","","691","chy","Diagnostic trial","","f","","9","1","4","false","false","true","both pre & post","RIGHT","LEFT","f","1","false","","","",""
"","html-keyboard-response","398","618059","0.0-648.0","4f32gkws","1440","900","","","","","","","","","","","null","+","Fixation - short","","null","","","","","","","","","","","","","","","","",""
"","html-keyboard-response","399","619365","0.0-649.0","4f32gkws","","","","","","","","","","","","","1306","chy","Diagnostic trial","","j","","9","2","4","false","false","false","both pre & post","RIGHT","RIGHT","j","1","true","","","",""
"","html-keyboard-response","400","620116","0.0-652.0","4f32gkws","1440","900","","","","","","","","","","","null","+","Fixation - short","","null","","","","","","","","","","","","","","","","",""
"","html-keyboard-response","401","621763","0.0-653.0","4f32gkws","","","","","","","","","","","","","1646","chy","Diagnostic trial","","f","","9","3","4","false","false","false","both pre & post","RIGHT","RIGHT","j","0","true","","","",""
"","call-function","402","621764","0.0-655.0-0.0","4f32gkws","","","","","","","","","","","","","","","","","","","","","","","","","","","","","","","","","",""
"","html-keyboard-response","403","622067","0.0-655.0-1.0","4f32gkws","1440","900","","","","","","","","","","","null","Wrong","Feedback","","null","","","","","","","","","","","","","","","","",""
"","call-function","404","622067","0.0-655.0-2.0","4f32gkws","","","","","","","","","","","","","","","","","","","","","","","","","","","","","","","","","",""
"","html-keyboard-response","405","622819","0.0-656.0","4f32gkws","1440","900","","","","","","","","","","","null","+","Fixation - short","","null","","","","","","","","","","","","","","","","",""
"","canvas-keyboard-response","406","624071","0.0-657.0","4f32gkws","","","","","","","","","","","","","null","Cue","Cue","","null","","9","3","","","false","","","","","","","","","","",""
"","html-keyboard-response","407","624823","0.0-658.0","4f32gkws","1440","900","","","","","","","","","","","null","+","Fixation - short","","null","","","","","","","","","","","","","","","","",""
"","html-keyboard-response","408","625919","0.0-659.0","4f32gkws","","","","","","","","","","","","","1095","chy","Diagnostic trial","","j","","9","4","4","true","false","false","both pre & post","RIGHT","RIGHT","j","1","true","","","",""
"","html-keyboard-response","409","626671","0.0-662.0","4f32gkws","1440","900","","","","","","","","","","","null","+","Fixation - short","","null","","","","","","","","","","","","","","","","",""
"","html-keyboard-response","410","627423","0.0-663.0","4f32gkws","","","","","","","","","","","","","751","chy","Diagnostic trial","","f","","9","5","4","true","false","true","both pre & post","RIGHT","LEFT","f","1","false","","","",""
"","html-keyboard-response","411","628175","0.0-666.0","4f32gkws","1440","900","","","","","","","","","","","null","+","Fixation - short","","null","","","","","","","","","","","","","","","","",""
"","html-keyboard-response","412","629677","0.0-667.0","4f32gkws","","","","","","","","","","","","","1500","gso","Diagnostic trial","","f","","9","6","4","true","false","true","both pre & post","LEFT","LEFT","f","1","true","","","",""
"","html-keyboard-response","413","630429","0.0-670.0","4f32gkws","1440","900","","","","","","","","","","","null","+","Fixation - short","","null","","","","","","","","","","","","","","","","",""
"","html-keyboard-response","414","630939","0.0-671.0","4f32gkws","","","","","","","","","","","","","508","gso","Diagnostic trial","","f","","9","7","4","true","false","true","both pre & post","LEFT","LEFT","f","1","true","","","",""
"","html-keyboard-response","415","631691","0.0-674.0","4f32gkws","1440","900","","","","","","","","","","","null","+","Fixation - short","","null","","","","","","","","","","","","","","","","",""
"","html-keyboard-response","416","632199","0.0-675.0","4f32gkws","","","","","","","","","","","","","507","gso","Inducer trial","","f","","9","","","","true","","","","","f","1","","false","LEFT","",""
"","html-keyboard-response","417","632951","0.0-678.0","4f32gkws","1440","900","","","","","","","","","","","null","+","Fixation - short","","null","","","","","","","","","","","","","","","","",""
"","html-keyboard-response","418","639253","0.0-679.0","4f32gkws","","","","","","","","","","","","","6300","If ibg press LEFT | If kue press RIGHT","Inducer instructions",""," ","","10","","","","","","","","","","","","","","",""
"","html-keyboard-response","419","640006","0.0-680.0","4f32gkws","1440","900","","","","","","","","","","","null","+","Fixation - short","","null","","","","","","","","","","","","","","","","",""
"","html-keyboard-response","420","640752","0.0-681.0","4f32gkws","","","","","","","","","","","","","745","ibg","Diagnostic trial","","j","","10","0","4","false","false","false","both pre & post","LEFT","RIGHT","j","1","false","","","",""
"","html-keyboard-response","421","641504","0.0-684.0","4f32gkws","1440","900","","","","","","","","","","","null","+","Fixation - short","","null","","","","","","","","","","","","","","","","",""
"","html-keyboard-response","422","642137","0.0-685.0","4f32gkws","","","","","","","","","","","","","632","ibg","Diagnostic trial","","f","","10","1","4","false","false","true","both pre & post","LEFT","LEFT","f","1","true","","","",""
"","html-keyboard-response","423","642890","0.0-688.0","4f32gkws","1440","900","","","","","","","","","","","null","+","Fixation - short","","null","","","","","","","","","","","","","","","","",""
"","html-keyboard-response","424","643501","0.0-689.0","4f32gkws","","","","","","","","","","","","","610","ibg","Diagnostic trial","","f","","10","2","4","false","false","true","both pre & post","LEFT","LEFT","f","1","true","","","",""
"","html-keyboard-response","425","644253","0.0-692.0","4f32gkws","1440","900","","","","","","","","","","","null","+","Fixation - short","","null","","","","","","","","","","","","","","","","",""
"","html-keyboard-response","426","645333","0.0-693.0","4f32gkws","","","","","","","","","","","","","1079","kue","Diagnostic trial","","f","","10","3","4","false","false","true","both pre & post","RIGHT","LEFT","f","1","false","","","",""
"","html-keyboard-response","427","646085","0.0-696.0","4f32gkws","1440","900","","","","","","","","","","","null","+","Fixation - short","","null","","","","","","","","","","","","","","","","",""
"","canvas-keyboard-response","428","647338","0.0-697.0","4f32gkws","","","","","","","","","","","","","null","Cue","Cue","","null","","10","3","","","false","","","","","","","","","","",""
"","html-keyboard-response","429","648091","0.0-698.0","4f32gkws","1440","900","","","","","","","","","","","null","+","Fixation - short","","null","","","","","","","","","","","","","","","","",""
"","html-keyboard-response","430","649394","0.0-699.0","4f32gkws","","","","","","","","","","","","","1302","ibg","Diagnostic trial","","f","","10","4","4","true","false","true","both pre & post","LEFT","LEFT","f","1","true","","","",""
"","html-keyboard-response","431","650145","0.0-702.0","4f32gkws","1440","900","","","","","","","","","","","null","+","Fixation - short","","null","","","","","","","","","","","","","","","","",""
"","html-keyboard-response","432","650738","0.0-703.0","4f32gkws","","","","","","","","","","","","","592","ibg","Diagnostic trial","","f","","10","5","4","true","false","true","both pre & post","LEFT","LEFT","f","1","true","","","",""
"","html-keyboard-response","433","651489","0.0-706.0","4f32gkws","1440","900","","","","","","","","","","","null","+","Fixation - short","","null","","","","","","","","","","","","","","","","",""
"","html-keyboard-response","434","652148","0.0-707.0","4f32gkws","","","","","","","","","","","","","658","kue","Diagnostic trial","","f","","10","6","4","true","false","true","both pre & post","RIGHT","LEFT","f","1","false","","","",""
"","html-keyboard-response","435","652901","0.0-710.0","4f32gkws","1440","900","","","","","","","","","","","null","+","Fixation - short","","null","","","","","","","","","","","","","","","","",""
"","html-keyboard-response","436","653515","0.0-711.0","4f32gkws","","","","","","","","","","","","","613","ibg","Inducer trial","","f","","10","","","","true","","","","","f","1","","false","LEFT","",""
"","html-keyboard-response","437","654267","0.0-714.0","4f32gkws","1440","900","","","","","","","","","","","null","+","Fixation - short","","null","","","","","","","","","","","","","","","","",""
"","html-keyboard-response","438","657484","0.0-715.0","4f32gkws","","","","","","","","","","","","","3216","If goj press LEFT | If cta press RIGHT","Inducer instructions",""," ","","11","","","","","","","","","","","","","","",""
"","html-keyboard-response","439","658237","0.0-716.0","4f32gkws","1440","900","","","","","","","","","","","null","+","Fixation - short","","null","","","","","","","","","","","","","","","","",""
"","html-keyboard-response","440","659109","0.0-717.0","4f32gkws","","","","","","","","","","","","","871","goj","Diagnostic trial","","f","","11","0","4","false","false","true","both pre & post","LEFT","LEFT","f","1","true","","","",""
"","html-keyboard-response","441","659861","0.0-720.0","4f32gkws","1440","900","","","","","","","","","","","null","+","Fixation - short","","null","","","","","","","","","","","","","","","","",""
"","html-keyboard-response","442","660482","0.0-721.0","4f32gkws","","","","","","","","","","","","","620","goj","Diagnostic trial","","j","","11","1","4","false","false","true","both pre & post","LEFT","LEFT","f","0","true","","","",""
"","call-function","443","660483","0.0-723.0-0.0","4f32gkws","","","","","","","","","","","","","","","","","","","","","","","","","","","","","","","","","",""
"","html-keyboard-response","444","660785","0.0-723.0-1.0","4f32gkws","1440","900","","","","","","","","","","","null","Wrong","Feedback","","null","","","","","","","","","","","","","","","","",""
"","call-function","445","660786","0.0-723.0-2.0","4f32gkws","","","","","","","","","","","","","","","","","","","","","","","","","","","","","","","","","",""
"","html-keyboard-response","446","661538","0.0-724.0","4f32gkws","1440","900","","","","","","","","","","","null","+","Fixation - short","","null","","","","","","","","","","","","","","","","",""
"","html-keyboard-response","447","662185","0.0-725.0","4f32gkws","","","","","","","","","","","","","647","goj","Diagnostic trial","","f","","11","2","4","false","false","true","both pre & post","LEFT","LEFT","f","1","true","","","",""
"","html-keyboard-response","448","662938","0.0-728.0","4f32gkws","1440","900","","","","","","","","","","","null","+","Fixation - short","","null","","","","","","","","","","","","","","","","",""
"","html-keyboard-response","449","663739","0.0-729.0","4f32gkws","","","","","","","","","","","","","800","cta","Diagnostic trial","","f","","11","3","4","false","false","true","both pre & post","RIGHT","LEFT","f","1","false","","","",""
"","html-keyboard-response","450","664491","0.0-732.0","4f32gkws","1440","900","","","","","","","","","","","null","+","Fixation - short","","null","","","","","","","","","","","","","","","","",""
"","canvas-keyboard-response","451","665744","0.0-733.0","4f32gkws","","","","","","","","","","","","","null","Cue","Cue","","null","","11","3","","","false","","","","","","","","","","",""
"","html-keyboard-response","452","666496","0.0-734.0","4f32gkws","1440","900","","","","","","","","","","","null","+","Fixation - short","","null","","","","","","","","","","","","","","","","",""
"","html-keyboard-response","453","667346","0.0-735.0","4f32gkws","","","","","","","","","","","","","849","goj","Diagnostic trial","","j","","11","4","4","true","false","false","both pre & post","LEFT","RIGHT","j","1","false","","","",""
"","html-keyboard-response","454","668100","0.0-738.0","4f32gkws","1440","900","","","","","","","","","","","null","+","Fixation - short","","null","","","","","","","","","","","","","","","","",""
"","html-keyboard-response","455","668851","0.0-739.0","4f32gkws","","","","","","","","","","","","","750","cta","Diagnostic trial","","f","","11","5","4","true","false","true","both pre & post","RIGHT","LEFT","f","1","false","","","",""
"","html-keyboard-response","456","669603","0.0-742.0","4f32gkws","1440","900","","","","","","","","","","","null","+","Fixation - short","","null","","","","","","","","","","","","","","","","",""
"","html-keyboard-response","457","670214","0.0-743.0","4f32gkws","","","","","","","","","","","","","610","goj","Diagnostic trial","","f","","11","6","4","true","false","true","both pre & post","LEFT","LEFT","f","1","true","","","",""
"","html-keyboard-response","458","670967","0.0-746.0","4f32gkws","1440","900","","","","","","","","","","","null","+","Fixation - short","","null","","","","","","","","","","","","","","","","",""
"","html-keyboard-response","459","672620","0.0-747.0","4f32gkws","","","","","","","","","","","","","1652","cta","Inducer trial","","f","","11","","","","true","","","","","j","0","","false","RIGHT","",""
"","call-function","460","672620","0.0-749.0-0.0","4f32gkws","","","","","","","","","","","","","","","","","","","","","","","","","","","","","","","","","",""
"","html-keyboard-response","461","672922","0.0-749.0-1.0","4f32gkws","1440","900","","","","","","","","","","","null","Wrong","Feedback","","null","","","","","","","","","","","","","","","","",""
"","call-function","462","672923","0.0-749.0-2.0","4f32gkws","","","","","","","","","","","","","","","","","","","","","","","","","","","","","","","","","",""
