"value","trial_type","trial_index","time_elapsed","internal_node_id","id","width","height","webaudio","browser","browser_version","mobile","os","fullscreen","vsync_rate","webcam","microphone","view_history","rt","stimulus","trial_info","success","response","exp_parameters","inducer_run","diagnostic_run","cue_num","post_cue","inducer_trial","italic","forced_equal_run","correct_inducer_response_side","correct_diag_response_side","correct_response_key","correct_response","congruent","force_equal","correct_indu_response_side","accuracy","interactive"
"","call-function","0","2","0.0-0.0","5bdwq9g0","","","","","","","","","","","","","","","","","","","","","","","","","","","","","","","","","",""
"","browser-check","1","1008","0.0-1.0","5bdwq9g0","1678","917","true","chrome","123.0.0","false","Windows 10","true","60.09","true","true","","","","","","","","","","","","","","","","","","","","","","",""
"","instructions","2","74619","0.0-2.0","5bdwq9g0","","","","","","","","","","","","[{""page_index"":0,""viewing_time"":33305},{""page_index"":1,""viewing_time"":30800},{""page_index"":2,""viewing_time"":9504}]","73609","The experiment and consent","The experiment and consent","","","","","","","","","","","","","","","","","","",""
"","fullscreen","3","84198","0.0-3.0","5bdwq9g0","","","","","","","","","","","","","8575","","Full screen","true","","","","","","","","","","","","","","","","","",""
"","instructions","4","123330","0.0-4.0","5bdwq9g0","","","","","","","","","","","","[{""page_index"":0,""viewing_time"":26730},{""page_index"":1,""viewing_time"":12400}]","39130","Instructions","Basic overview explanation","","","","","","","","","","","","","","","","","","",""
"","html-keyboard-response","5","144843","0.0-5.0","5bdwq9g0","","","","","","","","","","","","","null","If italic press LEFT | If upright press RIGHT","Diagnostic instructions","","null","{""debug"":false,""skip_instructions"":false,""skip_practice"":false,""save_local_data"":false,""studu_name"":""exp2"",""default_background_colour"":""#cccccc"",""wrong_response_colour"":""#d22d2d"",""instruction_delay"":20000,""trial_duration"":2000,""short_fixation"":750,""long_fixation"":1500,""wrong_response_delay"":300,""too_slow_delay"":300,""instruction_font_size"":""24px"",""general_font_size"":""42px"",""fixation_size"":""48px"",""allowed_responses"":[""f"",""j""],""cue_min_length"":0,""cue_max_length"":4,""tot_post_cue_len"":72,""cue_colour"":""red"",""cue_shape"":""Circle"",""cue_size"":70,""cue_duration"":1250,""avg_number_of_cues"":3,""inducer_colour"":""blue"",""number_of_inducers"":24,""pre_cue_italic_forced_equal"":true,""post_cue_italic_forced_equal"":true,""prac_diagnostic_rounds"":16,""prac_inducer_rounds"":6,""prac_cue_rounds"":16,""prac_post_cue_num"":3}","","","","","","","","","","","","","","","",""
"","html-keyboard-response","6","145610","0.0-6.0","5bdwq9g0","1920","1080","","","","","","","","","","","null","+","Fixation - short","","null","","","","","","","","","","","","","","","","",""
"","html-keyboard-response","7","147926","0.0-7.0","5bdwq9g0","","","","","","","","","","","","","2314","ndm","Diagnostic practice","","j","","Diagnostic practice","0","-84","true","false","false","prac equal","LEFT","RIGHT","j","1","false","","","",""
"","html-keyboard-response","8","148688","0.0-10.0","5bdwq9g0","1920","1080","","","","","","","","","","","null","+","Fixation - short","","null","","","","","","","","","","","","","","","","",""
"","html-keyboard-response","9","150116","0.0-11.0","5bdwq9g0","","","","","","","","","","","","","1426","ndm","Diagnostic practice","","j","","Diagnostic practice","1","-84","true","false","false","prac equal","LEFT","RIGHT","j","1","false","","","",""
"","html-keyboard-response","10","150867","0.0-14.0","5bdwq9g0","1920","1080","","","","","","","","","","","null","+","Fixation - short","","null","","","","","","","","","","","","","","","","",""
"","html-keyboard-response","11","152228","0.0-15.0","5bdwq9g0","","","","","","","","","","","","","1359","ndm","Diagnostic practice","","j","","Diagnostic practice","2","-84","true","false","false","prac equal","LEFT","RIGHT","j","1","false","","","",""
"","html-keyboard-response","12","152982","0.0-18.0","5bdwq9g0","1920","1080","","","","","","","","","","","null","+","Fixation - short","","null","","","","","","","","","","","","","","","","",""
"","html-keyboard-response","13","154068","0.0-19.0","5bdwq9g0","","","","","","","","","","","","","1085","rbc","Diagnostic practice","","f","","Diagnostic practice","3","-84","true","false","true","prac equal","RIGHT","LEFT","f","1","false","","","",""
"","html-keyboard-response","14","154824","0.0-22.0","5bdwq9g0","1920","1080","","","","","","","","","","","null","+","Fixation - short","","null","","","","","","","","","","","","","","","","",""
"","html-keyboard-response","15","155748","0.0-23.0","5bdwq9g0","","","","","","","","","","","","","923","rbc","Diagnostic practice","","f","","Diagnostic practice","4","-84","true","false","true","prac equal","RIGHT","LEFT","f","1","false","","","",""
"","html-keyboard-response","16","156510","0.0-26.0","5bdwq9g0","1920","1080","","","","","","","","","","","null","+","Fixation - short","","null","","","","","","","","","","","","","","","","",""
"","html-keyboard-response","17","157348","0.0-27.0","5bdwq9g0","","","","","","","","","","","","","837","rbc","Diagnostic practice","","f","","Diagnostic practice","5","-84","true","false","true","prac equal","RIGHT","LEFT","f","1","false","","","",""
"","html-keyboard-response","18","158108","0.0-30.0","5bdwq9g0","1920","1080","","","","","","","","","","","null","+","Fixation - short","","null","","","","","","","","","","","","","","","","",""
"","html-keyboard-response","19","158901","0.0-31.0","5bdwq9g0","","","","","","","","","","","","","792","ndm","Diagnostic practice","","j","","Diagnostic practice","6","-84","true","false","false","prac equal","LEFT","RIGHT","j","1","false","","","",""
"","html-keyboard-response","20","159663","0.0-34.0","5bdwq9g0","1920","1080","","","","","","","","","","","null","+","Fixation - short","","null","","","","","","","","","","","","","","","","",""
"","html-keyboard-response","21","160468","0.0-35.0","5bdwq9g0","","","","","","","","","","","","","804","ndm","Diagnostic practice","","j","","Diagnostic practice","7","-84","true","false","false","prac equal","LEFT","RIGHT","j","1","false","","","",""
"","html-keyboard-response","22","161229","0.0-38.0","5bdwq9g0","1920","1080","","","","","","","","","","","null","+","Fixation - short","","null","","","","","","","","","","","","","","","","",""
"","html-keyboard-response","23","161957","0.0-39.0","5bdwq9g0","","","","","","","","","","","","","726","ndm","Diagnostic practice","","j","","Diagnostic practice","8","-84","true","false","false","prac equal","LEFT","RIGHT","j","1","false","","","",""
"","html-keyboard-response","24","162716","0.0-42.0","5bdwq9g0","1920","1080","","","","","","","","","","","null","+","Fixation - short","","null","","","","","","","","","","","","","","","","",""
"","html-keyboard-response","25","163796","0.0-43.0","5bdwq9g0","","","","","","","","","","","","","1078","rbc","Diagnostic practice","","j","","Diagnostic practice","9","-84","true","false","false","prac equal","RIGHT","RIGHT","j","1","true","","","",""
"","html-keyboard-response","26","164562","0.0-46.0","5bdwq9g0","1920","1080","","","","","","","","","","","null","+","Fixation - short","","null","","","","","","","","","","","","","","","","",""
"","html-keyboard-response","27","165460","0.0-47.0","5bdwq9g0","","","","","","","","","","","","","897","ndm","Diagnostic practice","","f","","Diagnostic practice","10","-84","true","false","true","prac equal","LEFT","LEFT","f","1","true","","","",""
"","html-keyboard-response","28","166222","0.0-50.0","5bdwq9g0","1920","1080","","","","","","","","","","","null","+","Fixation - short","","null","","","","","","","","","","","","","","","","",""
"","html-keyboard-response","29","166901","0.0-51.0","5bdwq9g0","","","","","","","","","","","","","678","ndm","Diagnostic practice","","f","","Diagnostic practice","11","-84","true","false","true","prac equal","LEFT","LEFT","f","1","true","","","",""
"","html-keyboard-response","30","167653","0.0-54.0","5bdwq9g0","1920","1080","","","","","","","","","","","null","+","Fixation - short","","null","","","","","","","","","","","","","","","","",""
"","html-keyboard-response","31","168420","0.0-55.0","5bdwq9g0","","","","","","","","","","","","","766","rbc","Diagnostic practice","","f","","Diagnostic practice","12","-84","true","false","true","prac equal","RIGHT","LEFT","f","1","false","","","",""
"","html-keyboard-response","32","169172","0.0-58.0","5bdwq9g0","1920","1080","","","","","","","","","","","null","+","Fixation - short","","null","","","","","","","","","","","","","","","","",""
"","html-keyboard-response","33","169957","0.0-59.0","5bdwq9g0","","","","","","","","","","","","","784","rbc","Diagnostic practice","","f","","Diagnostic practice","13","-84","true","false","true","prac equal","RIGHT","LEFT","f","1","false","","","",""
"","html-keyboard-response","34","170710","0.0-62.0","5bdwq9g0","1920","1080","","","","","","","","","","","null","+","Fixation - short","","null","","","","","","","","","","","","","","","","",""
"","html-keyboard-response","35","171492","0.0-63.0","5bdwq9g0","","","","","","","","","","","","","781","ndm","Diagnostic practice","","j","","Diagnostic practice","14","-84","true","false","false","prac equal","LEFT","RIGHT","j","1","false","","","",""
"","html-keyboard-response","36","172244","0.0-66.0","5bdwq9g0","1920","1080","","","","","","","","","","","null","+","Fixation - short","","null","","","","","","","","","","","","","","","","",""
"","html-keyboard-response","37","173237","0.0-67.0","5bdwq9g0","","","","","","","","","","","","","991","ndm","Diagnostic practice","","f","","Diagnostic practice","15","-84","true","false","true","prac equal","LEFT","LEFT","f","1","true","","","",""
"","html-keyboard-response","38","173994","0.0-70.0","5bdwq9g0","1920","1080","","","","","","","","","","","null","+","Fixation - short","","null","","","","","","","","","","","","","","","","",""
"","instructions","39","186010","0.0-71.0","5bdwq9g0","","","","","","","","","","","","[{""page_index"":0,""viewing_time"":12014}]","12015","Instructions","Final experiment explanation","","","","","","","","","","","","","","","","","","",""
"","html-keyboard-response","40","203957","0.0-72.0","5bdwq9g0","","","","","","","","","","","","","16429","If afp press LEFT | If dof press RIGHT","Inducer practice",""," ","","Practice","","","","","","","","","","","","","","",""
"","html-keyboard-response","41","204712","0.0-73.0","5bdwq9g0","1920","1080","","","","","","","","","","","null","+","Fixation - short","","null","","","","","","","","","","","","","","","","",""
"","html-keyboard-response","42","205684","0.0-74.0","5bdwq9g0","","","","","","","","","","","","","971","dof","Inducer practice","","j","","Practice","","","","true","","","","","j","1","","true","RIGHT","",""
"","html-keyboard-response","43","206445","0.0-77.0","5bdwq9g0","1920","1080","","","","","","","","","","","null","+","Fixation - short","","null","","","","","","","","","","","","","","","","",""
"","html-keyboard-response","44","211813","0.0-78.0","5bdwq9g0","","","","","","","","","","","","","5367","If yoy press LEFT | If idy press RIGHT","Inducer practice",""," ","","Practice","","","","","","","","","","","","","","",""
"","html-keyboard-response","45","212565","0.0-79.0","5bdwq9g0","1920","1080","","","","","","","","","","","null","+","Fixation - short","","null","","","","","","","","","","","","","","","","",""
"","html-keyboard-response","46","213765","0.0-80.0","5bdwq9g0","","","","","","","","","","","","","1198","idy","Inducer practice","","j","","Practice","","","","true","","","","","j","1","","true","RIGHT","",""
"","html-keyboard-response","47","214516","0.0-83.0","5bdwq9g0","1920","1080","","","","","","","","","","","null","+","Fixation - short","","null","","","","","","","","","","","","","","","","",""
"","html-keyboard-response","48","221253","0.0-84.0","5bdwq9g0","","","","","","","","","","","","","6735","If imm press LEFT | If jil press RIGHT","Inducer practice",""," ","","Practice","","","","","","","","","","","","","","",""
"","html-keyboard-response","49","222011","0.0-85.0","5bdwq9g0","1920","1080","","","","","","","","","","","null","+","Fixation - short","","null","","","","","","","","","","","","","","","","",""
"","html-keyboard-response","50","222884","0.0-86.0","5bdwq9g0","","","","","","","","","","","","","872","imm","Inducer practice","","f","","Practice","","","","true","","","","","f","1","","true","LEFT","",""
"","html-keyboard-response","51","223636","0.0-89.0","5bdwq9g0","1920","1080","","","","","","","","","","","null","+","Fixation - short","","null","","","","","","","","","","","","","","","","",""
"","html-keyboard-response","52","227380","0.0-90.0","5bdwq9g0","","","","","","","","","","","","","3743","If anz press LEFT | If psl press RIGHT","Inducer practice",""," ","","Practice","","","","","","","","","","","","","","",""
"","html-keyboard-response","53","228140","0.0-91.0","5bdwq9g0","1920","1080","","","","","","","","","","","null","+","Fixation - short","","null","","","","","","","","","","","","","","","","",""
"","html-keyboard-response","54","228805","0.0-92.0","5bdwq9g0","","","","","","","","","","","","","664","psl","Inducer practice","","j","","Practice","","","","true","","","","","j","1","","true","RIGHT","",""
"","html-keyboard-response","55","229564","0.0-95.0","5bdwq9g0","1920","1080","","","","","","","","","","","null","+","Fixation - short","","null","","","","","","","","","","","","","","","","",""
"","html-keyboard-response","56","231477","0.0-96.0","5bdwq9g0","","","","","","","","","","","","","1911","If ivr press LEFT | If geb press RIGHT","Inducer practice",""," ","","Practice","","","","","","","","","","","","","","",""
"","html-keyboard-response","57","232240","0.0-97.0","5bdwq9g0","1920","1080","","","","","","","","","","","null","+","Fixation - short","","null","","","","","","","","","","","","","","","","",""
"","html-keyboard-response","58","233171","0.0-98.0","5bdwq9g0","","","","","","","","","","","","","930","ivr","Inducer practice","","f","","Practice","","","","true","","","","","f","1","","true","LEFT","",""
"","html-keyboard-response","59","233933","0.0-101.0","5bdwq9g0","1920","1080","","","","","","","","","","","null","+","Fixation - short","","null","","","","","","","","","","","","","","","","",""
"","html-keyboard-response","60","236485","0.0-102.0","5bdwq9g0","","","","","","","","","","","","","2551","If bgi press LEFT | If asn press RIGHT","Inducer practice",""," ","","Practice","","","","","","","","","","","","","","",""
"","html-keyboard-response","61","237243","0.0-103.0","5bdwq9g0","1920","1080","","","","","","","","","","","null","+","Fixation - short","","null","","","","","","","","","","","","","","","","",""
"","html-keyboard-response","62","238021","0.0-104.0","5bdwq9g0","","","","","","","","","","","","","777","bgi","Inducer practice","","f","","Practice","","","","true","","","","","f","1","","true","LEFT","",""
"","html-keyboard-response","63","238778","0.0-107.0","5bdwq9g0","1920","1080","","","","","","","","","","","null","+","Fixation - short","","null","","","","","","","","","","","","","","","","",""
"","instructions","64","276514","0.0-108.0","5bdwq9g0","","","","","","","","","","","","[{""page_index"":0,""viewing_time"":37735}]","37735","Instructions","Final experiment explanation","","","","","","","","","","","","","","","","","","",""
"","html-keyboard-response","65","282548","0.0-109.0","5bdwq9g0","","","","","","","","","","","","","4531","If xet press LEFT | If vpu press RIGHT","Cue practice",""," ","","Practice","","","","","","","","","","","","","","",""
"","html-keyboard-response","66","283306","0.0-110.0","5bdwq9g0","1920","1080","","","","","","","","","","","null","+","Fixation - short","","null","","","","","","","","","","","","","","","","",""
"","html-keyboard-response","67","283988","0.0-111.0","5bdwq9g0","","","","","","","","","","","","","681","xet","Cue practice","","f","","Practice","0","13","false","false","true","both pre & post","LEFT","LEFT","f","1","true","","","",""
"","html-keyboard-response","68","284749","0.0-114.0","5bdwq9g0","1920","1080","","","","","","","","","","","null","+","Fixation - short","","null","","","","","","","","","","","","","","","","",""
"","html-keyboard-response","69","286036","0.0-115.0","5bdwq9g0","","","","","","","","","","","","","1286","vpu","Cue practice","","j","","Practice","1","13","false","false","false","both pre & post","RIGHT","RIGHT","j","1","true","","","",""
"","html-keyboard-response","70","286794","0.0-118.0","5bdwq9g0","1920","1080","","","","","","","","","","","null","+","Fixation - short","","null","","","","","","","","","","","","","","","","",""
"","html-keyboard-response","71","289541","0.0-119.0","5bdwq9g0","","","","","","","","","","","","","2746","vpu","Cue practice","","j","","Practice","2","13","false","false","true","both pre & post","RIGHT","LEFT","f","0","false","","","",""
"","call-function","72","289543","0.0-121.0-0.0","5bdwq9g0","","","","","","","","","","","","","","","","","","","","","","","","","","","","","","","","","",""
"","html-keyboard-response","73","289847","0.0-121.0-1.0","5bdwq9g0","1920","1080","","","","","","","","","","","null","Wrong","Feedback","","null","","","","","","","","","","","","","","","","",""
"","call-function","74","289847","0.0-121.0-2.0","5bdwq9g0","","","","","","","","","","","","","","","","","","","","","","","","","","","","","","","","","",""
"","html-keyboard-response","75","290600","0.0-122.0","5bdwq9g0","1920","1080","","","","","","","","","","","null","+","Fixation - short","","null","","","","","","","","","","","","","","","","",""
"","html-keyboard-response","76","293284","0.0-123.0","5bdwq9g0","","","","","","","","","","","","","2682","vpu","Cue practice","","j","","Practice","3","13","false","false","false","both pre & post","RIGHT","RIGHT","j","1","true","","","",""
"","html-keyboard-response","77","294037","0.0-126.0","5bdwq9g0","1920","1080","","","","","","","","","","","null","+","Fixation - short","","null","","","","","","","","","","","","","","","","",""
"","html-keyboard-response","78","294852","0.0-127.0","5bdwq9g0","","","","","","","","","","","","","815","xet","Cue practice","","f","","Practice","4","13","false","false","true","both pre & post","LEFT","LEFT","f","1","true","","","",""
"","html-keyboard-response","79","295617","0.0-130.0","5bdwq9g0","1920","1080","","","","","","","","","","","null","+","Fixation - short","","null","","","","","","","","","","","","","","","","",""
"","html-keyboard-response","80","296548","0.0-131.0","5bdwq9g0","","","","","","","","","","","","","930","xet","Cue practice","","j","","Practice","5","13","false","false","false","both pre & post","LEFT","RIGHT","j","1","false","","","",""
"","html-keyboard-response","81","297303","0.0-134.0","5bdwq9g0","1920","1080","","","","","","","","","","","null","+","Fixation - short","","null","","","","","","","","","","","","","","","","",""
"","html-keyboard-response","82","298260","0.0-135.0","5bdwq9g0","","","","","","","","","","","","","955","vpu","Cue practice","","f","","Practice","6","13","false","false","true","both pre & post","RIGHT","LEFT","f","1","false","","","",""
"","html-keyboard-response","83","299025","0.0-138.0","5bdwq9g0","1920","1080","","","","","","","","","","","null","+","Fixation - short","","null","","","","","","","","","","","","","","","","",""
"","html-keyboard-response","84","299796","0.0-139.0","5bdwq9g0","","","","","","","","","","","","","770","xet","Cue practice","","f","","Practice","7","13","false","false","true","both pre & post","LEFT","LEFT","f","1","true","","","",""
"","html-keyboard-response","85","300561","0.0-142.0","5bdwq9g0","1920","1080","","","","","","","","","","","null","+","Fixation - short","","null","","","","","","","","","","","","","","","","",""
"","html-keyboard-response","86","301380","0.0-143.0","5bdwq9g0","","","","","","","","","","","","","817","vpu","Cue practice","","j","","Practice","8","13","false","false","false","both pre & post","RIGHT","RIGHT","j","1","true","","","",""
"","html-keyboard-response","87","302143","0.0-146.0","5bdwq9g0","1920","1080","","","","","","","","","","","null","+","Fixation - short","","null","","","","","","","","","","","","","","","","",""
"","html-keyboard-response","88","302948","0.0-147.0","5bdwq9g0","","","","","","","","","","","","","804","xet","Cue practice","","f","","Practice","9","13","false","false","true","both pre & post","LEFT","LEFT","f","1","true","","","",""
"","html-keyboard-response","89","303710","0.0-150.0","5bdwq9g0","1920","1080","","","","","","","","","","","null","+","Fixation - short","","null","","","","","","","","","","","","","","","","",""
"","html-keyboard-response","90","304771","0.0-151.0","5bdwq9g0","","","","","","","","","","","","","1060","xet","Cue practice","","j","","Practice","10","13","false","false","false","both pre & post","LEFT","RIGHT","j","1","false","","","",""
"","html-keyboard-response","91","305534","0.0-154.0","5bdwq9g0","1920","1080","","","","","","","","","","","null","+","Fixation - short","","null","","","","","","","","","","","","","","","","",""
"","html-keyboard-response","92","306596","0.0-155.0","5bdwq9g0","","","","","","","","","","","","","1060","vpu","Cue practice","","f","","Practice","11","13","false","false","true","both pre & post","RIGHT","LEFT","f","1","false","","","",""
"","html-keyboard-response","93","307348","0.0-158.0","5bdwq9g0","1920","1080","","","","","","","","","","","null","+","Fixation - short","","null","","","","","","","","","","","","","","","","",""
"","html-keyboard-response","94","308149","0.0-159.0","5bdwq9g0","","","","","","","","","","","","","800","vpu","Cue practice","","j","","Practice","12","13","false","false","false","both pre & post","RIGHT","RIGHT","j","1","true","","","",""
"","html-keyboard-response","95","308912","0.0-162.0","5bdwq9g0","1920","1080","","","","","","","","","","","null","+","Fixation - short","","null","","","","","","","","","","","","","","","","",""
"","canvas-keyboard-response","96","310171","0.0-163.0","5bdwq9g0","","","","","","","","","","","","","null","Cue","Cue","","null","","Practice","12","","","false","","","","","","","","","","",""
"","html-keyboard-response","97","310924","0.0-164.0","5bdwq9g0","1920","1080","","","","","","","","","","","null","+","Fixation - short","","null","","","","","","","","","","","","","","","","",""
"","html-keyboard-response","98","311700","0.0-165.0","5bdwq9g0","","","","","","","","","","","","","775","vpu","Cue practice","","f","","Practice","13","13","true","false","true","both pre & post","RIGHT","LEFT","f","1","false","","","",""
"","html-keyboard-response","99","312463","0.0-168.0","5bdwq9g0","1920","1080","","","","","","","","","","","null","+","Fixation - short","","null","","","","","","","","","","","","","","","","",""
"","html-keyboard-response","100","313268","0.0-169.0","5bdwq9g0","","","","","","","","","","","","","803","xet","Cue practice","","f","","Practice","14","13","true","false","true","both pre & post","LEFT","LEFT","f","1","true","","","",""
"","html-keyboard-response","101","314030","0.0-172.0","5bdwq9g0","1920","1080","","","","","","","","","","","null","+","Fixation - short","","null","","","","","","","","","","","","","","","","",""
"","html-keyboard-response","102","314804","0.0-173.0","5bdwq9g0","","","","","","","","","","","","","773","vpu","Cue practice","","j","","Practice","15","13","true","false","false","both pre & post","RIGHT","RIGHT","j","1","true","","","",""
"","html-keyboard-response","103","315567","0.0-176.0","5bdwq9g0","1920","1080","","","","","","","","","","","null","+","Fixation - short","","null","","","","","","","","","","","","","","","","",""
"","html-keyboard-response","104","317380","0.0-177.0","5bdwq9g0","","","","","","","","","","","","","1812","vpu","Inducer practice","","f","","Practice","","","","true","","","","","j","0","","false","RIGHT","",""
"","call-function","105","317380","0.0-179.0-0.0","5bdwq9g0","","","","","","","","","","","","","","","","","","","","","","","","","","","","","","","","","",""
"","html-keyboard-response","106","317682","0.0-179.0-1.0","5bdwq9g0","1920","1080","","","","","","","","","","","null","Wrong","Feedback","","null","","","","","","","","","","","","","","","","",""
"","call-function","107","317683","0.0-179.0-2.0","5bdwq9g0","","","","","","","","","","","","","","","","","","","","","","","","","","","","","","","","","",""
"","html-keyboard-response","108","318435","0.0-180.0","5bdwq9g0","1920","1080","","","","","","","","","","","null","+","Fixation - short","","null","","","","","","","","","","","","","","","","",""
"","instructions","109","331698","0.0-181.0","5bdwq9g0","","","","","","","","","","","","[{""page_index"":0,""viewing_time"":13262}]","13262","End practice","End of practice","","","","","","","","","","","","","","","","","","",""
"","html-keyboard-response","110","334710","0.0-182.0","5bdwq9g0","1920","1080","","","","","","","","","","","null","+","Fixation - long","","null","","","","","","","","","","","","","","","","",""
"","html-keyboard-response","111","337828","0.0-183.0","5bdwq9g0","","","","","","","","","","","","","3117","If wrz press LEFT | If dpa press RIGHT","Inducer instructions",""," ","","0","","","","","","","","","","","","","","",""
"","html-keyboard-response","112","338582","0.0-184.0","5bdwq9g0","1920","1080","","","","","","","","","","","null","+","Fixation - short","","null","","","","","","","","","","","","","","","","",""
"","html-keyboard-response","113","339828","0.0-185.0","5bdwq9g0","","","","","","","","","","","","","1245","dpa","Diagnostic trial","","j","","0","0","4","false","false","false","both pre & post","RIGHT","RIGHT","j","1","true","","","",""
"","html-keyboard-response","114","340592","0.0-188.0","5bdwq9g0","1920","1080","","","","","","","","","","","null","+","Fixation - short","","null","","","","","","","","","","","","","","","","",""
"","html-keyboard-response","115","341506","0.0-189.0","5bdwq9g0","","","","","","","","","","","","","914","dpa","Diagnostic trial","","j","","0","1","4","false","false","false","both pre & post","RIGHT","RIGHT","j","1","true","","","",""
"","html-keyboard-response","116","342260","0.0-192.0","5bdwq9g0","1920","1080","","","","","","","","","","","null","+","Fixation - short","","null","","","","","","","","","","","","","","","","",""
"","html-keyboard-response","117","343492","0.0-193.0","5bdwq9g0","","","","","","","","","","","","","1231","wrz","Diagnostic trial","","f","","0","2","4","false","false","true","both pre & post","LEFT","LEFT","f","1","true","","","",""
"","html-keyboard-response","118","344250","0.0-196.0","5bdwq9g0","1920","1080","","","","","","","","","","","null","+","Fixation - short","","null","","","","","","","","","","","","","","","","",""
"","html-keyboard-response","119","345364","0.0-197.0","5bdwq9g0","","","","","","","","","","","","","1113","dpa","Diagnostic trial","","f","","0","3","4","false","false","true","both pre & post","RIGHT","LEFT","f","1","false","","","",""
"","html-keyboard-response","120","346122","0.0-200.0","5bdwq9g0","1920","1080","","","","","","","","","","","null","+","Fixation - short","","null","","","","","","","","","","","","","","","","",""
"","canvas-keyboard-response","121","347383","0.0-201.0","5bdwq9g0","","","","","","","","","","","","","null","Cue","Cue","","null","","0","3","","","false","","","","","","","","","","",""
"","html-keyboard-response","122","348134","0.0-202.0","5bdwq9g0","1920","1080","","","","","","","","","","","null","+","Fixation - short","","null","","","","","","","","","","","","","","","","",""
"","html-keyboard-response","123","348836","0.0-203.0","5bdwq9g0","","","","","","","","","","","","","701","dpa","Diagnostic trial","","j","","0","4","4","true","false","false","both pre & post","RIGHT","RIGHT","j","1","true","","","",""
"","html-keyboard-response","124","349592","0.0-206.0","5bdwq9g0","1920","1080","","","","","","","","","","","null","+","Fixation - short","","null","","","","","","","","","","","","","","","","",""
"","html-keyboard-response","125","350308","0.0-207.0","5bdwq9g0","","","","","","","","","","","","","714","dpa","Diagnostic trial","","f","","0","5","4","true","false","true","both pre & post","RIGHT","LEFT","f","1","false","","","",""
"","html-keyboard-response","126","351069","0.0-210.0","5bdwq9g0","1920","1080","","","","","","","","","","","null","+","Fixation - short","","null","","","","","","","","","","","","","","","","",""
"","html-keyboard-response","127","352292","0.0-211.0","5bdwq9g0","","","","","","","","","","","","","1222","wrz","Diagnostic trial","","j","","0","6","4","true","false","false","both pre & post","LEFT","RIGHT","j","1","false","","","",""
"","html-keyboard-response","128","353053","0.0-214.0","5bdwq9g0","1920","1080","","","","","","","","","","","null","+","Fixation - short","","null","","","","","","","","","","","","","","","","",""
"","html-keyboard-response","129","353749","0.0-215.0","5bdwq9g0","","","","","","","","","","","","","695","dpa","Diagnostic trial","","f","","0","7","4","true","false","true","both pre & post","RIGHT","LEFT","f","1","false","","","",""
"","html-keyboard-response","130","354501","0.0-218.0","5bdwq9g0","1920","1080","","","","","","","","","","","null","+","Fixation - short","","null","","","","","","","","","","","","","","","","",""
"","html-keyboard-response","131","355652","0.0-219.0","5bdwq9g0","","","","","","","","","","","","","1150","wrz","Inducer trial","","f","","0","","","","true","","","","","f","1","","false","LEFT","",""
"","html-keyboard-response","132","356404","0.0-222.0","5bdwq9g0","1920","1080","","","","","","","","","","","null","+","Fixation - short","","null","","","","","","","","","","","","","","","","",""
"","html-keyboard-response","133","368773","0.0-223.0","5bdwq9g0","","","","","","","","","","","","","12367","If eeu press LEFT | If fja press RIGHT","Inducer instructions",""," ","","1","","","","","","","","","","","","","","",""
"","html-keyboard-response","134","369530","0.0-224.0","5bdwq9g0","1920","1080","","","","","","","","","","","null","+","Fixation - short","","null","","","","","","","","","","","","","","","","",""
"","html-keyboard-response","135","370916","0.0-225.0","5bdwq9g0","","","","","","","","","","","","","1384","fja","Diagnostic trial","","j","","1","0","8","false","false","false","both pre & post","RIGHT","RIGHT","j","1","true","","","",""
"","html-keyboard-response","136","371679","0.0-228.0","5bdwq9g0","1920","1080","","","","","","","","","","","null","+","Fixation - short","","null","","","","","","","","","","","","","","","","",""
"","html-keyboard-response","137","372756","0.0-229.0","5bdwq9g0","","","","","","","","","","","","","1076","eeu","Diagnostic trial","","f","","1","1","8","false","false","true","both pre & post","LEFT","LEFT","f","1","true","","","",""
"","html-keyboard-response","138","373515","0.0-232.0","5bdwq9g0","1920","1080","","","","","","","","","","","null","+","Fixation - short","","null","","","","","","","","","","","","","","","","",""
"","html-keyboard-response","139","374324","0.0-233.0","5bdwq9g0","","","","","","","","","","","","","808","fja","Diagnostic trial","","f","","1","2","8","false","false","true","both pre & post","RIGHT","LEFT","f","1","false","","","",""
"","html-keyboard-response","140","375078","0.0-236.0","5bdwq9g0","1920","1080","","","","","","","","","","","null","+","Fixation - short","","null","","","","","","","","","","","","","","","","",""
"","html-keyboard-response","141","376341","0.0-237.0","5bdwq9g0","","","","","","","","","","","","","1261","fja","Diagnostic trial","","j","","1","3","8","false","false","false","both pre & post","RIGHT","RIGHT","j","1","true","","","",""
"","html-keyboard-response","142","377099","0.0-240.0","5bdwq9g0","1920","1080","","","","","","","","","","","null","+","Fixation - short","","null","","","","","","","","","","","","","","","","",""
"","html-keyboard-response","143","378101","0.0-241.0","5bdwq9g0","","","","","","","","","","","","","1000","eeu","Diagnostic trial","","f","","1","4","8","false","false","false","both pre & post","LEFT","RIGHT","j","0","false","","","",""
"","call-function","144","378101","0.0-243.0-0.0","5bdwq9g0","","","","","","","","","","","","","","","","","","","","","","","","","","","","","","","","","",""
"","html-keyboard-response","145","378405","0.0-243.0-1.0","5bdwq9g0","1920","1080","","","","","","","","","","","null","Wrong","Feedback","","null","","","","","","","","","","","","","","","","",""
"","call-function","146","378406","0.0-243.0-2.0","5bdwq9g0","","","","","","","","","","","","","","","","","","","","","","","","","","","","","","","","","",""
"","html-keyboard-response","147","379157","0.0-244.0","5bdwq9g0","1920","1080","","","","","","","","","","","null","+","Fixation - short","","null","","","","","","","","","","","","","","","","",""
"","html-keyboard-response","148","380197","0.0-245.0","5bdwq9g0","","","","","","","","","","","","","1038","eeu","Diagnostic trial","","f","","1","5","8","false","false","true","both pre & post","LEFT","LEFT","f","1","true","","","",""
"","html-keyboard-response","149","380955","0.0-248.0","5bdwq9g0","1920","1080","","","","","","","","","","","null","+","Fixation - short","","null","","","","","","","","","","","","","","","","",""
"","html-keyboard-response","150","382245","0.0-249.0","5bdwq9g0","","","","","","","","","","","","","1289","eeu","Diagnostic trial","","f","","1","6","8","false","false","true","both pre & post","LEFT","LEFT","f","1","true","","","",""
"","html-keyboard-response","151","383003","0.0-252.0","5bdwq9g0","1920","1080","","","","","","","","","","","null","+","Fixation - short","","null","","","","","","","","","","","","","","","","",""
"","html-keyboard-response","152","383684","0.0-253.0","5bdwq9g0","","","","","","","","","","","","","680","fja","Diagnostic trial","","f","","1","7","8","false","false","true","both pre & post","RIGHT","LEFT","f","1","false","","","",""
"","html-keyboard-response","153","384445","0.0-256.0","5bdwq9g0","1920","1080","","","","","","","","","","","null","+","Fixation - short","","null","","","","","","","","","","","","","","","","",""
"","canvas-keyboard-response","154","385701","0.0-257.0","5bdwq9g0","","","","","","","","","","","","","null","Cue","Cue","","null","","1","7","","","false","","","","","","","","","","",""
"","html-keyboard-response","155","386458","0.0-258.0","5bdwq9g0","1920","1080","","","","","","","","","","","null","+","Fixation - short","","null","","","","","","","","","","","","","","","","",""
"","html-keyboard-response","156","387316","0.0-259.0","5bdwq9g0","","","","","","","","","","","","","857","eeu","Diagnostic trial","","j","","1","8","8","true","false","false","both pre & post","LEFT","RIGHT","j","1","false","","","",""
"","html-keyboard-response","157","388073","0.0-262.0","5bdwq9g0","1920","1080","","","","","","","","","","","null","+","Fixation - short","","null","","","","","","","","","","","","","","","","",""
"","html-keyboard-response","158","388788","0.0-263.0","5bdwq9g0","","","","","","","","","","","","","714","eeu","Diagnostic trial","","f","","1","9","8","true","false","true","both pre & post","LEFT","LEFT","f","1","true","","","",""
"","html-keyboard-response","159","389547","0.0-266.0","5bdwq9g0","1920","1080","","","","","","","","","","","null","+","Fixation - short","","null","","","","","","","","","","","","","","","","",""
"","html-keyboard-response","160","390517","0.0-267.0","5bdwq9g0","","","","","","","","","","","","","969","fja","Diagnostic trial","","j","","1","10","8","true","false","false","both pre & post","RIGHT","RIGHT","j","1","true","","","",""
"","html-keyboard-response","161","391271","0.0-270.0","5bdwq9g0","1920","1080","","","","","","","","","","","null","+","Fixation - short","","null","","","","","","","","","","","","","","","","",""
"","html-keyboard-response","162","392308","0.0-271.0","5bdwq9g0","","","","","","","","","","","","","1036","eeu","Diagnostic trial","","j","","1","11","8","true","false","false","both pre & post","LEFT","RIGHT","j","1","false","","","",""
"","html-keyboard-response","163","393063","0.0-274.0","5bdwq9g0","1920","1080","","","","","","","","","","","null","+","Fixation - short","","null","","","","","","","","","","","","","","","","",""
"","html-keyboard-response","164","394868","0.0-275.0","5bdwq9g0","","","","","","","","","","","","","1804","eeu","Inducer trial","","f","","1","","","","true","","","","","f","1","","false","LEFT","",""
"","html-keyboard-response","165","395625","0.0-278.0","5bdwq9g0","1920","1080","","","","","","","","","","","null","+","Fixation - short","","null","","","","","","","","","","","","","","","","",""
"","html-keyboard-response","166","406741","0.0-279.0","5bdwq9g0","","","","","","","","","","","","","11115","If upf press LEFT | If eht press RIGHT","Inducer instructions",""," ","","2","","","","","","","","","","","","","","",""
"","html-keyboard-response","167","407505","0.0-280.0","5bdwq9g0","1920","1080","","","","","","","","","","","null","+","Fixation - short","","null","","","","","","","","","","","","","","","","",""
"","html-keyboard-response","168","408436","0.0-281.0","5bdwq9g0","","","","","","","","","","","","","930","upf","Diagnostic trial","","j","","2","0","10","false","false","false","both pre & post","LEFT","RIGHT","j","1","false","","","",""
"","html-keyboard-response","169","409195","0.0-284.0","5bdwq9g0","1920","1080","","","","","","","","","","","null","+","Fixation - short","","null","","","","","","","","","","","","","","","","",""
"","html-keyboard-response","170","409988","0.0-285.0","5bdwq9g0","","","","","","","","","","","","","792","eht","Diagnostic trial","","f","","2","1","10","false","false","true","both pre & post","RIGHT","LEFT","f","1","false","","","",""
"","html-keyboard-response","171","410744","0.0-288.0","5bdwq9g0","1920","1080","","","","","","","","","","","null","+","Fixation - short","","null","","","","","","","","","","","","","","","","",""
"","html-keyboard-response","172","411556","0.0-289.0","5bdwq9g0","","","","","","","","","","","","","811","eht","Diagnostic trial","","f","","2","2","10","false","false","true","both pre & post","RIGHT","LEFT","f","1","false","","","",""
"","html-keyboard-response","173","412312","0.0-292.0","5bdwq9g0","1920","1080","","","","","","","","","","","null","+","Fixation - short","","null","","","","","","","","","","","","","","","","",""
"","html-keyboard-response","174","413172","0.0-293.0","5bdwq9g0","","","","","","","","","","","","","859","eht","Diagnostic trial","","j","","2","3","10","false","false","false","both pre & post","RIGHT","RIGHT","j","1","true","","","",""
"","html-keyboard-response","175","413938","0.0-296.0","5bdwq9g0","1920","1080","","","","","","","","","","","null","+","Fixation - short","","null","","","","","","","","","","","","","","","","",""
"","html-keyboard-response","176","414516","0.0-297.0","5bdwq9g0","","","","","","","","","","","","","577","eht","Diagnostic trial","","j","","2","4","10","false","false","false","both pre & post","RIGHT","RIGHT","j","1","true","","","",""
"","html-keyboard-response","177","415271","0.0-300.0","5bdwq9g0","1920","1080","","","","","","","","","","","null","+","Fixation - short","","null","","","","","","","","","","","","","","","","",""
"","html-keyboard-response","178","415972","0.0-301.0","5bdwq9g0","","","","","","","","","","","","","700","eht","Diagnostic trial","","j","","2","5","10","false","false","false","both pre & post","RIGHT","RIGHT","j","1","true","","","",""
"","html-keyboard-response","179","416728","0.0-304.0","5bdwq9g0","1920","1080","","","","","","","","","","","null","+","Fixation - short","","null","","","","","","","","","","","","","","","","",""
"","html-keyboard-response","180","417269","0.0-305.0","5bdwq9g0","","","","","","","","","","","","","540","eht","Diagnostic trial","","j","","2","6","10","false","false","true","both pre & post","RIGHT","LEFT","f","0","false","","","",""
"","call-function","181","417270","0.0-307.0-0.0","5bdwq9g0","","","","","","","","","","","","","","","","","","","","","","","","","","","","","","","","","",""
"","html-keyboard-response","182","417574","0.0-307.0-1.0","5bdwq9g0","1920","1080","","","","","","","","","","","null","Wrong","Feedback","","null","","","","","","","","","","","","","","","","",""
"","call-function","183","417575","0.0-307.0-2.0","5bdwq9g0","","","","","","","","","","","","","","","","","","","","","","","","","","","","","","","","","",""
"","html-keyboard-response","184","418340","0.0-308.0","5bdwq9g0","1920","1080","","","","","","","","","","","null","+","Fixation - short","","null","","","","","","","","","","","","","","","","",""
"","html-keyboard-response","185","418948","0.0-309.0","5bdwq9g0","","","","","","","","","","","","","607","eht","Diagnostic trial","","j","","2","7","10","false","false","false","both pre & post","RIGHT","RIGHT","j","1","true","","","",""
"","html-keyboard-response","186","419706","0.0-312.0","5bdwq9g0","1920","1080","","","","","","","","","","","null","+","Fixation - short","","null","","","","","","","","","","","","","","","","",""
"","html-keyboard-response","187","420772","0.0-313.0","5bdwq9g0","","","","","","","","","","","","","1065","upf","Diagnostic trial","","j","","2","8","10","false","false","false","both pre & post","LEFT","RIGHT","j","1","false","","","",""
"","html-keyboard-response","188","421532","0.0-316.0","5bdwq9g0","1920","1080","","","","","","","","","","","null","+","Fixation - short","","null","","","","","","","","","","","","","","","","",""
"","html-keyboard-response","189","422116","0.0-317.0","5bdwq9g0","","","","","","","","","","","","","584","eht","Diagnostic trial","","f","","2","9","10","false","false","true","both pre & post","RIGHT","LEFT","f","1","false","","","",""
"","html-keyboard-response","190","422881","0.0-320.0","5bdwq9g0","1920","1080","","","","","","","","","","","null","+","Fixation - short","","null","","","","","","","","","","","","","","","","",""
"","canvas-keyboard-response","191","424137","0.0-321.0","5bdwq9g0","","","","","","","","","","","","","null","Cue","Cue","","null","","2","9","","","false","","","","","","","","","","",""
"","html-keyboard-response","192","424890","0.0-322.0","5bdwq9g0","1920","1080","","","","","","","","","","","null","+","Fixation - short","","null","","","","","","","","","","","","","","","","",""
"","html-keyboard-response","193","425572","0.0-323.0","5bdwq9g0","","","","","","","","","","","","","681","upf","Diagnostic trial","","j","","2","10","10","true","false","true","both pre & post","LEFT","LEFT","f","0","true","","","",""
"","call-function","194","425573","0.0-325.0-0.0","5bdwq9g0","","","","","","","","","","","","","","","","","","","","","","","","","","","","","","","","","",""
"","html-keyboard-response","195","425875","0.0-325.0-1.0","5bdwq9g0","1920","1080","","","","","","","","","","","null","Wrong","Feedback","","null","","","","","","","","","","","","","","","","",""
"","call-function","196","425876","0.0-325.0-2.0","5bdwq9g0","","","","","","","","","","","","","","","","","","","","","","","","","","","","","","","","","",""
"","html-keyboard-response","197","426642","0.0-326.0","5bdwq9g0","1920","1080","","","","","","","","","","","null","+","Fixation - short","","null","","","","","","","","","","","","","","","","",""
"","html-keyboard-response","198","427477","0.0-327.0","5bdwq9g0","","","","","","","","","","","","","833","upf","Diagnostic trial","","f","","2","11","10","true","false","true","both pre & post","LEFT","LEFT","f","1","true","","","",""
"","html-keyboard-response","199","428239","0.0-330.0","5bdwq9g0","1920","1080","","","","","","","","","","","null","+","Fixation - short","","null","","","","","","","","","","","","","","","","",""
"","html-keyboard-response","200","428947","0.0-331.0","5bdwq9g0","","","","","","","","","","","","","708","eht","Diagnostic trial","","f","","2","12","10","true","false","true","both pre & post","RIGHT","LEFT","f","1","false","","","",""
"","html-keyboard-response","201","429713","0.0-334.0","5bdwq9g0","1920","1080","","","","","","","","","","","null","+","Fixation - short","","null","","","","","","","","","","","","","","","","",""
"","html-keyboard-response","202","430260","0.0-335.0","5bdwq9g0","","","","","","","","","","","","","545","upf","Diagnostic trial","","f","","2","13","10","true","false","true","both pre & post","LEFT","LEFT","f","1","true","","","",""
"","html-keyboard-response","203","431023","0.0-338.0","5bdwq9g0","1920","1080","","","","","","","","","","","null","+","Fixation - short","","null","","","","","","","","","","","","","","","","",""
"","html-keyboard-response","204","433011","0.0-339.0","5bdwq9g0","","","","","","","","","","","","","1987","eht","Inducer trial","","j","","2","","","","true","","","","","j","1","","false","RIGHT","",""
"","html-keyboard-response","205","433764","0.0-342.0","5bdwq9g0","1920","1080","","","","","","","","","","","null","+","Fixation - short","","null","","","","","","","","","","","","","","","","",""
"","html-keyboard-response","206","442308","0.0-343.0","5bdwq9g0","","","","","","","","","","","","","8543","If aor press LEFT | If swr press RIGHT","Inducer instructions",""," ","","3","","","","","","","","","","","","","","",""
"","html-keyboard-response","207","443068","0.0-344.0","5bdwq9g0","1920","1080","","","","","","","","","","","null","+","Fixation - short","","null","","","","","","","","","","","","","","","","",""
"","html-keyboard-response","208","444020","0.0-345.0","5bdwq9g0","","","","","","","","","","","","","951","swr","Diagnostic trial","","j","","3","0","4","false","false","false","both pre & post","RIGHT","RIGHT","j","1","true","","","",""
"","html-keyboard-response","209","444785","0.0-348.0","5bdwq9g0","1920","1080","","","","","","","","","","","null","+","Fixation - short","","null","","","","","","","","","","","","","","","","",""
"","html-keyboard-response","210","445491","0.0-349.0","5bdwq9g0","","","","","","","","","","","","","705","aor","Diagnostic trial","","j","","3","1","4","false","false","false","both pre & post","LEFT","RIGHT","j","1","false","","","",""
"","html-keyboard-response","211","446245","0.0-352.0","5bdwq9g0","1920","1080","","","","","","","","","","","null","+","Fixation - short","","null","","","","","","","","","","","","","","","","",""
"","html-keyboard-response","212","446804","0.0-353.0","5bdwq9g0","","","","","","","","","","","","","558","aor","Diagnostic trial","","f","","3","2","4","false","false","true","both pre & post","LEFT","LEFT","f","1","true","","","",""
"","html-keyboard-response","213","447564","0.0-356.0","5bdwq9g0","1920","1080","","","","","","","","","","","null","+","Fixation - short","","null","","","","","","","","","","","","","","","","",""
"","html-keyboard-response","214","448179","0.0-357.0","5bdwq9g0","","","","","","","","","","","","","614","aor","Diagnostic trial","","f","","3","3","4","false","false","true","both pre & post","LEFT","LEFT","f","1","true","","","",""
"","html-keyboard-response","215","448945","0.0-360.0","5bdwq9g0","1920","1080","","","","","","","","","","","null","+","Fixation - short","","null","","","","","","","","","","","","","","","","",""
"","canvas-keyboard-response","216","450205","0.0-361.0","5bdwq9g0","","","","","","","","","","","","","null","Cue","Cue","","null","","3","3","","","false","","","","","","","","","","",""
"","html-keyboard-response","217","450957","0.0-362.0","5bdwq9g0","1920","1080","","","","","","","","","","","null","+","Fixation - short","","null","","","","","","","","","","","","","","","","",""
"","html-keyboard-response","218","452099","0.0-363.0","5bdwq9g0","","","","","","","","","","","","","1141","swr","Inducer trial","","j","","3","","","","true","","","","","j","1","","false","RIGHT","",""
"","html-keyboard-response","219","452858","0.0-366.0","5bdwq9g0","1920","1080","","","","","","","","","","","null","+","Fixation - short","","null","","","","","","","","","","","","","","","","",""
"","html-keyboard-response","220","458965","0.0-367.0","5bdwq9g0","","","","","","","","","","","","","6105","If xlv press LEFT | If dul press RIGHT","Inducer instructions",""," ","","4","","","","","","","","","","","","","","",""
"","html-keyboard-response","221","459722","0.0-368.0","5bdwq9g0","1920","1080","","","","","","","","","","","null","+","Fixation - short","","null","","","","","","","","","","","","","","","","",""
"","html-keyboard-response","222","460611","0.0-369.0","5bdwq9g0","","","","","","","","","","","","","888","xlv","Diagnostic trial","","j","","4","0","7","false","false","false","both pre & post","LEFT","RIGHT","j","1","false","","","",""
"","html-keyboard-response","223","461379","0.0-372.0","5bdwq9g0","1920","1080","","","","","","","","","","","null","+","Fixation - short","","null","","","","","","","","","","","","","","","","",""
"","html-keyboard-response","224","462403","0.0-373.0","5bdwq9g0","","","","","","","","","","","","","1024","dul","Diagnostic trial","","j","","4","1","7","false","false","true","both pre & post","RIGHT","LEFT","f","0","false","","","",""
"","call-function","225","462404","0.0-375.0-0.0","5bdwq9g0","","","","","","","","","","","","","","","","","","","","","","","","","","","","","","","","","",""
"","html-keyboard-response","226","462718","0.0-375.0-1.0","5bdwq9g0","1920","1080","","","","","","","","","","","null","Wrong","Feedback","","null","","","","","","","","","","","","","","","","",""
"","call-function","227","462719","0.0-375.0-2.0","5bdwq9g0","","","","","","","","","","","","","","","","","","","","","","","","","","","","","","","","","",""
"","html-keyboard-response","228","463474","0.0-376.0","5bdwq9g0","1920","1080","","","","","","","","","","","null","+","Fixation - short","","null","","","","","","","","","","","","","","","","",""
"","html-keyboard-response","229","464579","0.0-377.0","5bdwq9g0","","","","","","","","","","","","","1104","xlv","Diagnostic trial","","f","","4","2","7","false","false","true","both pre & post","LEFT","LEFT","f","1","true","","","",""
"","html-keyboard-response","230","465333","0.0-380.0","5bdwq9g0","1920","1080","","","","","","","","","","","null","+","Fixation - short","","null","","","","","","","","","","","","","","","","",""
"","html-keyboard-response","231","466564","0.0-381.0","5bdwq9g0","","","","","","","","","","","","","1230","dul","Diagnostic trial","","j","","4","3","7","false","false","false","both pre & post","RIGHT","RIGHT","j","1","true","","","",""
"","html-keyboard-response","232","467319","0.0-384.0","5bdwq9g0","1920","1080","","","","","","","","","","","null","+","Fixation - short","","null","","","","","","","","","","","","","","","","",""
"","html-keyboard-response","233","468163","0.0-385.0","5bdwq9g0","","","","","","","","","","","","","844","xlv","Diagnostic trial","","f","","4","4","7","false","false","true","both pre & post","LEFT","LEFT","f","1","true","","","",""
"","html-keyboard-response","234","468923","0.0-388.0","5bdwq9g0","1920","1080","","","","","","","","","","","null","+","Fixation - short","","null","","","","","","","","","","","","","","","","",""
"","html-keyboard-response","235","469780","0.0-389.0","5bdwq9g0","","","","","","","","","","","","","856","dul","Diagnostic trial","","f","","4","5","7","false","false","true","both pre & post","RIGHT","LEFT","f","1","false","","","",""
"","html-keyboard-response","236","470531","0.0-392.0","5bdwq9g0","1920","1080","","","","","","","","","","","null","+","Fixation - short","","null","","","","","","","","","","","","","","","","",""
"","html-keyboard-response","237","471299","0.0-393.0","5bdwq9g0","","","","","","","","","","","","","767","xlv","Diagnostic trial","","f","","4","6","7","false","false","true","both pre & post","LEFT","LEFT","f","1","true","","","",""
"","html-keyboard-response","238","472053","0.0-396.0","5bdwq9g0","1920","1080","","","","","","","","","","","null","+","Fixation - short","","null","","","","","","","","","","","","","","","","",""
"","canvas-keyboard-response","239","473313","0.0-397.0","5bdwq9g0","","","","","","","","","","","","","null","Cue","Cue","","null","","4","6","","","false","","","","","","","","","","",""
"","html-keyboard-response","240","474068","0.0-398.0","5bdwq9g0","1920","1080","","","","","","","","","","","null","+","Fixation - short","","null","","","","","","","","","","","","","","","","",""
"","html-keyboard-response","241","474964","0.0-399.0","5bdwq9g0","","","","","","","","","","","","","895","xlv","Diagnostic trial","","f","","4","7","7","true","false","true","both pre & post","LEFT","LEFT","f","1","true","","","",""
"","html-keyboard-response","242","475724","0.0-402.0","5bdwq9g0","1920","1080","","","","","","","","","","","null","+","Fixation - short","","null","","","","","","","","","","","","","","","","",""
"","html-keyboard-response","243","476740","0.0-403.0","5bdwq9g0","","","","","","","","","","","","","1015","dul","Diagnostic trial","","f","","4","8","7","true","false","true","both pre & post","RIGHT","LEFT","f","1","false","","","",""
"","html-keyboard-response","244","477504","0.0-406.0","5bdwq9g0","1920","1080","","","","","","","","","","","null","+","Fixation - short","","null","","","","","","","","","","","","","","","","",""
"","html-keyboard-response","245","478340","0.0-407.0","5bdwq9g0","","","","","","","","","","","","","835","xlv","Diagnostic trial","","j","","4","9","7","true","false","false","both pre & post","LEFT","RIGHT","j","1","false","","","",""
"","html-keyboard-response","246","479102","0.0-410.0","5bdwq9g0","1920","1080","","","","","","","","","","","null","+","Fixation - short","","null","","","","","","","","","","","","","","","","",""
"","html-keyboard-response","247","479988","0.0-411.0","5bdwq9g0","","","","","","","","","","","","","885","dul","Diagnostic trial","","f","","4","10","7","true","false","true","both pre & post","RIGHT","LEFT","f","1","false","","","",""
"","html-keyboard-response","248","480742","0.0-414.0","5bdwq9g0","1920","1080","","","","","","","","","","","null","+","Fixation - short","","null","","","","","","","","","","","","","","","","",""
"","html-keyboard-response","249","481891","0.0-415.0","5bdwq9g0","","","","","","","","","","","","","1149","dul","Inducer trial","","j","","4","","","","true","","","","","j","1","","false","RIGHT","",""
"","html-keyboard-response","250","482647","0.0-418.0","5bdwq9g0","1920","1080","","","","","","","","","","","null","+","Fixation - short","","null","","","","","","","","","","","","","","","","",""
"","html-keyboard-response","251","486131","0.0-419.0","5bdwq9g0","","","","","","","","","","","","","3483","If gfm press LEFT | If jup press RIGHT","Inducer instructions",""," ","","5","","","","","","","","","","","","","","",""
"","html-keyboard-response","252","486887","0.0-420.0","5bdwq9g0","1920","1080","","","","","","","","","","","null","+","Fixation - short","","null","","","","","","","","","","","","","","","","",""
"","html-keyboard-response","253","487859","0.0-421.0","5bdwq9g0","","","","","","","","","","","","","971","jup","Diagnostic trial","","j","","5","0","4","false","false","false","both pre & post","RIGHT","RIGHT","j","1","true","","","",""
"","html-keyboard-response","254","488623","0.0-424.0","5bdwq9g0","1920","1080","","","","","","","","","","","null","+","Fixation - short","","null","","","","","","","","","","","","","","","","",""
"","html-keyboard-response","255","489428","0.0-425.0","5bdwq9g0","","","","","","","","","","","","","803","gfm","Diagnostic trial","","j","","5","1","4","false","false","false","both pre & post","LEFT","RIGHT","j","1","false","","","",""
"","html-keyboard-response","256","490190","0.0-428.0","5bdwq9g0","1920","1080","","","","","","","","","","","null","+","Fixation - short","","null","","","","","","","","","","","","","","","","",""
"","html-keyboard-response","257","490820","0.0-429.0","5bdwq9g0","","","","","","","","","","","","","629","gfm","Diagnostic trial","","j","","5","2","4","false","false","false","both pre & post","LEFT","RIGHT","j","1","false","","","",""
"","html-keyboard-response","258","491586","0.0-432.0","5bdwq9g0","1920","1080","","","","","","","","","","","null","+","Fixation - short","","null","","","","","","","","","","","","","","","","",""
"","html-keyboard-response","259","492292","0.0-433.0","5bdwq9g0","","","","","","","","","","","","","704","jup","Diagnostic trial","","f","","5","3","4","false","false","true","both pre & post","RIGHT","LEFT","f","1","false","","","",""
"","html-keyboard-response","260","493047","0.0-436.0","5bdwq9g0","1920","1080","","","","","","","","","","","null","+","Fixation - short","","null","","","","","","","","","","","","","","","","",""
"","canvas-keyboard-response","261","494304","0.0-437.0","5bdwq9g0","","","","","","","","","","","","","null","Cue","Cue","","null","","5","3","","","false","","","","","","","","","","",""
"","html-keyboard-response","262","495069","0.0-438.0","5bdwq9g0","1920","1080","","","","","","","","","","","null","+","Fixation - short","","null","","","","","","","","","","","","","","","","",""
"","html-keyboard-response","263","496131","0.0-439.0","5bdwq9g0","","","","","","","","","","","","","1061","jup","Diagnostic trial","","f","","5","4","4","true","false","true","both pre & post","RIGHT","LEFT","f","1","false","","","",""
"","html-keyboard-response","264","496893","0.0-442.0","5bdwq9g0","1920","1080","","","","","","","","","","","null","+","Fixation - short","","null","","","","","","","","","","","","","","","","",""
"","html-keyboard-response","265","497700","0.0-443.0","5bdwq9g0","","","","","","","","","","","","","805","gfm","Diagnostic trial","","f","","5","5","4","true","false","true","both pre & post","LEFT","LEFT","f","1","true","","","",""
"","html-keyboard-response","266","498454","0.0-446.0","5bdwq9g0","1920","1080","","","","","","","","","","","null","+","Fixation - short","","null","","","","","","","","","","","","","","","","",""
"","html-keyboard-response","267","498980","0.0-447.0","5bdwq9g0","","","","","","","","","","","","","524","gfm","Diagnostic trial","","f","","5","6","4","true","false","true","both pre & post","LEFT","LEFT","f","1","true","","","",""
"","html-keyboard-response","268","499743","0.0-450.0","5bdwq9g0","1920","1080","","","","","","","","","","","null","+","Fixation - short","","null","","","","","","","","","","","","","","","","",""
"","html-keyboard-response","269","500740","0.0-451.0","5bdwq9g0","","","","","","","","","","","","","996","jup","Diagnostic trial","","f","","5","7","4","true","false","true","both pre & post","RIGHT","LEFT","f","1","false","","","",""
"","html-keyboard-response","270","501492","0.0-454.0","5bdwq9g0","1920","1080","","","","","","","","","","","null","+","Fixation - short","","null","","","","","","","","","","","","","","","","",""
"","html-keyboard-response","271","502501","0.0-455.0","5bdwq9g0","","","","","","","","","","","","","1008","jup","Inducer trial","","j","","5","","","","true","","","","","j","1","","false","RIGHT","",""
"","html-keyboard-response","272","503261","0.0-458.0","5bdwq9g0","1920","1080","","","","","","","","","","","null","+","Fixation - short","","null","","","","","","","","","","","","","","","","",""
"","html-keyboard-response","273","509108","0.0-459.0","5bdwq9g0","","","","","","","","","","","","","5845","If jft press LEFT | If ydi press RIGHT","Inducer instructions",""," ","","6","","","","","","","","","","","","","","",""
"","html-keyboard-response","274","509867","0.0-460.0","5bdwq9g0","1920","1080","","","","","","","","","","","null","+","Fixation - short","","null","","","","","","","","","","","","","","","","",""
"","html-keyboard-response","275","511300","0.0-461.0","5bdwq9g0","","","","","","","","","","","","","1432","ydi","Diagnostic trial","","f","","6","0","7","false","false","true","both pre & post","RIGHT","LEFT","f","1","false","","","",""
"","html-keyboard-response","276","512059","0.0-464.0","5bdwq9g0","1920","1080","","","","","","","","","","","null","+","Fixation - short","","null","","","","","","","","","","","","","","","","",""
"","html-keyboard-response","277","513077","0.0-465.0","5bdwq9g0","","","","","","","","","","","","","1016","ydi","Diagnostic trial","","j","","6","1","7","false","false","false","both pre & post","RIGHT","RIGHT","j","1","true","","","",""
"","html-keyboard-response","278","513836","0.0-468.0","5bdwq9g0","1920","1080","","","","","","","","","","","null","+","Fixation - short","","null","","","","","","","","","","","","","","","","",""
"","html-keyboard-response","279","514643","0.0-469.0","5bdwq9g0","","","","","","","","","","","","","806","jft","Diagnostic trial","","f","","6","2","7","false","false","true","both pre & post","LEFT","LEFT","f","1","true","","","",""
"","html-keyboard-response","280","515402","0.0-472.0","5bdwq9g0","1920","1080","","","","","","","","","","","null","+","Fixation - short","","null","","","","","","","","","","","","","","","","",""
"","html-keyboard-response","281","516404","0.0-473.0","5bdwq9g0","","","","","","","","","","","","","1001","ydi","Diagnostic trial","","f","","6","3","7","false","false","true","both pre & post","RIGHT","LEFT","f","1","false","","","",""
"","html-keyboard-response","282","517157","0.0-476.0","5bdwq9g0","1920","1080","","","","","","","","","","","null","+","Fixation - short","","null","","","","","","","","","","","","","","","","",""
"","html-keyboard-response","283","517780","0.0-477.0","5bdwq9g0","","","","","","","","","","","","","622","ydi","Diagnostic trial","","f","","6","4","7","false","false","true","both pre & post","RIGHT","LEFT","f","1","false","","","",""
"","html-keyboard-response","284","518541","0.0-480.0","5bdwq9g0","1920","1080","","","","","","","","","","","null","+","Fixation - short","","null","","","","","","","","","","","","","","","","",""
"","html-keyboard-response","285","519251","0.0-481.0","5bdwq9g0","","","","","","","","","","","","","710","ydi","Diagnostic trial","","f","","6","5","7","false","false","true","both pre & post","RIGHT","LEFT","f","1","false","","","",""
"","html-keyboard-response","286","520003","0.0-484.0","5bdwq9g0","1920","1080","","","","","","","","","","","null","+","Fixation - short","","null","","","","","","","","","","","","","","","","",""
"","html-keyboard-response","287","520692","0.0-485.0","5bdwq9g0","","","","","","","","","","","","","688","jft","Diagnostic trial","","f","","6","6","7","false","false","true","both pre & post","LEFT","LEFT","f","1","true","","","",""
"","html-keyboard-response","288","521457","0.0-488.0","5bdwq9g0","1920","1080","","","","","","","","","","","null","+","Fixation - short","","null","","","","","","","","","","","","","","","","",""
"","canvas-keyboard-response","289","522721","0.0-489.0","5bdwq9g0","","","","","","","","","","","","","null","Cue","Cue","","null","","6","6","","","false","","","","","","","","","","",""
"","html-keyboard-response","290","523480","0.0-490.0","5bdwq9g0","1920","1080","","","","","","","","","","","null","+","Fixation - short","","null","","","","","","","","","","","","","","","","",""
"","html-keyboard-response","291","524389","0.0-491.0","5bdwq9g0","","","","","","","","","","","","","908","ydi","Diagnostic trial","","j","","6","7","7","true","false","false","both pre & post","RIGHT","RIGHT","j","1","true","","","",""
"","html-keyboard-response","292","525154","0.0-494.0","5bdwq9g0","1920","1080","","","","","","","","","","","null","+","Fixation - short","","null","","","","","","","","","","","","","","","","",""
"","html-keyboard-response","293","525780","0.0-495.0","5bdwq9g0","","","","","","","","","","","","","625","ydi","Diagnostic trial","","j","","6","8","7","true","false","false","both pre & post","RIGHT","RIGHT","j","1","true","","","",""
"","html-keyboard-response","294","526539","0.0-498.0","5bdwq9g0","1920","1080","","","","","","","","","","","null","+","Fixation - short","","null","","","","","","","","","","","","","","","","",""
"","html-keyboard-response","295","527284","0.0-499.0","5bdwq9g0","","","","","","","","","","","","","744","ydi","Inducer trial","","j","","6","","","","true","","","","","j","1","","false","RIGHT","",""
"","html-keyboard-response","296","528046","0.0-502.0","5bdwq9g0","1920","1080","","","","","","","","","","","null","+","Fixation - short","","null","","","","","","","","","","","","","","","","",""
"","html-keyboard-response","297","531716","0.0-503.0","5bdwq9g0","","","","","","","","","","","","","3668","If pbz press LEFT | If guf press RIGHT","Inducer instructions",""," ","","7","","","","","","","","","","","","","","",""
"","html-keyboard-response","298","532473","0.0-504.0","5bdwq9g0","1920","1080","","","","","","","","","","","null","+","Fixation - short","","null","","","","","","","","","","","","","","","","",""
"","html-keyboard-response","299","533316","0.0-505.0","5bdwq9g0","","","","","","","","","","","","","841","pbz","Diagnostic trial","","j","","7","0","10","false","false","false","both pre & post","LEFT","RIGHT","j","1","false","","","",""
"","html-keyboard-response","300","534069","0.0-508.0","5bdwq9g0","1920","1080","","","","","","","","","","","null","+","Fixation - short","","null","","","","","","","","","","","","","","","","",""
"","html-keyboard-response","301","534804","0.0-509.0","5bdwq9g0","","","","","","","","","","","","","734","guf","Diagnostic trial","","f","","7","1","10","false","false","true","both pre & post","RIGHT","LEFT","f","1","false","","","",""
"","html-keyboard-response","302","535558","0.0-512.0","5bdwq9g0","1920","1080","","","","","","","","","","","null","+","Fixation - short","","null","","","","","","","","","","","","","","","","",""
"","html-keyboard-response","303","536339","0.0-513.0","5bdwq9g0","","","","","","","","","","","","","780","pbz","Diagnostic trial","","j","","7","2","10","false","false","false","both pre & post","LEFT","RIGHT","j","1","false","","","",""
"","html-keyboard-response","304","537093","0.0-516.0","5bdwq9g0","1920","1080","","","","","","","","","","","null","+","Fixation - short","","null","","","","","","","","","","","","","","","","",""
"","html-keyboard-response","305","538051","0.0-517.0","5bdwq9g0","","","","","","","","","","","","","957","pbz","Diagnostic trial","","f","","7","3","10","false","false","true","both pre & post","LEFT","LEFT","f","1","true","","","",""
"","html-keyboard-response","306","538816","0.0-520.0","5bdwq9g0","1920","1080","","","","","","","","","","","null","+","Fixation - short","","null","","","","","","","","","","","","","","","","",""
"","html-keyboard-response","307","539508","0.0-521.0","5bdwq9g0","","","","","","","","","","","","","690","pbz","Diagnostic trial","","j","","7","4","10","false","false","false","both pre & post","LEFT","RIGHT","j","1","false","","","",""
"","html-keyboard-response","308","540264","0.0-524.0","5bdwq9g0","1920","1080","","","","","","","","","","","null","+","Fixation - short","","null","","","","","","","","","","","","","","","","",""
"","html-keyboard-response","309","541043","0.0-525.0","5bdwq9g0","","","","","","","","","","","","","778","guf","Diagnostic trial","","j","","7","5","10","false","false","false","both pre & post","RIGHT","RIGHT","j","1","true","","","",""
"","html-keyboard-response","310","541800","0.0-528.0","5bdwq9g0","1920","1080","","","","","","","","","","","null","+","Fixation - short","","null","","","","","","","","","","","","","","","","",""
"","html-keyboard-response","311","542483","0.0-529.0","5bdwq9g0","","","","","","","","","","","","","682","guf","Diagnostic trial","","j","","7","6","10","false","false","false","both pre & post","RIGHT","RIGHT","j","1","true","","","",""
"","html-keyboard-response","312","543242","0.0-532.0","5bdwq9g0","1920","1080","","","","","","","","","","","null","+","Fixation - short","","null","","","","","","","","","","","","","","","","",""
"","html-keyboard-response","313","544051","0.0-533.0","5bdwq9g0","","","","","","","","","","","","","808","guf","Diagnostic trial","","j","","7","7","10","false","false","true","both pre & post","RIGHT","LEFT","f","0","false","","","",""
"","call-function","314","544052","0.0-535.0-0.0","5bdwq9g0","","","","","","","","","","","","","","","","","","","","","","","","","","","","","","","","","",""
"","html-keyboard-response","315","544366","0.0-535.0-1.0","5bdwq9g0","1920","1080","","","","","","","","","","","null","Wrong","Feedback","","null","","","","","","","","","","","","","","","","",""
"","call-function","316","544367","0.0-535.0-2.0","5bdwq9g0","","","","","","","","","","","","","","","","","","","","","","","","","","","","","","","","","",""
"","html-keyboard-response","317","545119","0.0-536.0","5bdwq9g0","1920","1080","","","","","","","","","","","null","+","Fixation - short","","null","","","","","","","","","","","","","","","","",""
"","html-keyboard-response","318","546149","0.0-537.0","5bdwq9g0","","","","","","","","","","","","","1029","guf","Diagnostic trial","","f","","7","8","10","false","false","true","both pre & post","RIGHT","LEFT","f","1","false","","","",""
"","html-keyboard-response","319","546913","0.0-540.0","5bdwq9g0","1920","1080","","","","","","","","","","","null","+","Fixation - short","","null","","","","","","","","","","","","","","","","",""
"","html-keyboard-response","320","547604","0.0-541.0","5bdwq9g0","","","","","","","","","","","","","690","pbz","Diagnostic trial","","f","","7","9","10","false","false","true","both pre & post","LEFT","LEFT","f","1","true","","","",""
"","html-keyboard-response","321","548368","0.0-544.0","5bdwq9g0","1920","1080","","","","","","","","","","","null","+","Fixation - short","","null","","","","","","","","","","","","","","","","",""
"","canvas-keyboard-response","322","549625","0.0-545.0","5bdwq9g0","","","","","","","","","","","","","null","Cue","Cue","","null","","7","9","","","false","","","","","","","","","","",""
"","html-keyboard-response","323","550391","0.0-546.0","5bdwq9g0","1920","1080","","","","","","","","","","","null","+","Fixation - short","","null","","","","","","","","","","","","","","","","",""
"","html-keyboard-response","324","551140","0.0-547.0","5bdwq9g0","","","","","","","","","","","","","747","pbz","Diagnostic trial","","f","","7","10","10","true","false","true","both pre & post","LEFT","LEFT","f","1","true","","","",""
"","html-keyboard-response","325","551894","0.0-550.0","5bdwq9g0","1920","1080","","","","","","","","","","","null","+","Fixation - short","","null","","","","","","","","","","","","","","","","",""
"","html-keyboard-response","326","552996","0.0-551.0","5bdwq9g0","","","","","","","","","","","","","1101","guf","Diagnostic trial","","j","","7","11","10","true","false","false","both pre & post","RIGHT","RIGHT","j","1","true","","","",""
"","html-keyboard-response","327","553757","0.0-554.0","5bdwq9g0","1920","1080","","","","","","","","","","","null","+","Fixation - short","","null","","","","","","","","","","","","","","","","",""
"","html-keyboard-response","328","554676","0.0-555.0","5bdwq9g0","","","","","","","","","","","","","918","guf","Diagnostic trial","","f","","7","12","10","true","false","true","both pre & post","RIGHT","LEFT","f","1","false","","","",""
"","html-keyboard-response","329","555427","0.0-558.0","5bdwq9g0","1920","1080","","","","","","","","","","","null","+","Fixation - short","","null","","","","","","","","","","","","","","","","",""
"","html-keyboard-response","330","556692","0.0-559.0","5bdwq9g0","","","","","","","","","","","","","1264","guf","Inducer trial","","j","","7","","","","true","","","","","j","1","","false","RIGHT","",""
"","html-keyboard-response","331","557453","0.0-562.0","5bdwq9g0","1920","1080","","","","","","","","","","","null","+","Fixation - short","","null","","","","","","","","","","","","","","","","",""
"","html-keyboard-response","332","561268","0.0-563.0","5bdwq9g0","","","","","","","","","","","","","3814","If sdw press LEFT | If cpt press RIGHT","Inducer instructions",""," ","","8","","","","","","","","","","","","","","",""
"","html-keyboard-response","333","562027","0.0-564.0","5bdwq9g0","1920","1080","","","","","","","","","","","null","+","Fixation - short","","null","","","","","","","","","","","","","","","","",""
"","html-keyboard-response","334","562852","0.0-565.0","5bdwq9g0","","","","","","","","","","","","","824","sdw","Diagnostic trial","","f","","8","0","5","false","false","true","both pre & post","LEFT","LEFT","f","1","true","","","",""
"","html-keyboard-response","335","563606","0.0-568.0","5bdwq9g0","1920","1080","","","","","","","","","","","null","+","Fixation - short","","null","","","","","","","","","","","","","","","","",""
"","html-keyboard-response","336","564292","0.0-569.0","5bdwq9g0","","","","","","","","","","","","","684","cpt","Diagnostic trial","","j","","8","1","5","false","false","false","both pre & post","RIGHT","RIGHT","j","1","true","","","",""
"","html-keyboard-response","337","565052","0.0-572.0","5bdwq9g0","1920","1080","","","","","","","","","","","null","+","Fixation - short","","null","","","","","","","","","","","","","","","","",""
"","html-keyboard-response","338","566148","0.0-573.0","5bdwq9g0","","","","","","","","","","","","","1094","sdw","Diagnostic trial","","j","","8","2","5","false","false","false","both pre & post","LEFT","RIGHT","j","1","false","","","",""
"","html-keyboard-response","339","566913","0.0-576.0","5bdwq9g0","1920","1080","","","","","","","","","","","null","+","Fixation - short","","null","","","","","","","","","","","","","","","","",""
"","html-keyboard-response","340","567876","0.0-577.0","5bdwq9g0","","","","","","","","","","","","","962","sdw","Diagnostic trial","","j","","8","3","5","false","false","false","both pre & post","LEFT","RIGHT","j","1","false","","","",""
"","html-keyboard-response","341","568632","0.0-580.0","5bdwq9g0","1920","1080","","","","","","","","","","","null","+","Fixation - short","","null","","","","","","","","","","","","","","","","",""
"","html-keyboard-response","342","569124","0.0-581.0","5bdwq9g0","","","","","","","","","","","","","490","sdw","Diagnostic trial","","j","","8","4","5","false","false","false","both pre & post","LEFT","RIGHT","j","1","false","","","",""
"","html-keyboard-response","343","569891","0.0-584.0","5bdwq9g0","1920","1080","","","","","","","","","","","null","+","Fixation - short","","null","","","","","","","","","","","","","","","","",""
"","canvas-keyboard-response","344","571150","0.0-585.0","5bdwq9g0","","","","","","","","","","","","","null","Cue","Cue","","null","","8","4","","","false","","","","","","","","","","",""
"","html-keyboard-response","345","571904","0.0-586.0","5bdwq9g0","1920","1080","","","","","","","","","","","null","+","Fixation - short","","null","","","","","","","","","","","","","","","","",""
"","html-keyboard-response","346","572484","0.0-587.0","5bdwq9g0","","","","","","","","","","","","","578","sdw","Diagnostic trial","","j","","8","5","5","true","false","false","both pre & post","LEFT","RIGHT","j","1","false","","","",""
"","html-keyboard-response","347","573238","0.0-590.0","5bdwq9g0","1920","1080","","","","","","","","","","","null","+","Fixation - short","","null","","","","","","","","","","","","","","","","",""
"","html-keyboard-response","348","573748","0.0-591.0","5bdwq9g0","","","","","","","","","","","","","509","sdw","Diagnostic trial","","f","","8","6","5","true","false","true","both pre & post","LEFT","LEFT","f","1","true","","","",""
"","html-keyboard-response","349","574512","0.0-594.0","5bdwq9g0","1920","1080","","","","","","","","","","","null","+","Fixation - short","","null","","","","","","","","","","","","","","","","",""
"","html-keyboard-response","350","575636","0.0-595.0","5bdwq9g0","","","","","","","","","","","","","1123","cpt","Diagnostic trial","","f","","8","7","5","true","false","true","both pre & post","RIGHT","LEFT","f","1","false","","","",""
"","html-keyboard-response","351","576399","0.0-598.0","5bdwq9g0","1920","1080","","","","","","","","","","","null","+","Fixation - short","","null","","","","","","","","","","","","","","","","",""
"","html-keyboard-response","352","577428","0.0-599.0","5bdwq9g0","","","","","","","","","","","","","1028","sdw","Inducer trial","","f","","8","","","","true","","","","","f","1","","false","LEFT","",""
"","html-keyboard-response","353","578193","0.0-602.0","5bdwq9g0","1920","1080","","","","","","","","","","","null","+","Fixation - short","","null","","","","","","","","","","","","","","","","",""
"","html-keyboard-response","354","581045","0.0-603.0","5bdwq9g0","","","","","","","","","","","","","2850","If dgv press LEFT | If vle press RIGHT","Inducer instructions",""," ","","9","","","","","","","","","","","","","","",""
"","html-keyboard-response","355","581801","0.0-604.0","5bdwq9g0","1920","1080","","","","","","","","","","","null","+","Fixation - short","","null","","","","","","","","","","","","","","","","",""
"","html-keyboard-response","356","582725","0.0-605.0","5bdwq9g0","","","","","","","","","","","","","922","vle","Diagnostic trial","","j","","9","0","10","false","false","false","both pre & post","RIGHT","RIGHT","j","1","true","","","",""
"","html-keyboard-response","357","583477","0.0-608.0","5bdwq9g0","1920","1080","","","","","","","","","","","null","+","Fixation - short","","null","","","","","","","","","","","","","","","","",""
"","html-keyboard-response","358","584116","0.0-609.0","5bdwq9g0","","","","","","","","","","","","","637","vle","Diagnostic trial","","f","","9","1","10","false","false","true","both pre & post","RIGHT","LEFT","f","1","false","","","",""
"","html-keyboard-response","359","584874","0.0-612.0","5bdwq9g0","1920","1080","","","","","","","","","","","null","+","Fixation - short","","null","","","","","","","","","","","","","","","","",""
"","html-keyboard-response","360","585571","0.0-613.0","5bdwq9g0","","","","","","","","","","","","","696","vle","Diagnostic trial","","j","","9","2","10","false","false","false","both pre & post","RIGHT","RIGHT","j","1","true","","","",""
"","html-keyboard-response","361","586333","0.0-616.0","5bdwq9g0","1920","1080","","","","","","","","","","","null","+","Fixation - short","","null","","","","","","","","","","","","","","","","",""
"","html-keyboard-response","362","587012","0.0-617.0","5bdwq9g0","","","","","","","","","","","","","677","vle","Diagnostic trial","","j","","9","3","10","false","false","false","both pre & post","RIGHT","RIGHT","j","1","true","","","",""
"","html-keyboard-response","363","587777","0.0-620.0","5bdwq9g0","1920","1080","","","","","","","","","","","null","+","Fixation - short","","null","","","","","","","","","","","","","","","","",""
"","html-keyboard-response","364","588420","0.0-621.0","5bdwq9g0","","","","","","","","","","","","","642","vle","Diagnostic trial","","f","","9","4","10","false","false","true","both pre & post","RIGHT","LEFT","f","1","false","","","",""
"","html-keyboard-response","365","589186","0.0-624.0","5bdwq9g0","1920","1080","","","","","","","","","","","null","+","Fixation - short","","null","","","","","","","","","","","","","","","","",""
"","html-keyboard-response","366","590164","0.0-625.0","5bdwq9g0","","","","","","","","","","","","","976","vle","Diagnostic trial","","j","","9","5","10","false","false","false","both pre & post","RIGHT","RIGHT","j","1","true","","","",""
"","html-keyboard-response","367","590923","0.0-628.0","5bdwq9g0","1920","1080","","","","","","","","","","","null","+","Fixation - short","","null","","","","","","","","","","","","","","","","",""
"","html-keyboard-response","368","592052","0.0-629.0","5bdwq9g0","","","","","","","","","","","","","1128","dgv","Diagnostic trial","","f","","9","6","10","false","false","true","both pre & post","LEFT","LEFT","f","1","true","","","",""
"","html-keyboard-response","369","592812","0.0-632.0","5bdwq9g0","1920","1080","","","","","","","","","","","null","+","Fixation - short","","null","","","","","","","","","","","","","","","","",""
"","html-keyboard-response","370","593668","0.0-633.0","5bdwq9g0","","","","","","","","","","","","","855","dgv","Diagnostic trial","","j","","9","7","10","false","false","false","both pre & post","LEFT","RIGHT","j","1","false","","","",""
"","html-keyboard-response","371","594423","0.0-636.0","5bdwq9g0","1920","1080","","","","","","","","","","","null","+","Fixation - short","","null","","","","","","","","","","","","","","","","",""
"","html-keyboard-response","372","595172","0.0-637.0","5bdwq9g0","","","","","","","","","","","","","747","vle","Diagnostic trial","","j","","9","8","10","false","false","false","both pre & post","RIGHT","RIGHT","j","1","true","","","",""
"","html-keyboard-response","373","595932","0.0-640.0","5bdwq9g0","1920","1080","","","","","","","","","","","null","+","Fixation - short","","null","","","","","","","","","","","","","","","","",""
"","html-keyboard-response","374","596532","0.0-641.0","5bdwq9g0","","","","","","","","","","","","","598","vle","Diagnostic trial","","j","","9","9","10","false","false","false","both pre & post","RIGHT","RIGHT","j","1","true","","","",""
"","html-keyboard-response","375","597284","0.0-644.0","5bdwq9g0","1920","1080","","","","","","","","","","","null","+","Fixation - short","","null","","","","","","","","","","","","","","","","",""
"","canvas-keyboard-response","376","598545","0.0-645.0","5bdwq9g0","","","","","","","","","","","","","null","Cue","Cue","","null","","9","9","","","false","","","","","","","","","","",""
"","html-keyboard-response","377","599310","0.0-646.0","5bdwq9g0","1920","1080","","","","","","","","","","","null","+","Fixation - short","","null","","","","","","","","","","","","","","","","",""
"","html-keyboard-response","378","600004","0.0-647.0","5bdwq9g0","","","","","","","","","","","","","693","vle","Diagnostic trial","","j","","9","10","10","true","false","false","both pre & post","RIGHT","RIGHT","j","1","true","","","",""
"","html-keyboard-response","379","600769","0.0-650.0","5bdwq9g0","1920","1080","","","","","","","","","","","null","+","Fixation - short","","null","","","","","","","","","","","","","","","","",""
"","html-keyboard-response","380","601379","0.0-651.0","5bdwq9g0","","","","","","","","","","","","","610","vle","Diagnostic trial","","j","","9","11","10","true","false","false","both pre & post","RIGHT","RIGHT","j","1","true","","","",""
"","html-keyboard-response","381","602134","0.0-654.0","5bdwq9g0","1920","1080","","","","","","","","","","","null","+","Fixation - short","","null","","","","","","","","","","","","","","","","",""
"","html-keyboard-response","382","602709","0.0-655.0","5bdwq9g0","","","","","","","","","","","","","574","vle","Diagnostic trial","","j","","9","12","10","true","false","false","both pre & post","RIGHT","RIGHT","j","1","true","","","",""
"","html-keyboard-response","383","603471","0.0-658.0","5bdwq9g0","1920","1080","","","","","","","","","","","null","+","Fixation - short","","null","","","","","","","","","","","","","","","","",""
"","html-keyboard-response","384","604116","0.0-659.0","5bdwq9g0","","","","","","","","","","","","","643","vle","Inducer trial","","j","","9","","","","true","","","","","j","1","","false","RIGHT","",""
"","html-keyboard-response","385","604880","0.0-662.0","5bdwq9g0","1920","1080","","","","","","","","","","","null","+","Fixation - short","","null","","","","","","","","","","","","","","","","",""
"","html-keyboard-response","386","610196","0.0-663.0","5bdwq9g0","","","","","","","","","","","","","5315","If edc press LEFT | If ibg press RIGHT","Inducer instructions",""," ","","10","","","","","","","","","","","","","","",""
"","html-keyboard-response","387","610954","0.0-664.0","5bdwq9g0","1920","1080","","","","","","","","","","","null","+","Fixation - short","","null","","","","","","","","","","","","","","","","",""
"","html-keyboard-response","388","611828","0.0-665.0","5bdwq9g0","","","","","","","","","","","","","872","ibg","Diagnostic trial","","f","","10","0","4","false","false","true","both pre & post","RIGHT","LEFT","f","1","false","","","",""
"","html-keyboard-response","389","612583","0.0-668.0","5bdwq9g0","1920","1080","","","","","","","","","","","null","+","Fixation - short","","null","","","","","","","","","","","","","","","","",""
"","html-keyboard-response","390","613909","0.0-669.0","5bdwq9g0","","","","","","","","","","","","","1325","edc","Diagnostic trial","","j","","10","1","4","false","false","false","both pre & post","LEFT","RIGHT","j","1","false","","","",""
"","html-keyboard-response","391","614675","0.0-672.0","5bdwq9g0","1920","1080","","","","","","","","","","","null","+","Fixation - short","","null","","","","","","","","","","","","","","","","",""
"","html-keyboard-response","392","615315","0.0-673.0","5bdwq9g0","","","","","","","","","","","","","639","edc","Diagnostic trial","","f","","10","2","4","false","false","true","both pre & post","LEFT","LEFT","f","1","true","","","",""
"","html-keyboard-response","393","616071","0.0-676.0","5bdwq9g0","1920","1080","","","","","","","","","","","null","+","Fixation - short","","null","","","","","","","","","","","","","","","","",""
"","html-keyboard-response","394","616739","0.0-677.0","5bdwq9g0","","","","","","","","","","","","","667","ibg","Diagnostic trial","","f","","10","3","4","false","false","true","both pre & post","RIGHT","LEFT","f","1","false","","","",""
"","html-keyboard-response","395","617497","0.0-680.0","5bdwq9g0","1920","1080","","","","","","","","","","","null","+","Fixation - short","","null","","","","","","","","","","","","","","","","",""
"","canvas-keyboard-response","396","618755","0.0-681.0","5bdwq9g0","","","","","","","","","","","","","null","Cue","Cue","","null","","10","3","","","false","","","","","","","","","","",""
"","html-keyboard-response","397","619510","0.0-682.0","5bdwq9g0","1920","1080","","","","","","","","","","","null","+","Fixation - short","","null","","","","","","","","","","","","","","","","",""
"","html-keyboard-response","398","620308","0.0-683.0","5bdwq9g0","","","","","","","","","","","","","797","ibg","Diagnostic trial","","f","","10","4","4","true","false","true","both pre & post","RIGHT","LEFT","f","1","false","","","",""
"","html-keyboard-response","399","621062","0.0-686.0","5bdwq9g0","1920","1080","","","","","","","","","","","null","+","Fixation - short","","null","","","","","","","","","","","","","","","","",""
"","html-keyboard-response","400","621699","0.0-687.0","5bdwq9g0","","","","","","","","","","","","","636","edc","Diagnostic trial","","j","","10","5","4","true","false","false","both pre & post","LEFT","RIGHT","j","1","false","","","",""
"","html-keyboard-response","401","622460","0.0-690.0","5bdwq9g0","1920","1080","","","","","","","","","","","null","+","Fixation - short","","null","","","","","","","","","","","","","","","","",""
"","html-keyboard-response","402","623107","0.0-691.0","5bdwq9g0","","","","","","","","","","","","","646","ibg","Diagnostic trial","","j","","10","6","4","true","false","false","both pre & post","RIGHT","RIGHT","j","1","true","","","",""
"","html-keyboard-response","403","623873","0.0-694.0","5bdwq9g0","1920","1080","","","","","","","","","","","null","+","Fixation - short","","null","","","","","","","","","","","","","","","","",""
"","html-keyboard-response","404","624516","0.0-695.0","5bdwq9g0","","","","","","","","","","","","","642","edc","Diagnostic trial","","f","","10","7","4","true","false","true","both pre & post","LEFT","LEFT","f","1","true","","","",""
"","html-keyboard-response","405","625270","0.0-698.0","5bdwq9g0","1920","1080","","","","","","","","","","","null","+","Fixation - short","","null","","","","","","","","","","","","","","","","",""
"","html-keyboard-response","406","626468","0.0-699.0","5bdwq9g0","","","","","","","","","","","","","1197","ibg","Inducer trial","","j","","10","","","","true","","","","","j","1","","false","RIGHT","",""
"","html-keyboard-response","407","627233","0.0-702.0","5bdwq9g0","1920","1080","","","","","","","","","","","null","+","Fixation - short","","null","","","","","","","","","","","","","","","","",""
"","html-keyboard-response","408","632468","0.0-703.0","5bdwq9g0","","","","","","","","","","","","","5234","If jey press LEFT | If pmf press RIGHT","Inducer instructions",""," ","","11","","","","","","","","","","","","","","",""
"","html-keyboard-response","409","633234","0.0-704.0","5bdwq9g0","1920","1080","","","","","","","","","","","null","+","Fixation - short","","null","","","","","","","","","","","","","","","","",""
"","html-keyboard-response","410","634132","0.0-705.0","5bdwq9g0","","","","","","","","","","","","","897","jey","Diagnostic trial","","f","","11","0","7","false","false","false","both pre & post","LEFT","RIGHT","j","0","false","","","",""
"","call-function","411","634133","0.0-707.0-0.0","5bdwq9g0","","","","","","","","","","","","","","","","","","","","","","","","","","","","","","","","","",""
"","html-keyboard-response","412","634445","0.0-707.0-1.0","5bdwq9g0","1920","1080","","","","","","","","","","","null","Wrong","Feedback","","null","","","","","","","","","","","","","","","","",""
"","call-function","413","634445","0.0-707.0-2.0","5bdwq9g0","","","","","","","","","","","","","","","","","","","","","","","","","","","","","","","","","",""
"","html-keyboard-response","414","635197","0.0-708.0","5bdwq9g0","1920","1080","","","","","","","","","","","null","+","Fixation - short","","null","","","","","","","","","","","","","","","","",""
"","html-keyboard-response","415","636420","0.0-709.0","5bdwq9g0","","","","","","","","","","","","","1222","jey","Diagnostic trial","","f","","11","1","7","false","false","true","both pre & post","LEFT","LEFT","f","1","true","","","",""
"","html-keyboard-response","416","637179","0.0-712.0","5bdwq9g0","1920","1080","","","","","","","","","","","null","+","Fixation - short","","null","","","","","","","","","","","","","","","","",""
"","html-keyboard-response","417","638052","0.0-713.0","5bdwq9g0","","","","","","","","","","","","","872","pmf","Diagnostic trial","","j","","11","2","7","false","false","false","both pre & post","RIGHT","RIGHT","j","1","true","","","",""
"","html-keyboard-response","418","638804","0.0-716.0","5bdwq9g0","1920","1080","","","","","","","","","","","null","+","Fixation - short","","null","","","","","","","","","","","","","","","","",""
"","html-keyboard-response","419","639412","0.0-717.0","5bdwq9g0","","","","","","","","","","","","","606","pmf","Diagnostic trial","","j","","11","3","7","false","false","false","both pre & post","RIGHT","RIGHT","j","1","true","","","",""
"","html-keyboard-response","420","640172","0.0-720.0","5bdwq9g0","1920","1080","","","","","","","","","","","null","+","Fixation - short","","null","","","","","","","","","","","","","","","","",""
"","html-keyboard-response","421","640756","0.0-721.0","5bdwq9g0","","","","","","","","","","","","","583","pmf","Diagnostic trial","","f","","11","4","7","false","false","true","both pre & post","RIGHT","LEFT","f","1","false","","","",""
"","html-keyboard-response","422","641522","0.0-724.0","5bdwq9g0","1920","1080","","","","","","","","","","","null","+","Fixation - short","","null","","","","","","","","","","","","","","","","",""
"","html-keyboard-response","423","642244","0.0-725.0","5bdwq9g0","","","","","","","","","","","","","721","pmf","Diagnostic trial","","j","","11","5","7","false","false","false","both pre & post","RIGHT","RIGHT","j","1","true","","","",""
"","html-keyboard-response","424","643007","0.0-728.0","5bdwq9g0","1920","1080","","","","","","","","","","","null","+","Fixation - short","","null","","","","","","","","","","","","","","","","",""
"","html-keyboard-response","425","643972","0.0-729.0","5bdwq9g0","","","","","","","","","","","","","963","jey","Diagnostic trial","","j","","11","6","7","false","false","false","both pre & post","LEFT","RIGHT","j","1","false","","","",""
"","html-keyboard-response","426","644736","0.0-732.0","5bdwq9g0","1920","1080","","","","","","","","","","","null","+","Fixation - short","","null","","","","","","","","","","","","","","","","",""
"","canvas-keyboard-response","427","645995","0.0-733.0","5bdwq9g0","","","","","","","","","","","","","null","Cue","Cue","","null","","11","6","","","false","","","","","","","","","","",""
"","html-keyboard-response","428","646753","0.0-734.0","5bdwq9g0","1920","1080","","","","","","","","","","","null","+","Fixation - short","","null","","","","","","","","","","","","","","","","",""
"","html-keyboard-response","429","647444","0.0-735.0","5bdwq9g0","","","","","","","","","","","","","690","pmf","Diagnostic trial","","j","","11","7","7","true","false","false","both pre & post","RIGHT","RIGHT","j","1","true","","","",""
"","html-keyboard-response","430","648208","0.0-738.0","5bdwq9g0","1920","1080","","","","","","","","","","","null","+","Fixation - short","","null","","","","","","","","","","","","","","","","",""
"","html-keyboard-response","431","649107","0.0-739.0","5bdwq9g0","","","","","","","","","","","","","898","pmf","Inducer trial","","j","","11","","","","true","","","","","j","1","","false","RIGHT","",""
"","html-keyboard-response","432","649862","0.0-742.0","5bdwq9g0","1920","1080","","","","","","","","","","","null","+","Fixation - short","","null","","","","","","","","","","","","","","","","",""
"","html-keyboard-response","433","655107","0.0-743.0","5bdwq9g0","","","","","","","","","","","","","5244","If cmj press LEFT | If vsc press RIGHT","Inducer instructions",""," ","","12","","","","","","","","","","","","","","",""
"","html-keyboard-response","434","655869","0.0-744.0","5bdwq9g0","1920","1080","","","","","","","","","","","null","+","Fixation - short","","null","","","","","","","","","","","","","","","","",""
"","html-keyboard-response","435","656691","0.0-745.0","5bdwq9g0","","","","","","","","","","","","","821","vsc","Diagnostic trial","","f","","12","0","9","false","false","true","both pre & post","RIGHT","LEFT","f","1","false","","","",""
"","html-keyboard-response","436","657452","0.0-748.0","5bdwq9g0","1920","1080","","","","","","","","","","","null","+","Fixation - short","","null","","","","","","","","","","","","","","","","",""
"","html-keyboard-response","437","658292","0.0-749.0","5bdwq9g0","","","","","","","","","","","","","839","vsc","Diagnostic trial","","f","","12","1","9","false","false","true","both pre & post","RIGHT","LEFT","f","1","false","","","",""
"","html-keyboard-response","438","659052","0.0-752.0","5bdwq9g0","1920","1080","","","","","","","","","","","null","+","Fixation - short","","null","","","","","","","","","","","","","","","","",""
"","html-keyboard-response","439","659667","0.0-753.0","5bdwq9g0","","","","","","","","","","","","","614","vsc","Diagnostic trial","","f","","12","2","9","false","false","true","both pre & post","RIGHT","LEFT","f","1","false","","","",""
"","html-keyboard-response","440","660429","0.0-756.0","5bdwq9g0","1920","1080","","","","","","","","","","","null","+","Fixation - short","","null","","","","","","","","","","","","","","","","",""
"","html-keyboard-response","441","661076","0.0-757.0","5bdwq9g0","","","","","","","","","","","","","645","vsc","Diagnostic trial","","f","","12","3","9","false","false","true","both pre & post","RIGHT","LEFT","f","1","false","","","",""
"","html-keyboard-response","442","661838","0.0-760.0","5bdwq9g0","1920","1080","","","","","","","","","","","null","+","Fixation - short","","null","","","","","","","","","","","","","","","","",""
"","html-keyboard-response","443","662580","0.0-761.0","5bdwq9g0","","","","","","","","","","","","","740","vsc","Diagnostic trial","","j","","12","4","9","false","false","false","both pre & post","RIGHT","RIGHT","j","1","true","","","",""
"","html-keyboard-response","444","663342","0.0-764.0","5bdwq9g0","1920","1080","","","","","","","","","","","null","+","Fixation - short","","null","","","","","","","","","","","","","","","","",""
"","html-keyboard-response","445","663956","0.0-765.0","5bdwq9g0","","","","","","","","","","","","","613","vsc","Diagnostic trial","","j","","12","5","9","false","false","false","both pre & post","RIGHT","RIGHT","j","1","true","","","",""
"","html-keyboard-response","446","664720","0.0-768.0","5bdwq9g0","1920","1080","","","","","","","","","","","null","+","Fixation - short","","null","","","","","","","","","","","","","","","","",""
"","html-keyboard-response","447","665299","0.0-769.0","5bdwq9g0","","","","","","","","","","","","","578","vsc","Diagnostic trial","","j","","12","6","9","false","false","false","both pre & post","RIGHT","RIGHT","j","1","true","","","",""
"","html-keyboard-response","448","666052","0.0-772.0","5bdwq9g0","1920","1080","","","","","","","","","","","null","+","Fixation - short","","null","","","","","","","","","","","","","","","","",""
"","html-keyboard-response","449","666788","0.0-773.0","5bdwq9g0","","","","","","","","","","","","","735","cmj","Diagnostic trial","","f","","12","7","9","false","false","true","both pre & post","LEFT","LEFT","f","1","true","","","",""
"","html-keyboard-response","450","667555","0.0-776.0","5bdwq9g0","1920","1080","","","","","","","","","","","null","+","Fixation - short","","null","","","","","","","","","","","","","","","","",""
"","html-keyboard-response","451","668275","0.0-777.0","5bdwq9g0","","","","","","","","","","","","","719","vsc","Diagnostic trial","","j","","12","8","9","false","false","false","both pre & post","RIGHT","RIGHT","j","1","true","","","",""
"","html-keyboard-response","452","669031","0.0-780.0","5bdwq9g0","1920","1080","","","","","","","","","","","null","+","Fixation - short","","null","","","","","","","","","","","","","","","","",""
"","canvas-keyboard-response","453","670293","0.0-781.0","5bdwq9g0","","","","","","","","","","","","","null","Cue","Cue","","null","","12","8","","","false","","","","","","","","","","",""
"","html-keyboard-response","454","671058","0.0-782.0","5bdwq9g0","1920","1080","","","","","","","","","","","null","+","Fixation - short","","null","","","","","","","","","","","","","","","","",""
"","html-keyboard-response","455","671717","0.0-783.0","5bdwq9g0","","","","","","","","","","","","","658","cmj","Diagnostic trial","","f","","12","9","9","true","false","true","both pre & post","LEFT","LEFT","f","1","true","","","",""
"","html-keyboard-response","456","672474","0.0-786.0","5bdwq9g0","1920","1080","","","","","","","","","","","null","+","Fixation - short","","null","","","","","","","","","","","","","","","","",""
