"value","trial_type","trial_index","time_elapsed","internal_node_id","id","width","height","webaudio","browser","browser_version","mobile","os","fullscreen","vsync_rate","webcam","microphone","view_history","rt","stimulus","trial_info","success","response","exp_parameters","inducer_run","diagnostic_run","cue_num","post_cue","inducer_trial","italic","forced_equal_run","correct_inducer_response_side","correct_diag_response_side","correct_response_key","correct_response","congruent","force_equal","correct_indu_response_side","accuracy","interactive"
"","call-function","0","8","0.0-0.0","fja98dr0","","","","","","","","","","","","","","","","","","","","","","","","","","","","","","","","","",""
"","browser-check","1","1010","0.0-1.0","fja98dr0","1920","937","true","firefox","124.0.0","false","Windows 10","true","60.3","true","false","","","","","","","","","","","","","","","","","","","","","","",""
"","instructions","2","43530","0.0-2.0","fja98dr0","","","","","","","","","","","","[{""page_index"":0,""viewing_time"":18787},{""page_index"":1,""viewing_time"":18221},{""page_index"":2,""viewing_time"":5511}]","42519","The experiment and consent","The experiment and consent","","","","","","","","","","","","","","","","","","",""
"","fullscreen","3","48090","0.0-3.0","fja98dr0","","","","","","","","","","","","","3551","","Full screen","true","","","","","","","","","","","","","","","","","",""
"","instructions","4","78251","0.0-4.0","fja98dr0","","","","","","","","","","","","[{""page_index"":0,""viewing_time"":21880},{""page_index"":1,""viewing_time"":8280}]","30160","Instructions","Basic overview explanation","","","","","","","","","","","","","","","","","","",""
"","html-keyboard-response","5","93856","0.0-5.0","fja98dr0","","","","","","","","","","","","","14088","If italic press RIGHT | If upright press LEFT","Diagnostic instructions",""," ","{""debug"":false,""skip_instructions"":false,""skip_practice"":false,""save_local_data"":false,""studu_name"":""exp2"",""default_background_colour"":""#cccccc"",""wrong_response_colour"":""#d22d2d"",""instruction_delay"":20000,""trial_duration"":2000,""short_fixation"":750,""long_fixation"":1500,""wrong_response_delay"":300,""too_slow_delay"":300,""instruction_font_size"":""24px"",""general_font_size"":""42px"",""fixation_size"":""48px"",""allowed_responses"":[""f"",""j""],""cue_min_length"":0,""cue_max_length"":4,""tot_post_cue_len"":72,""cue_colour"":""blue"",""cue_shape"":""Circle"",""cue_size"":70,""cue_duration"":1250,""avg_number_of_cues"":3,""inducer_colour"":""yellow"",""number_of_inducers"":24,""pre_cue_italic_forced_equal"":true,""post_cue_italic_forced_equal"":true,""prac_diagnostic_rounds"":16,""prac_inducer_rounds"":6,""prac_cue_rounds"":16,""prac_post_cue_num"":3}","","","","","","","","","","","","","","","",""
"","html-keyboard-response","6","94616","0.0-6.0","fja98dr0","1920","1080","","","","","","","","","","","null","+","Fixation - short","","null","","","","","","","","","","","","","","","","",""
"","html-keyboard-response","7","95800","0.0-7.0","fja98dr0","","","","","","","","","","","","","1183","jlm","Diagnostic practice","","j","","Diagnostic practice","0","-84","true","false","true","prac equal","RIGHT","RIGHT","j","1","true","","","",""
"","html-keyboard-response","8","96552","0.0-10.0","fja98dr0","1920","1080","","","","","","","","","","","null","+","Fixation - short","","null","","","","","","","","","","","","","","","","",""
"","html-keyboard-response","9","97231","0.0-11.0","fja98dr0","","","","","","","","","","","","","679","bgi","Diagnostic practice","","f","","Diagnostic practice","1","-84","true","false","false","prac equal","LEFT","LEFT","f","1","true","","","",""
"","html-keyboard-response","10","97993","0.0-14.0","fja98dr0","1920","1080","","","","","","","","","","","null","+","Fixation - short","","null","","","","","","","","","","","","","","","","",""
"","html-keyboard-response","11","98623","0.0-15.0","fja98dr0","","","","","","","","","","","","","629","jlm","Diagnostic practice","","j","","Diagnostic practice","2","-84","true","false","true","prac equal","RIGHT","RIGHT","j","1","true","","","",""
"","html-keyboard-response","12","99384","0.0-18.0","fja98dr0","1920","1080","","","","","","","","","","","null","+","Fixation - short","","null","","","","","","","","","","","","","","","","",""
"","html-keyboard-response","13","100065","0.0-19.0","fja98dr0","","","","","","","","","","","","","679","jlm","Diagnostic practice","","f","","Diagnostic practice","3","-84","true","false","false","prac equal","RIGHT","LEFT","f","1","false","","","",""
"","html-keyboard-response","14","100827","0.0-22.0","fja98dr0","1920","1080","","","","","","","","","","","null","+","Fixation - short","","null","","","","","","","","","","","","","","","","",""
"","html-keyboard-response","15","101519","0.0-23.0","fja98dr0","","","","","","","","","","","","","692","bgi","Diagnostic practice","","f","","Diagnostic practice","4","-84","true","false","false","prac equal","LEFT","LEFT","f","1","true","","","",""
"","html-keyboard-response","16","102284","0.0-26.0","fja98dr0","1920","1080","","","","","","","","","","","null","+","Fixation - short","","null","","","","","","","","","","","","","","","","",""
"","html-keyboard-response","17","102928","0.0-27.0","fja98dr0","","","","","","","","","","","","","643","bgi","Diagnostic practice","","j","","Diagnostic practice","5","-84","true","false","true","prac equal","LEFT","RIGHT","j","1","false","","","",""
"","html-keyboard-response","18","103693","0.0-30.0","fja98dr0","1920","1080","","","","","","","","","","","null","+","Fixation - short","","null","","","","","","","","","","","","","","","","",""
"","html-keyboard-response","19","104399","0.0-31.0","fja98dr0","","","","","","","","","","","","","706","jlm","Diagnostic practice","","f","","Diagnostic practice","6","-84","true","false","false","prac equal","RIGHT","LEFT","f","1","false","","","",""
"","html-keyboard-response","20","105164","0.0-34.0","fja98dr0","1920","1080","","","","","","","","","","","null","+","Fixation - short","","null","","","","","","","","","","","","","","","","",""
"","html-keyboard-response","21","105823","0.0-35.0","fja98dr0","","","","","","","","","","","","","659","jlm","Diagnostic practice","","f","","Diagnostic practice","7","-84","true","false","false","prac equal","RIGHT","LEFT","f","1","false","","","",""
"","html-keyboard-response","22","106581","0.0-38.0","fja98dr0","1920","1080","","","","","","","","","","","null","+","Fixation - short","","null","","","","","","","","","","","","","","","","",""
"","html-keyboard-response","23","107239","0.0-39.0","fja98dr0","","","","","","","","","","","","","658","jlm","Diagnostic practice","","j","","Diagnostic practice","8","-84","true","false","true","prac equal","RIGHT","RIGHT","j","1","true","","","",""
"","html-keyboard-response","24","108001","0.0-42.0","fja98dr0","1920","1080","","","","","","","","","","","null","+","Fixation - short","","null","","","","","","","","","","","","","","","","",""
"","html-keyboard-response","25","108591","0.0-43.0","fja98dr0","","","","","","","","","","","","","590","bgi","Diagnostic practice","","f","","Diagnostic practice","9","-84","true","false","false","prac equal","LEFT","LEFT","f","1","true","","","",""
"","html-keyboard-response","26","109355","0.0-46.0","fja98dr0","1920","1080","","","","","","","","","","","null","+","Fixation - short","","null","","","","","","","","","","","","","","","","",""
"","html-keyboard-response","27","109959","0.0-47.0","fja98dr0","","","","","","","","","","","","","603","jlm","Diagnostic practice","","j","","Diagnostic practice","10","-84","true","false","true","prac equal","RIGHT","RIGHT","j","1","true","","","",""
"","html-keyboard-response","28","110717","0.0-50.0","fja98dr0","1920","1080","","","","","","","","","","","null","+","Fixation - short","","null","","","","","","","","","","","","","","","","",""
"","html-keyboard-response","29","111368","0.0-51.0","fja98dr0","","","","","","","","","","","","","652","jlm","Diagnostic practice","","f","","Diagnostic practice","11","-84","true","false","false","prac equal","RIGHT","LEFT","f","1","false","","","",""
"","html-keyboard-response","30","112132","0.0-54.0","fja98dr0","1920","1080","","","","","","","","","","","null","+","Fixation - short","","null","","","","","","","","","","","","","","","","",""
"","html-keyboard-response","31","112720","0.0-55.0","fja98dr0","","","","","","","","","","","","","587","bgi","Diagnostic practice","","j","","Diagnostic practice","12","-84","true","false","true","prac equal","LEFT","RIGHT","j","1","false","","","",""
"","html-keyboard-response","32","113478","0.0-58.0","fja98dr0","1920","1080","","","","","","","","","","","null","+","Fixation - short","","null","","","","","","","","","","","","","","","","",""
"","html-keyboard-response","33","114055","0.0-59.0","fja98dr0","","","","","","","","","","","","","577","bgi","Diagnostic practice","","j","","Diagnostic practice","13","-84","true","false","true","prac equal","LEFT","RIGHT","j","1","false","","","",""
"","html-keyboard-response","34","114819","0.0-62.0","fja98dr0","1920","1080","","","","","","","","","","","null","+","Fixation - short","","null","","","","","","","","","","","","","","","","",""
"","html-keyboard-response","35","115296","0.0-63.0","fja98dr0","","","","","","","","","","","","","476","bgi","Diagnostic practice","","j","","Diagnostic practice","14","-84","true","false","true","prac equal","LEFT","RIGHT","j","1","false","","","",""
"","html-keyboard-response","36","116058","0.0-66.0","fja98dr0","1920","1080","","","","","","","","","","","null","+","Fixation - short","","null","","","","","","","","","","","","","","","","",""
"","html-keyboard-response","37","116575","0.0-67.0","fja98dr0","","","","","","","","","","","","","516","bgi","Diagnostic practice","","f","","Diagnostic practice","15","-84","true","false","false","prac equal","LEFT","LEFT","f","1","true","","","",""
"","html-keyboard-response","38","117329","0.0-70.0","fja98dr0","1920","1080","","","","","","","","","","","null","+","Fixation - short","","null","","","","","","","","","","","","","","","","",""
"","instructions","39","124159","0.0-71.0","fja98dr0","","","","","","","","","","","","[{""page_index"":0,""viewing_time"":6830}]","6830","Instructions","Final experiment explanation","","","","","","","","","","","","","","","","","","",""
"","html-keyboard-response","40","133656","0.0-72.0","fja98dr0","","","","","","","","","","","","","7862","If ttm press RIGHT | If kmh press LEFT","Inducer practice",""," ","","Practice","","","","","","","","","","","","","","",""
"","html-keyboard-response","41","134419","0.0-73.0","fja98dr0","1920","1080","","","","","","","","","","","null","+","Fixation - short","","null","","","","","","","","","","","","","","","","",""
"","html-keyboard-response","42","135064","0.0-74.0","fja98dr0","","","","","","","","","","","","","645","kmh","Inducer practice","","f","","Practice","","","","true","","","","","f","1","","true","LEFT","",""
"","html-keyboard-response","43","135829","0.0-77.0","fja98dr0","1920","1080","","","","","","","","","","","null","+","Fixation - short","","null","","","","","","","","","","","","","","","","",""
"","html-keyboard-response","44","138967","0.0-78.0","fja98dr0","","","","","","","","","","","","","3138","If zpl press RIGHT | If hrc press LEFT","Inducer practice",""," ","","Practice","","","","","","","","","","","","","","",""
"","html-keyboard-response","45","139731","0.0-79.0","fja98dr0","1920","1080","","","","","","","","","","","null","+","Fixation - short","","null","","","","","","","","","","","","","","","","",""
"","html-keyboard-response","46","140343","0.0-80.0","fja98dr0","","","","","","","","","","","","","612","hrc","Inducer practice","","f","","Practice","","","","true","","","","","f","1","","true","LEFT","",""
"","html-keyboard-response","47","141107","0.0-83.0","fja98dr0","1920","1080","","","","","","","","","","","null","+","Fixation - short","","null","","","","","","","","","","","","","","","","",""
"","html-keyboard-response","48","143615","0.0-84.0","fja98dr0","","","","","","","","","","","","","2507","If vib press RIGHT | If fja press LEFT","Inducer practice",""," ","","Practice","","","","","","","","","","","","","","",""
"","html-keyboard-response","49","144375","0.0-85.0","fja98dr0","1920","1080","","","","","","","","","","","null","+","Fixation - short","","null","","","","","","","","","","","","","","","","",""
"","html-keyboard-response","50","144904","0.0-86.0","fja98dr0","","","","","","","","","","","","","529","vib","Inducer practice","","j","","Practice","","","","true","","","","","j","1","","true","RIGHT","",""
"","html-keyboard-response","51","145668","0.0-89.0","fja98dr0","1920","1080","","","","","","","","","","","null","+","Fixation - short","","null","","","","","","","","","","","","","","","","",""
"","html-keyboard-response","52","147079","0.0-90.0","fja98dr0","","","","","","","","","","","","","1411","If eht press RIGHT | If vnn press LEFT","Inducer practice",""," ","","Practice","","","","","","","","","","","","","","",""
"","html-keyboard-response","53","147839","0.0-91.0","fja98dr0","1920","1080","","","","","","","","","","","null","+","Fixation - short","","null","","","","","","","","","","","","","","","","",""
"","html-keyboard-response","54","148375","0.0-92.0","fja98dr0","","","","","","","","","","","","","536","eht","Inducer practice","","j","","Practice","","","","true","","","","","j","1","","true","RIGHT","",""
"","html-keyboard-response","55","149137","0.0-95.0","fja98dr0","1920","1080","","","","","","","","","","","null","+","Fixation - short","","null","","","","","","","","","","","","","","","","",""
"","html-keyboard-response","56","150136","0.0-96.0","fja98dr0","","","","","","","","","","","","","998","If cpt press RIGHT | If vsc press LEFT","Inducer practice",""," ","","Practice","","","","","","","","","","","","","","",""
"","html-keyboard-response","57","150892","0.0-97.0","fja98dr0","1920","1080","","","","","","","","","","","null","+","Fixation - short","","null","","","","","","","","","","","","","","","","",""
"","html-keyboard-response","58","151511","0.0-98.0","fja98dr0","","","","","","","","","","","","","618","vsc","Inducer practice","","f","","Practice","","","","true","","","","","f","1","","true","LEFT","",""
"","html-keyboard-response","59","152275","0.0-101.0","fja98dr0","1920","1080","","","","","","","","","","","null","+","Fixation - short","","null","","","","","","","","","","","","","","","","",""
"","html-keyboard-response","60","155648","0.0-102.0","fja98dr0","","","","","","","","","","","","","3372","If epy press RIGHT | If bwe press LEFT","Inducer practice",""," ","","Practice","","","","","","","","","","","","","","",""
"","html-keyboard-response","61","156399","0.0-103.0","fja98dr0","1920","1080","","","","","","","","","","","null","+","Fixation - short","","null","","","","","","","","","","","","","","","","",""
"","html-keyboard-response","62","156919","0.0-104.0","fja98dr0","","","","","","","","","","","","","521","epy","Inducer practice","","j","","Practice","","","","true","","","","","j","1","","true","RIGHT","",""
"","html-keyboard-response","63","157675","0.0-107.0","fja98dr0","1920","1080","","","","","","","","","","","null","+","Fixation - short","","null","","","","","","","","","","","","","","","","",""
"","instructions","64","190974","0.0-108.0","fja98dr0","","","","","","","","","","","","[{""page_index"":0,""viewing_time"":33298}]","33298","Instructions","Final experiment explanation","","","","","","","","","","","","","","","","","","",""
"","html-keyboard-response","65","195711","0.0-109.0","fja98dr0","","","","","","","","","","","","","3224","If dgv press RIGHT | If yrp press LEFT","Cue practice",""," ","","Practice","","","","","","","","","","","","","","",""
"","html-keyboard-response","66","196468","0.0-110.0","fja98dr0","1920","1080","","","","","","","","","","","null","+","Fixation - short","","null","","","","","","","","","","","","","","","","",""
"","html-keyboard-response","67","198767","0.0-111.0","fja98dr0","","","","","","","","","","","","","2299","dgv","Cue practice","","f","","Practice","0","13","false","false","false","both pre & post","RIGHT","LEFT","f","1","false","","","",""
"","html-keyboard-response","68","199529","0.0-114.0","fja98dr0","1920","1080","","","","","","","","","","","null","+","Fixation - short","","null","","","","","","","","","","","","","","","","",""
"","html-keyboard-response","69","200656","0.0-115.0","fja98dr0","","","","","","","","","","","","","1126","yrp","Cue practice","","j","","Practice","1","13","false","false","true","both pre & post","LEFT","RIGHT","j","1","false","","","",""
"","html-keyboard-response","70","201419","0.0-118.0","fja98dr0","1920","1080","","","","","","","","","","","null","+","Fixation - short","","null","","","","","","","","","","","","","","","","",""
"","html-keyboard-response","71","202247","0.0-119.0","fja98dr0","","","","","","","","","","","","","827","dgv","Cue practice","","j","","Practice","2","13","false","false","true","both pre & post","RIGHT","RIGHT","j","1","true","","","",""
"","html-keyboard-response","72","203000","0.0-122.0","fja98dr0","1920","1080","","","","","","","","","","","null","+","Fixation - short","","null","","","","","","","","","","","","","","","","",""
"","html-keyboard-response","73","204464","0.0-123.0","fja98dr0","","","","","","","","","","","","","1464","dgv","Cue practice","","f","","Practice","3","13","false","false","false","both pre & post","RIGHT","LEFT","f","1","false","","","",""
"","html-keyboard-response","74","205228","0.0-126.0","fja98dr0","1920","1080","","","","","","","","","","","null","+","Fixation - short","","null","","","","","","","","","","","","","","","","",""
"","html-keyboard-response","75","205895","0.0-127.0","fja98dr0","","","","","","","","","","","","","667","dgv","Cue practice","","f","","Practice","4","13","false","false","false","both pre & post","RIGHT","LEFT","f","1","false","","","",""
"","html-keyboard-response","76","206649","0.0-130.0","fja98dr0","1920","1080","","","","","","","","","","","null","+","Fixation - short","","null","","","","","","","","","","","","","","","","",""
"","html-keyboard-response","77","207407","0.0-131.0","fja98dr0","","","","","","","","","","","","","758","yrp","Cue practice","","j","","Practice","5","13","false","false","true","both pre & post","LEFT","RIGHT","j","1","false","","","",""
"","html-keyboard-response","78","208171","0.0-134.0","fja98dr0","1920","1080","","","","","","","","","","","null","+","Fixation - short","","null","","","","","","","","","","","","","","","","",""
"","html-keyboard-response","79","209439","0.0-135.0","fja98dr0","","","","","","","","","","","","","1268","yrp","Cue practice","","j","","Practice","6","13","false","false","true","both pre & post","LEFT","RIGHT","j","1","false","","","",""
"","html-keyboard-response","80","210239","0.0-138.0","fja98dr0","1920","1080","","","","","","","","","","","null","+","Fixation - short","","null","","","","","","","","","","","","","","","","",""
"","html-keyboard-response","81","211495","0.0-139.0","fja98dr0","","","","","","","","","","","","","1256","dgv","Cue practice","","j","","Practice","7","13","false","false","true","both pre & post","RIGHT","RIGHT","j","1","true","","","",""
"","html-keyboard-response","82","212246","0.0-142.0","fja98dr0","1920","1080","","","","","","","","","","","null","+","Fixation - short","","null","","","","","","","","","","","","","","","","",""
"","html-keyboard-response","83","212848","0.0-143.0","fja98dr0","","","","","","","","","","","","","601","dgv","Cue practice","","f","","Practice","8","13","false","false","false","both pre & post","RIGHT","LEFT","f","1","false","","","",""
"","html-keyboard-response","84","213601","0.0-146.0","fja98dr0","1920","1080","","","","","","","","","","","null","+","Fixation - short","","null","","","","","","","","","","","","","","","","",""
"","html-keyboard-response","85","214311","0.0-147.0","fja98dr0","","","","","","","","","","","","","710","yrp","Cue practice","","j","","Practice","9","13","false","false","true","both pre & post","LEFT","RIGHT","j","1","false","","","",""
"","html-keyboard-response","86","215066","0.0-150.0","fja98dr0","1920","1080","","","","","","","","","","","null","+","Fixation - short","","null","","","","","","","","","","","","","","","","",""
"","html-keyboard-response","87","215855","0.0-151.0","fja98dr0","","","","","","","","","","","","","789","dgv","Cue practice","","f","","Practice","10","13","false","false","false","both pre & post","RIGHT","LEFT","f","1","false","","","",""
"","html-keyboard-response","88","216614","0.0-154.0","fja98dr0","1920","1080","","","","","","","","","","","null","+","Fixation - short","","null","","","","","","","","","","","","","","","","",""
"","html-keyboard-response","89","217488","0.0-155.0","fja98dr0","","","","","","","","","","","","","873","yrp","Cue practice","","f","","Practice","11","13","false","false","false","both pre & post","LEFT","LEFT","f","1","true","","","",""
"","html-keyboard-response","90","218241","0.0-158.0","fja98dr0","1920","1080","","","","","","","","","","","null","+","Fixation - short","","null","","","","","","","","","","","","","","","","",""
"","html-keyboard-response","91","218904","0.0-159.0","fja98dr0","","","","","","","","","","","","","662","yrp","Cue practice","","j","","Practice","12","13","false","false","true","both pre & post","LEFT","RIGHT","j","1","false","","","",""
"","html-keyboard-response","92","219662","0.0-162.0","fja98dr0","1920","1080","","","","","","","","","","","null","+","Fixation - short","","null","","","","","","","","","","","","","","","","",""
"","canvas-keyboard-response","93","220927","0.0-163.0","fja98dr0","","","","","","","","","","","","","null","Cue","Cue","","null","","Practice","12","","","false","","","","","","","","","","",""
"","html-keyboard-response","94","221684","0.0-164.0","fja98dr0","1920","1080","","","","","","","","","","","null","+","Fixation - short","","null","","","","","","","","","","","","","","","","",""
"","html-keyboard-response","95","222576","0.0-165.0","fja98dr0","","","","","","","","","","","","","891","yrp","Cue practice","","j","","Practice","13","13","true","false","true","both pre & post","LEFT","RIGHT","j","1","false","","","",""
"","html-keyboard-response","96","223332","0.0-168.0","fja98dr0","1920","1080","","","","","","","","","","","null","+","Fixation - short","","null","","","","","","","","","","","","","","","","",""
"","html-keyboard-response","97","224127","0.0-169.0","fja98dr0","","","","","","","","","","","","","795","yrp","Cue practice","","f","","Practice","14","13","true","false","false","both pre & post","LEFT","LEFT","f","1","true","","","",""
"","html-keyboard-response","98","224877","0.0-172.0","fja98dr0","1920","1080","","","","","","","","","","","null","+","Fixation - short","","null","","","","","","","","","","","","","","","","",""
"","html-keyboard-response","99","225535","0.0-173.0","fja98dr0","","","","","","","","","","","","","658","dgv","Cue practice","","j","","Practice","15","13","true","false","true","both pre & post","RIGHT","RIGHT","j","1","true","","","",""
"","html-keyboard-response","100","226300","0.0-176.0","fja98dr0","1920","1080","","","","","","","","","","","null","+","Fixation - short","","null","","","","","","","","","","","","","","","","",""
"","html-keyboard-response","101","227232","0.0-177.0","fja98dr0","","","","","","","","","","","","","932","yrp","Inducer practice","","f","","Practice","","","","true","","","","","f","1","","false","LEFT","",""
"","html-keyboard-response","102","227991","0.0-180.0","fja98dr0","1920","1080","","","","","","","","","","","null","+","Fixation - short","","null","","","","","","","","","","","","","","","","",""
"","instructions","103","234280","0.0-181.0","fja98dr0","","","","","","","","","","","","[{""page_index"":0,""viewing_time"":6288}]","6288","End practice","End of practice","","","","","","","","","","","","","","","","","","",""
"","html-keyboard-response","104","237449","0.0-182.0","fja98dr0","1920","1080","","","","","","","","","","","null","+","Fixation - long","","null","","","","","","","","","","","","","","","","",""
"","html-keyboard-response","105","241255","0.0-183.0","fja98dr0","","","","","","","","","","","","","3806","If ume press RIGHT | If lff press LEFT","Inducer instructions",""," ","","0","","","","","","","","","","","","","","",""
"","html-keyboard-response","106","242015","0.0-184.0","fja98dr0","1920","1080","","","","","","","","","","","null","+","Fixation - short","","null","","","","","","","","","","","","","","","","",""
"","html-keyboard-response","107","243095","0.0-185.0","fja98dr0","","","","","","","","","","","","","1079","ume","Diagnostic trial","","j","","0","0","7","false","false","true","both pre & post","RIGHT","RIGHT","j","1","true","","","",""
"","html-keyboard-response","108","243859","0.0-188.0","fja98dr0","1920","1080","","","","","","","","","","","null","+","Fixation - short","","null","","","","","","","","","","","","","","","","",""
"","html-keyboard-response","109","244575","0.0-189.0","fja98dr0","","","","","","","","","","","","","715","ume","Diagnostic trial","","j","","0","1","7","false","false","true","both pre & post","RIGHT","RIGHT","j","1","true","","","",""
"","html-keyboard-response","110","245333","0.0-192.0","fja98dr0","1920","1080","","","","","","","","","","","null","+","Fixation - short","","null","","","","","","","","","","","","","","","","",""
"","html-keyboard-response","111","245959","0.0-193.0","fja98dr0","","","","","","","","","","","","","626","ume","Diagnostic trial","","j","","0","2","7","false","false","true","both pre & post","RIGHT","RIGHT","j","1","true","","","",""
"","html-keyboard-response","112","246710","0.0-196.0","fja98dr0","1920","1080","","","","","","","","","","","null","+","Fixation - short","","null","","","","","","","","","","","","","","","","",""
"","html-keyboard-response","113","247215","0.0-197.0","fja98dr0","","","","","","","","","","","","","505","lff","Diagnostic trial","","f","","0","3","7","false","false","false","both pre & post","LEFT","LEFT","f","1","true","","","",""
"","html-keyboard-response","114","247968","0.0-200.0","fja98dr0","1920","1080","","","","","","","","","","","null","+","Fixation - short","","null","","","","","","","","","","","","","","","","",""
"","html-keyboard-response","115","248535","0.0-201.0","fja98dr0","","","","","","","","","","","","","567","lff","Diagnostic trial","","f","","0","4","7","false","false","false","both pre & post","LEFT","LEFT","f","1","true","","","",""
"","html-keyboard-response","116","249298","0.0-204.0","fja98dr0","1920","1080","","","","","","","","","","","null","+","Fixation - short","","null","","","","","","","","","","","","","","","","",""
"","html-keyboard-response","117","249944","0.0-205.0","fja98dr0","","","","","","","","","","","","","645","lff","Diagnostic trial","","j","","0","5","7","false","false","true","both pre & post","LEFT","RIGHT","j","1","false","","","",""
"","html-keyboard-response","118","250705","0.0-208.0","fja98dr0","1920","1080","","","","","","","","","","","null","+","Fixation - short","","null","","","","","","","","","","","","","","","","",""
"","html-keyboard-response","119","251207","0.0-209.0","fja98dr0","","","","","","","","","","","","","502","lff","Diagnostic trial","","j","","0","6","7","false","false","true","both pre & post","LEFT","RIGHT","j","1","false","","","",""
"","html-keyboard-response","120","251958","0.0-212.0","fja98dr0","1920","1080","","","","","","","","","","","null","+","Fixation - short","","null","","","","","","","","","","","","","","","","",""
"","canvas-keyboard-response","121","253208","0.0-213.0","fja98dr0","","","","","","","","","","","","","null","Cue","Cue","","null","","0","6","","","false","","","","","","","","","","",""
"","html-keyboard-response","122","253971","0.0-214.0","fja98dr0","1920","1080","","","","","","","","","","","null","+","Fixation - short","","null","","","","","","","","","","","","","","","","",""
"","html-keyboard-response","123","254816","0.0-215.0","fja98dr0","","","","","","","","","","","","","845","lff","Diagnostic trial","","j","","0","7","7","true","false","true","both pre & post","LEFT","RIGHT","j","1","false","","","",""
"","html-keyboard-response","124","255577","0.0-218.0","fja98dr0","1920","1080","","","","","","","","","","","null","+","Fixation - short","","null","","","","","","","","","","","","","","","","",""
"","html-keyboard-response","125","256208","0.0-219.0","fja98dr0","","","","","","","","","","","","","631","lff","Diagnostic trial","","j","","0","8","7","true","false","true","both pre & post","LEFT","RIGHT","j","1","false","","","",""
"","html-keyboard-response","126","256966","0.0-222.0","fja98dr0","1920","1080","","","","","","","","","","","null","+","Fixation - short","","null","","","","","","","","","","","","","","","","",""
"","html-keyboard-response","127","257911","0.0-223.0","fja98dr0","","","","","","","","","","","","","945","lff","Inducer trial","","f","","0","","","","true","","","","","f","1","","false","LEFT","",""
"","html-keyboard-response","128","258672","0.0-226.0","fja98dr0","1920","1080","","","","","","","","","","","null","+","Fixation - short","","null","","","","","","","","","","","","","","","","",""
"","html-keyboard-response","129","263304","0.0-227.0","fja98dr0","","","","","","","","","","","","","4631","If jsf press RIGHT | If crf press LEFT","Inducer instructions",""," ","","1","","","","","","","","","","","","","","",""
"","html-keyboard-response","130","264066","0.0-228.0","fja98dr0","1920","1080","","","","","","","","","","","null","+","Fixation - short","","null","","","","","","","","","","","","","","","","",""
"","html-keyboard-response","131","265191","0.0-229.0","fja98dr0","","","","","","","","","","","","","1126","jsf","Diagnostic trial","","f","","1","0","7","false","false","false","both pre & post","RIGHT","LEFT","f","1","false","","","",""
"","html-keyboard-response","132","265946","0.0-232.0","fja98dr0","1920","1080","","","","","","","","","","","null","+","Fixation - short","","null","","","","","","","","","","","","","","","","",""
"","html-keyboard-response","133","266656","0.0-233.0","fja98dr0","","","","","","","","","","","","","708","crf","Diagnostic trial","","f","","1","1","7","false","false","false","both pre & post","LEFT","LEFT","f","1","true","","","",""
"","html-keyboard-response","134","267417","0.0-236.0","fja98dr0","1920","1080","","","","","","","","","","","null","+","Fixation - short","","null","","","","","","","","","","","","","","","","",""
"","html-keyboard-response","135","268079","0.0-237.0","fja98dr0","","","","","","","","","","","","","663","crf","Diagnostic trial","","f","","1","2","7","false","false","false","both pre & post","LEFT","LEFT","f","1","true","","","",""
"","html-keyboard-response","136","268838","0.0-240.0","fja98dr0","1920","1080","","","","","","","","","","","null","+","Fixation - short","","null","","","","","","","","","","","","","","","","",""
"","html-keyboard-response","137","269816","0.0-241.0","fja98dr0","","","","","","","","","","","","","977","jsf","Diagnostic trial","","j","","1","3","7","false","false","true","both pre & post","RIGHT","RIGHT","j","1","true","","","",""
"","html-keyboard-response","138","270574","0.0-244.0","fja98dr0","1920","1080","","","","","","","","","","","null","+","Fixation - short","","null","","","","","","","","","","","","","","","","",""
"","html-keyboard-response","139","271376","0.0-245.0","fja98dr0","","","","","","","","","","","","","801","crf","Diagnostic trial","","j","","1","4","7","false","false","true","both pre & post","LEFT","RIGHT","j","1","false","","","",""
"","html-keyboard-response","140","272135","0.0-248.0","fja98dr0","1920","1080","","","","","","","","","","","null","+","Fixation - short","","null","","","","","","","","","","","","","","","","",""
"","html-keyboard-response","141","272767","0.0-249.0","fja98dr0","","","","","","","","","","","","","631","crf","Diagnostic trial","","f","","1","5","7","false","false","false","both pre & post","LEFT","LEFT","f","1","true","","","",""
"","html-keyboard-response","142","273525","0.0-252.0","fja98dr0","1920","1080","","","","","","","","","","","null","+","Fixation - short","","null","","","","","","","","","","","","","","","","",""
"","html-keyboard-response","143","274111","0.0-253.0","fja98dr0","","","","","","","","","","","","","586","jsf","Diagnostic trial","","j","","1","6","7","false","false","true","both pre & post","RIGHT","RIGHT","j","1","true","","","",""
"","html-keyboard-response","144","274863","0.0-256.0","fja98dr0","1920","1080","","","","","","","","","","","null","+","Fixation - short","","null","","","","","","","","","","","","","","","","",""
"","canvas-keyboard-response","145","276120","0.0-257.0","fja98dr0","","","","","","","","","","","","","null","Cue","Cue","","null","","1","6","","","false","","","","","","","","","","",""
"","html-keyboard-response","146","276884","0.0-258.0","fja98dr0","1920","1080","","","","","","","","","","","null","+","Fixation - short","","null","","","","","","","","","","","","","","","","",""
"","html-keyboard-response","147","277664","0.0-259.0","fja98dr0","","","","","","","","","","","","","779","crf","Diagnostic trial","","f","","1","7","7","true","false","false","both pre & post","LEFT","LEFT","f","1","true","","","",""
"","html-keyboard-response","148","278420","0.0-262.0","fja98dr0","1920","1080","","","","","","","","","","","null","+","Fixation - short","","null","","","","","","","","","","","","","","","","",""
"","html-keyboard-response","149","279080","0.0-263.0","fja98dr0","","","","","","","","","","","","","660","jsf","Diagnostic trial","","j","","1","8","7","true","false","true","both pre & post","RIGHT","RIGHT","j","1","true","","","",""
"","html-keyboard-response","150","279830","0.0-266.0","fja98dr0","1920","1080","","","","","","","","","","","null","+","Fixation - short","","null","","","","","","","","","","","","","","","","",""
"","html-keyboard-response","151","280471","0.0-267.0","fja98dr0","","","","","","","","","","","","","641","jsf","Diagnostic trial","","j","","1","9","7","true","false","true","both pre & post","RIGHT","RIGHT","j","1","true","","","",""
"","html-keyboard-response","152","281223","0.0-270.0","fja98dr0","1920","1080","","","","","","","","","","","null","+","Fixation - short","","null","","","","","","","","","","","","","","","","",""
"","html-keyboard-response","153","281959","0.0-271.0","fja98dr0","","","","","","","","","","","","","736","jsf","Inducer trial","","j","","1","","","","true","","","","","j","1","","false","RIGHT","",""
"","html-keyboard-response","154","282710","0.0-274.0","fja98dr0","1920","1080","","","","","","","","","","","null","+","Fixation - short","","null","","","","","","","","","","","","","","","","",""
"","html-keyboard-response","155","285911","0.0-275.0","fja98dr0","","","","","","","","","","","","","3201","If rbc press RIGHT | If ndm press LEFT","Inducer instructions",""," ","","2","","","","","","","","","","","","","","",""
"","html-keyboard-response","156","286675","0.0-276.0","fja98dr0","1920","1080","","","","","","","","","","","null","+","Fixation - short","","null","","","","","","","","","","","","","","","","",""
"","html-keyboard-response","157","287336","0.0-277.0","fja98dr0","","","","","","","","","","","","","660","ndm","Diagnostic trial","","f","","2","0","5","false","false","false","both pre & post","LEFT","LEFT","f","1","true","","","",""
"","html-keyboard-response","158","288095","0.0-280.0","fja98dr0","1920","1080","","","","","","","","","","","null","+","Fixation - short","","null","","","","","","","","","","","","","","","","",""
"","html-keyboard-response","159","288656","0.0-281.0","fja98dr0","","","","","","","","","","","","","559","ndm","Diagnostic trial","","f","","2","1","5","false","false","false","both pre & post","LEFT","LEFT","f","1","true","","","",""
"","html-keyboard-response","160","289413","0.0-284.0","fja98dr0","1920","1080","","","","","","","","","","","null","+","Fixation - short","","null","","","","","","","","","","","","","","","","",""
"","html-keyboard-response","161","290135","0.0-285.0","fja98dr0","","","","","","","","","","","","","721","rbc","Diagnostic trial","","j","","2","2","5","false","false","true","both pre & post","RIGHT","RIGHT","j","1","true","","","",""
"","html-keyboard-response","162","290892","0.0-288.0","fja98dr0","1920","1080","","","","","","","","","","","null","+","Fixation - short","","null","","","","","","","","","","","","","","","","",""
"","html-keyboard-response","163","291576","0.0-289.0","fja98dr0","","","","","","","","","","","","","683","rbc","Diagnostic trial","","j","","2","3","5","false","false","true","both pre & post","RIGHT","RIGHT","j","1","true","","","",""
"","html-keyboard-response","164","292339","0.0-292.0","fja98dr0","1920","1080","","","","","","","","","","","null","+","Fixation - short","","null","","","","","","","","","","","","","","","","",""
"","html-keyboard-response","165","293095","0.0-293.0","fja98dr0","","","","","","","","","","","","","755","rbc","Diagnostic trial","","f","","2","4","5","false","false","false","both pre & post","RIGHT","LEFT","f","1","false","","","",""
"","html-keyboard-response","166","293859","0.0-296.0","fja98dr0","1920","1080","","","","","","","","","","","null","+","Fixation - short","","null","","","","","","","","","","","","","","","","",""
"","canvas-keyboard-response","167","295121","0.0-297.0","fja98dr0","","","","","","","","","","","","","null","Cue","Cue","","null","","2","4","","","false","","","","","","","","","","",""
"","html-keyboard-response","168","295874","0.0-298.0","fja98dr0","1920","1080","","","","","","","","","","","null","+","Fixation - short","","null","","","","","","","","","","","","","","","","",""
"","html-keyboard-response","169","296568","0.0-299.0","fja98dr0","","","","","","","","","","","","","692","ndm","Diagnostic trial","","f","","2","5","5","true","false","false","both pre & post","LEFT","LEFT","f","1","true","","","",""
"","html-keyboard-response","170","297328","0.0-302.0","fja98dr0","1920","1080","","","","","","","","","","","null","+","Fixation - short","","null","","","","","","","","","","","","","","","","",""
"","html-keyboard-response","171","297887","0.0-303.0","fja98dr0","","","","","","","","","","","","","560","rbc","Diagnostic trial","","j","","2","6","5","true","false","true","both pre & post","RIGHT","RIGHT","j","1","true","","","",""
"","html-keyboard-response","172","298639","0.0-306.0","fja98dr0","1920","1080","","","","","","","","","","","null","+","Fixation - short","","null","","","","","","","","","","","","","","","","",""
"","html-keyboard-response","173","299335","0.0-307.0","fja98dr0","","","","","","","","","","","","","696","rbc","Diagnostic trial","","f","","2","7","5","true","false","false","both pre & post","RIGHT","LEFT","f","1","false","","","",""
"","html-keyboard-response","174","300094","0.0-310.0","fja98dr0","1920","1080","","","","","","","","","","","null","+","Fixation - short","","null","","","","","","","","","","","","","","","","",""
"","html-keyboard-response","175","300800","0.0-311.0","fja98dr0","","","","","","","","","","","","","705","ndm","Diagnostic trial","","f","","2","8","5","true","false","false","both pre & post","LEFT","LEFT","f","1","true","","","",""
"","html-keyboard-response","176","301552","0.0-314.0","fja98dr0","1920","1080","","","","","","","","","","","null","+","Fixation - short","","null","","","","","","","","","","","","","","","","",""
"","html-keyboard-response","177","302255","0.0-315.0","fja98dr0","","","","","","","","","","","","","703","rbc","Inducer trial","","j","","2","","","","true","","","","","j","1","","false","RIGHT","",""
"","html-keyboard-response","178","303017","0.0-318.0","fja98dr0","1920","1080","","","","","","","","","","","null","+","Fixation - short","","null","","","","","","","","","","","","","","","","",""
"","html-keyboard-response","179","304264","0.0-319.0","fja98dr0","","","","","","","","","","","","","1247","If drk press RIGHT | If upf press LEFT","Inducer instructions",""," ","","3","","","","","","","","","","","","","","",""
"","html-keyboard-response","180","305029","0.0-320.0","fja98dr0","1920","1080","","","","","","","","","","","null","+","Fixation - short","","null","","","","","","","","","","","","","","","","",""
"","html-keyboard-response","181","305816","0.0-321.0","fja98dr0","","","","","","","","","","","","","787","drk","Diagnostic trial","","j","","3","0","9","false","false","true","both pre & post","RIGHT","RIGHT","j","1","true","","","",""
"","html-keyboard-response","182","306577","0.0-324.0","fja98dr0","1920","1080","","","","","","","","","","","null","+","Fixation - short","","null","","","","","","","","","","","","","","","","",""
"","html-keyboard-response","183","307087","0.0-325.0","fja98dr0","","","","","","","","","","","","","510","upf","Diagnostic trial","","f","","3","1","9","false","false","false","both pre & post","LEFT","LEFT","f","1","true","","","",""
"","html-keyboard-response","184","307851","0.0-328.0","fja98dr0","1920","1080","","","","","","","","","","","null","+","Fixation - short","","null","","","","","","","","","","","","","","","","",""
"","html-keyboard-response","185","308391","0.0-329.0","fja98dr0","","","","","","","","","","","","","541","upf","Diagnostic trial","","j","","3","2","9","false","false","true","both pre & post","LEFT","RIGHT","j","1","false","","","",""
"","html-keyboard-response","186","309155","0.0-332.0","fja98dr0","1920","1080","","","","","","","","","","","null","+","Fixation - short","","null","","","","","","","","","","","","","","","","",""
"","html-keyboard-response","187","310127","0.0-333.0","fja98dr0","","","","","","","","","","","","","971","drk","Diagnostic trial","","f","","3","3","9","false","false","false","both pre & post","RIGHT","LEFT","f","1","false","","","",""
"","html-keyboard-response","188","310879","0.0-336.0","fja98dr0","1920","1080","","","","","","","","","","","null","+","Fixation - short","","null","","","","","","","","","","","","","","","","",""
"","html-keyboard-response","189","311592","0.0-337.0","fja98dr0","","","","","","","","","","","","","712","upf","Diagnostic trial","","f","","3","4","9","false","false","false","both pre & post","LEFT","LEFT","f","1","true","","","",""
"","html-keyboard-response","190","312353","0.0-340.0","fja98dr0","1920","1080","","","","","","","","","","","null","+","Fixation - short","","null","","","","","","","","","","","","","","","","",""
"","html-keyboard-response","191","312975","0.0-341.0","fja98dr0","","","","","","","","","","","","","622","drk","Diagnostic trial","","j","","3","5","9","false","false","true","both pre & post","RIGHT","RIGHT","j","1","true","","","",""
"","html-keyboard-response","192","313741","0.0-344.0","fja98dr0","1920","1080","","","","","","","","","","","null","+","Fixation - short","","null","","","","","","","","","","","","","","","","",""
"","html-keyboard-response","193","314327","0.0-345.0","fja98dr0","","","","","","","","","","","","","587","upf","Diagnostic trial","","j","","3","6","9","false","false","true","both pre & post","LEFT","RIGHT","j","1","false","","","",""
"","html-keyboard-response","194","315089","0.0-348.0","fja98dr0","1920","1080","","","","","","","","","","","null","+","Fixation - short","","null","","","","","","","","","","","","","","","","",""
"","html-keyboard-response","195","315599","0.0-349.0","fja98dr0","","","","","","","","","","","","","511","upf","Diagnostic trial","","f","","3","7","9","false","false","false","both pre & post","LEFT","LEFT","f","1","true","","","",""
"","html-keyboard-response","196","316364","0.0-352.0","fja98dr0","1920","1080","","","","","","","","","","","null","+","Fixation - short","","null","","","","","","","","","","","","","","","","",""
"","html-keyboard-response","197","316887","0.0-353.0","fja98dr0","","","","","","","","","","","","","523","upf","Diagnostic trial","","j","","3","8","9","false","false","true","both pre & post","LEFT","RIGHT","j","1","false","","","",""
"","html-keyboard-response","198","317642","0.0-356.0","fja98dr0","1920","1080","","","","","","","","","","","null","+","Fixation - short","","null","","","","","","","","","","","","","","","","",""
"","canvas-keyboard-response","199","318895","0.0-357.0","fja98dr0","","","","","","","","","","","","","null","Cue","Cue","","null","","3","8","","","false","","","","","","","","","","",""
"","html-keyboard-response","200","319655","0.0-358.0","fja98dr0","1920","1080","","","","","","","","","","","null","+","Fixation - short","","null","","","","","","","","","","","","","","","","",""
"","html-keyboard-response","201","320432","0.0-359.0","fja98dr0","","","","","","","","","","","","","777","drk","Diagnostic trial","","j","","3","9","9","true","false","true","both pre & post","RIGHT","RIGHT","j","1","true","","","",""
"","html-keyboard-response","202","321184","0.0-362.0","fja98dr0","1920","1080","","","","","","","","","","","null","+","Fixation - short","","null","","","","","","","","","","","","","","","","",""
"","html-keyboard-response","203","321847","0.0-363.0","fja98dr0","","","","","","","","","","","","","663","upf","Diagnostic trial","","f","","3","10","9","true","false","false","both pre & post","LEFT","LEFT","f","1","true","","","",""
"","html-keyboard-response","204","322605","0.0-366.0","fja98dr0","1920","1080","","","","","","","","","","","null","+","Fixation - short","","null","","","","","","","","","","","","","","","","",""
"","html-keyboard-response","205","323201","0.0-367.0","fja98dr0","","","","","","","","","","","","","595","drk","Inducer trial","","j","","3","","","","true","","","","","j","1","","false","RIGHT","",""
"","html-keyboard-response","206","323956","0.0-370.0","fja98dr0","1920","1080","","","","","","","","","","","null","+","Fixation - short","","null","","","","","","","","","","","","","","","","",""
"","html-keyboard-response","207","326504","0.0-371.0","fja98dr0","","","","","","","","","","","","","2547","If ebe press RIGHT | If chy press LEFT","Inducer instructions",""," ","","4","","","","","","","","","","","","","","",""
"","html-keyboard-response","208","327258","0.0-372.0","fja98dr0","1920","1080","","","","","","","","","","","null","+","Fixation - short","","null","","","","","","","","","","","","","","","","",""
"","html-keyboard-response","209","328047","0.0-373.0","fja98dr0","","","","","","","","","","","","","791","ebe","Diagnostic trial","","j","","4","0","6","false","false","true","both pre & post","RIGHT","RIGHT","j","1","true","","","",""
"","html-keyboard-response","210","328807","0.0-376.0","fja98dr0","1920","1080","","","","","","","","","","","null","+","Fixation - short","","null","","","","","","","","","","","","","","","","",""
"","html-keyboard-response","211","329448","0.0-377.0","fja98dr0","","","","","","","","","","","","","639","chy","Diagnostic trial","","f","","4","1","6","false","false","false","both pre & post","LEFT","LEFT","f","1","true","","","",""
"","html-keyboard-response","212","330212","0.0-380.0","fja98dr0","1920","1080","","","","","","","","","","","null","+","Fixation - short","","null","","","","","","","","","","","","","","","","",""
"","html-keyboard-response","213","330767","0.0-381.0","fja98dr0","","","","","","","","","","","","","555","chy","Diagnostic trial","","f","","4","2","6","false","false","false","both pre & post","LEFT","LEFT","f","1","true","","","",""
"","html-keyboard-response","214","331526","0.0-384.0","fja98dr0","1920","1080","","","","","","","","","","","null","+","Fixation - short","","null","","","","","","","","","","","","","","","","",""
"","html-keyboard-response","215","332015","0.0-385.0","fja98dr0","","","","","","","","","","","","","489","chy","Diagnostic trial","","f","","4","3","6","false","false","false","both pre & post","LEFT","LEFT","f","1","true","","","",""
"","html-keyboard-response","216","332777","0.0-388.0","fja98dr0","1920","1080","","","","","","","","","","","null","+","Fixation - short","","null","","","","","","","","","","","","","","","","",""
"","html-keyboard-response","217","333248","0.0-389.0","fja98dr0","","","","","","","","","","","","","470","chy","Diagnostic trial","","f","","4","4","6","false","false","false","both pre & post","LEFT","LEFT","f","1","true","","","",""
"","html-keyboard-response","218","334013","0.0-392.0","fja98dr0","1920","1080","","","","","","","","","","","null","+","Fixation - short","","null","","","","","","","","","","","","","","","","",""
"","html-keyboard-response","219","334712","0.0-393.0","fja98dr0","","","","","","","","","","","","","698","chy","Diagnostic trial","","j","","4","5","6","false","false","true","both pre & post","LEFT","RIGHT","j","1","false","","","",""
"","html-keyboard-response","220","335474","0.0-396.0","fja98dr0","1920","1080","","","","","","","","","","","null","+","Fixation - short","","null","","","","","","","","","","","","","","","","",""
"","canvas-keyboard-response","221","336728","0.0-397.0","fja98dr0","","","","","","","","","","","","","null","Cue","Cue","","null","","4","5","","","false","","","","","","","","","","",""
"","html-keyboard-response","222","337483","0.0-398.0","fja98dr0","1920","1080","","","","","","","","","","","null","+","Fixation - short","","null","","","","","","","","","","","","","","","","",""
"","html-keyboard-response","223","338159","0.0-399.0","fja98dr0","","","","","","","","","","","","","675","ebe","Diagnostic trial","","j","","4","6","6","true","false","true","both pre & post","RIGHT","RIGHT","j","1","true","","","",""
"","html-keyboard-response","224","338921","0.0-402.0","fja98dr0","1920","1080","","","","","","","","","","","null","+","Fixation - short","","null","","","","","","","","","","","","","","","","",""
"","html-keyboard-response","225","339808","0.0-403.0","fja98dr0","","","","","","","","","","","","","887","chy","Inducer trial","","f","","4","","","","true","","","","","f","1","","false","LEFT","",""
"","html-keyboard-response","226","340565","0.0-406.0","fja98dr0","1920","1080","","","","","","","","","","","null","+","Fixation - short","","null","","","","","","","","","","","","","","","","",""
"","html-keyboard-response","227","342935","0.0-407.0","fja98dr0","","","","","","","","","","","","","2370","If fuc press RIGHT | If ecl press LEFT","Inducer instructions",""," ","","5","","","","","","","","","","","","","","",""
"","html-keyboard-response","228","343700","0.0-408.0","fja98dr0","1920","1080","","","","","","","","","","","null","+","Fixation - short","","null","","","","","","","","","","","","","","","","",""
"","html-keyboard-response","229","344360","0.0-409.0","fja98dr0","","","","","","","","","","","","","658","fuc","Diagnostic trial","","j","","5","0","10","false","false","true","both pre & post","RIGHT","RIGHT","j","1","true","","","",""
"","html-keyboard-response","230","345124","0.0-412.0","fja98dr0","1920","1080","","","","","","","","","","","null","+","Fixation - short","","null","","","","","","","","","","","","","","","","",""
"","html-keyboard-response","231","345743","0.0-413.0","fja98dr0","","","","","","","","","","","","","620","ecl","Diagnostic trial","","j","","5","1","10","false","false","true","both pre & post","LEFT","RIGHT","j","1","false","","","",""
"","html-keyboard-response","232","346509","0.0-416.0","fja98dr0","1920","1080","","","","","","","","","","","null","+","Fixation - short","","null","","","","","","","","","","","","","","","","",""
"","html-keyboard-response","233","346984","0.0-417.0","fja98dr0","","","","","","","","","","","","","475","ecl","Diagnostic trial","","f","","5","2","10","false","false","false","both pre & post","LEFT","LEFT","f","1","true","","","",""
"","html-keyboard-response","234","347743","0.0-420.0","fja98dr0","1920","1080","","","","","","","","","","","null","+","Fixation - short","","null","","","","","","","","","","","","","","","","",""
"","html-keyboard-response","235","348231","0.0-421.0","fja98dr0","","","","","","","","","","","","","487","fuc","Diagnostic trial","","j","","5","3","10","false","false","true","both pre & post","RIGHT","RIGHT","j","1","true","","","",""
"","html-keyboard-response","236","348994","0.0-424.0","fja98dr0","1920","1080","","","","","","","","","","","null","+","Fixation - short","","null","","","","","","","","","","","","","","","","",""
"","html-keyboard-response","237","349584","0.0-425.0","fja98dr0","","","","","","","","","","","","","588","fuc","Diagnostic trial","","j","","5","4","10","false","false","true","both pre & post","RIGHT","RIGHT","j","1","true","","","",""
"","html-keyboard-response","238","350342","0.0-428.0","fja98dr0","1920","1080","","","","","","","","","","","null","+","Fixation - short","","null","","","","","","","","","","","","","","","","",""
"","html-keyboard-response","239","350807","0.0-429.0","fja98dr0","","","","","","","","","","","","","465","fuc","Diagnostic trial","","j","","5","5","10","false","false","true","both pre & post","RIGHT","RIGHT","j","1","true","","","",""
"","html-keyboard-response","240","351557","0.0-432.0","fja98dr0","1920","1080","","","","","","","","","","","null","+","Fixation - short","","null","","","","","","","","","","","","","","","","",""
"","html-keyboard-response","241","352080","0.0-433.0","fja98dr0","","","","","","","","","","","","","522","fuc","Diagnostic trial","","j","","5","6","10","false","false","true","both pre & post","RIGHT","RIGHT","j","1","true","","","",""
"","html-keyboard-response","242","352835","0.0-436.0","fja98dr0","1920","1080","","","","","","","","","","","null","+","Fixation - short","","null","","","","","","","","","","","","","","","","",""
"","html-keyboard-response","243","353408","0.0-437.0","fja98dr0","","","","","","","","","","","","","573","fuc","Diagnostic trial","","j","","5","7","10","false","false","true","both pre & post","RIGHT","RIGHT","j","1","true","","","",""
"","html-keyboard-response","244","354171","0.0-440.0","fja98dr0","1920","1080","","","","","","","","","","","null","+","Fixation - short","","null","","","","","","","","","","","","","","","","",""
"","html-keyboard-response","245","354944","0.0-441.0","fja98dr0","","","","","","","","","","","","","771","fuc","Diagnostic trial","","f","","5","8","10","false","false","false","both pre & post","RIGHT","LEFT","f","1","false","","","",""
"","html-keyboard-response","246","355697","0.0-444.0","fja98dr0","1920","1080","","","","","","","","","","","null","+","Fixation - short","","null","","","","","","","","","","","","","","","","",""
"","html-keyboard-response","247","356336","0.0-445.0","fja98dr0","","","","","","","","","","","","","640","ecl","Diagnostic trial","","j","","5","9","10","false","false","true","both pre & post","LEFT","RIGHT","j","1","false","","","",""
"","html-keyboard-response","248","357096","0.0-448.0","fja98dr0","1920","1080","","","","","","","","","","","null","+","Fixation - short","","null","","","","","","","","","","","","","","","","",""
"","canvas-keyboard-response","249","358355","0.0-449.0","fja98dr0","","","","","","","","","","","","","null","Cue","Cue","","null","","5","9","","","false","","","","","","","","","","",""
"","html-keyboard-response","250","359119","0.0-450.0","fja98dr0","1920","1080","","","","","","","","","","","null","+","Fixation - short","","null","","","","","","","","","","","","","","","","",""
"","html-keyboard-response","251","360216","0.0-451.0","fja98dr0","","","","","","","","","","","","","1097","fuc","Diagnostic trial","","j","","5","10","10","true","false","true","both pre & post","RIGHT","RIGHT","j","1","true","","","",""
"","html-keyboard-response","252","360980","0.0-454.0","fja98dr0","1920","1080","","","","","","","","","","","null","+","Fixation - short","","null","","","","","","","","","","","","","","","","",""
"","html-keyboard-response","253","362279","0.0-455.0","fja98dr0","","","","","","","","","","","","","1298","ecl","Diagnostic trial","","f","","5","11","10","true","false","false","both pre & post","LEFT","LEFT","f","1","true","","","",""
"","html-keyboard-response","254","363030","0.0-458.0","fja98dr0","1920","1080","","","","","","","","","","","null","+","Fixation - short","","null","","","","","","","","","","","","","","","","",""
"","html-keyboard-response","255","363935","0.0-459.0","fja98dr0","","","","","","","","","","","","","905","fuc","Diagnostic trial","","f","","5","12","10","true","false","false","both pre & post","RIGHT","LEFT","f","1","false","","","",""
"","html-keyboard-response","256","364687","0.0-462.0","fja98dr0","1920","1080","","","","","","","","","","","null","+","Fixation - short","","null","","","","","","","","","","","","","","","","",""
"","html-keyboard-response","257","365488","0.0-463.0","fja98dr0","","","","","","","","","","","","","800","fuc","Diagnostic trial","","j","","5","13","10","true","false","true","both pre & post","RIGHT","RIGHT","j","1","true","","","",""
"","html-keyboard-response","258","366246","0.0-466.0","fja98dr0","1920","1080","","","","","","","","","","","null","+","Fixation - short","","null","","","","","","","","","","","","","","","","",""
"","html-keyboard-response","259","367079","0.0-467.0","fja98dr0","","","","","","","","","","","","","833","fuc","Inducer trial","","j","","5","","","","true","","","","","j","1","","false","RIGHT","",""
"","html-keyboard-response","260","367842","0.0-470.0","fja98dr0","1920","1080","","","","","","","","","","","null","+","Fixation - short","","null","","","","","","","","","","","","","","","","",""
"","html-keyboard-response","261","370399","0.0-471.0","fja98dr0","","","","","","","","","","","","","2558","If dpa press RIGHT | If gso press LEFT","Inducer instructions",""," ","","6","","","","","","","","","","","","","","",""
"","html-keyboard-response","262","371163","0.0-472.0","fja98dr0","1920","1080","","","","","","","","","","","null","+","Fixation - short","","null","","","","","","","","","","","","","","","","",""
"","html-keyboard-response","263","371991","0.0-473.0","fja98dr0","","","","","","","","","","","","","827","gso","Diagnostic trial","","f","","6","0","4","false","false","false","both pre & post","LEFT","LEFT","f","1","true","","","",""
"","html-keyboard-response","264","372745","0.0-476.0","fja98dr0","1920","1080","","","","","","","","","","","null","+","Fixation - short","","null","","","","","","","","","","","","","","","","",""
"","html-keyboard-response","265","373479","0.0-477.0","fja98dr0","","","","","","","","","","","","","734","dpa","Diagnostic trial","","f","","6","1","4","false","false","false","both pre & post","RIGHT","LEFT","f","1","false","","","",""
"","html-keyboard-response","266","374239","0.0-480.0","fja98dr0","1920","1080","","","","","","","","","","","null","+","Fixation - short","","null","","","","","","","","","","","","","","","","",""
"","html-keyboard-response","267","374959","0.0-481.0","fja98dr0","","","","","","","","","","","","","719","gso","Diagnostic trial","","j","","6","2","4","false","false","true","both pre & post","LEFT","RIGHT","j","1","false","","","",""
"","html-keyboard-response","268","375723","0.0-484.0","fja98dr0","1920","1080","","","","","","","","","","","null","+","Fixation - short","","null","","","","","","","","","","","","","","","","",""
"","html-keyboard-response","269","376296","0.0-485.0","fja98dr0","","","","","","","","","","","","","571","dpa","Diagnostic trial","","j","","6","3","4","false","false","true","both pre & post","RIGHT","RIGHT","j","1","true","","","",""
"","html-keyboard-response","270","377053","0.0-488.0","fja98dr0","1920","1080","","","","","","","","","","","null","+","Fixation - short","","null","","","","","","","","","","","","","","","","",""
"","canvas-keyboard-response","271","378311","0.0-489.0","fja98dr0","","","","","","","","","","","","","null","Cue","Cue","","null","","6","3","","","false","","","","","","","","","","",""
"","html-keyboard-response","272","379102","0.0-490.0","fja98dr0","1920","1080","","","","","","","","","","","null","+","Fixation - short","","null","","","","","","","","","","","","","","","","",""
"","html-keyboard-response","273","379816","0.0-491.0","fja98dr0","","","","","","","","","","","","","714","dpa","Diagnostic trial","","j","","6","4","4","true","false","true","both pre & post","RIGHT","RIGHT","j","1","true","","","",""
"","html-keyboard-response","274","380573","0.0-494.0","fja98dr0","1920","1080","","","","","","","","","","","null","+","Fixation - short","","null","","","","","","","","","","","","","","","","",""
"","html-keyboard-response","275","381096","0.0-495.0","fja98dr0","","","","","","","","","","","","","522","dpa","Diagnostic trial","","j","","6","5","4","true","false","true","both pre & post","RIGHT","RIGHT","j","1","true","","","",""
"","html-keyboard-response","276","381854","0.0-498.0","fja98dr0","1920","1080","","","","","","","","","","","null","+","Fixation - short","","null","","","","","","","","","","","","","","","","",""
"","html-keyboard-response","277","382391","0.0-499.0","fja98dr0","","","","","","","","","","","","","537","dpa","Diagnostic trial","","j","","6","6","4","true","false","true","both pre & post","RIGHT","RIGHT","j","1","true","","","",""
"","html-keyboard-response","278","383156","0.0-502.0","fja98dr0","1920","1080","","","","","","","","","","","null","+","Fixation - short","","null","","","","","","","","","","","","","","","","",""
"","html-keyboard-response","279","383967","0.0-503.0","fja98dr0","","","","","","","","","","","","","811","gso","Diagnostic trial","","j","","6","7","4","true","false","true","both pre & post","LEFT","RIGHT","j","1","false","","","",""
"","html-keyboard-response","280","384730","0.0-506.0","fja98dr0","1920","1080","","","","","","","","","","","null","+","Fixation - short","","null","","","","","","","","","","","","","","","","",""
"","html-keyboard-response","281","385487","0.0-507.0","fja98dr0","","","","","","","","","","","","","757","dpa","Inducer trial","","j","","6","","","","true","","","","","j","1","","false","RIGHT","",""
"","html-keyboard-response","282","386251","0.0-510.0","fja98dr0","1920","1080","","","","","","","","","","","null","+","Fixation - short","","null","","","","","","","","","","","","","","","","",""
"","html-keyboard-response","283","388720","0.0-511.0","fja98dr0","","","","","","","","","","","","","2468","If dnc press RIGHT | If lct press LEFT","Inducer instructions",""," ","","7","","","","","","","","","","","","","","",""
"","html-keyboard-response","284","389483","0.0-512.0","fja98dr0","1920","1080","","","","","","","","","","","null","+","Fixation - short","","null","","","","","","","","","","","","","","","","",""
"","html-keyboard-response","285","390071","0.0-513.0","fja98dr0","","","","","","","","","","","","","588","lct","Diagnostic trial","","j","","7","0","4","false","false","true","both pre & post","LEFT","RIGHT","j","1","false","","","",""
"","html-keyboard-response","286","390836","0.0-516.0","fja98dr0","1920","1080","","","","","","","","","","","null","+","Fixation - short","","null","","","","","","","","","","","","","","","","",""
"","html-keyboard-response","287","391528","0.0-517.0","fja98dr0","","","","","","","","","","","","","691","dnc","Diagnostic trial","","j","","7","1","4","false","false","true","both pre & post","RIGHT","RIGHT","j","1","true","","","",""
"","html-keyboard-response","288","392282","0.0-520.0","fja98dr0","1920","1080","","","","","","","","","","","null","+","Fixation - short","","null","","","","","","","","","","","","","","","","",""
"","html-keyboard-response","289","392800","0.0-521.0","fja98dr0","","","","","","","","","","","","","517","lct","Diagnostic trial","","f","","7","2","4","false","false","false","both pre & post","LEFT","LEFT","f","1","true","","","",""
"","html-keyboard-response","290","393554","0.0-524.0","fja98dr0","1920","1080","","","","","","","","","","","null","+","Fixation - short","","null","","","","","","","","","","","","","","","","",""
"","html-keyboard-response","291","394152","0.0-525.0","fja98dr0","","","","","","","","","","","","","597","lct","Diagnostic trial","","f","","7","3","4","false","false","false","both pre & post","LEFT","LEFT","f","1","true","","","",""
"","html-keyboard-response","292","394910","0.0-528.0","fja98dr0","1920","1080","","","","","","","","","","","null","+","Fixation - short","","null","","","","","","","","","","","","","","","","",""
"","canvas-keyboard-response","293","396163","0.0-529.0","fja98dr0","","","","","","","","","","","","","null","Cue","Cue","","null","","7","3","","","false","","","","","","","","","","",""
"","html-keyboard-response","294","396915","0.0-530.0","fja98dr0","1920","1080","","","","","","","","","","","null","+","Fixation - short","","null","","","","","","","","","","","","","","","","",""
"","html-keyboard-response","295","397519","0.0-531.0","fja98dr0","","","","","","","","","","","","","604","lct","Diagnostic trial","","j","","7","4","4","true","false","true","both pre & post","LEFT","RIGHT","j","1","false","","","",""
"","html-keyboard-response","296","398271","0.0-534.0","fja98dr0","1920","1080","","","","","","","","","","","null","+","Fixation - short","","null","","","","","","","","","","","","","","","","",""
"","html-keyboard-response","297","398784","0.0-535.0","fja98dr0","","","","","","","","","","","","","512","lct","Diagnostic trial","","j","","7","5","4","true","false","true","both pre & post","LEFT","RIGHT","j","1","false","","","",""
"","html-keyboard-response","298","399542","0.0-538.0","fja98dr0","1920","1080","","","","","","","","","","","null","+","Fixation - short","","null","","","","","","","","","","","","","","","","",""
"","html-keyboard-response","299","400359","0.0-539.0","fja98dr0","","","","","","","","","","","","","816","dnc","Diagnostic trial","","f","","7","6","4","true","false","false","both pre & post","RIGHT","LEFT","f","1","false","","","",""
"","html-keyboard-response","300","401122","0.0-542.0","fja98dr0","1920","1080","","","","","","","","","","","null","+","Fixation - short","","null","","","","","","","","","","","","","","","","",""
"","html-keyboard-response","301","401848","0.0-543.0","fja98dr0","","","","","","","","","","","","","725","lct","Diagnostic trial","","f","","7","7","4","true","false","false","both pre & post","LEFT","LEFT","f","1","true","","","",""
"","html-keyboard-response","302","402611","0.0-546.0","fja98dr0","1920","1080","","","","","","","","","","","null","+","Fixation - short","","null","","","","","","","","","","","","","","","","",""
"","html-keyboard-response","303","403207","0.0-547.0","fja98dr0","","","","","","","","","","","","","596","dnc","Inducer trial","","j","","7","","","","true","","","","","j","1","","false","RIGHT","",""
"","html-keyboard-response","304","403971","0.0-550.0","fja98dr0","1920","1080","","","","","","","","","","","null","+","Fixation - short","","null","","","","","","","","","","","","","","","","",""
"","html-keyboard-response","305","406063","0.0-551.0","fja98dr0","","","","","","","","","","","","","2092","If sjn press RIGHT | If bms press LEFT","Inducer instructions",""," ","","8","","","","","","","","","","","","","","",""
"","html-keyboard-response","306","406818","0.0-552.0","fja98dr0","1920","1080","","","","","","","","","","","null","+","Fixation - short","","null","","","","","","","","","","","","","","","","",""
"","html-keyboard-response","307","407511","0.0-553.0","fja98dr0","","","","","","","","","","","","","693","bms","Diagnostic trial","","f","","8","0","8","false","false","false","both pre & post","LEFT","LEFT","f","1","true","","","",""
"","html-keyboard-response","308","408271","0.0-556.0","fja98dr0","1920","1080","","","","","","","","","","","null","+","Fixation - short","","null","","","","","","","","","","","","","","","","",""
"","html-keyboard-response","309","408871","0.0-557.0","fja98dr0","","","","","","","","","","","","","601","sjn","Diagnostic trial","","f","","8","1","8","false","false","false","both pre & post","RIGHT","LEFT","f","1","false","","","",""
"","html-keyboard-response","310","409628","0.0-560.0","fja98dr0","1920","1080","","","","","","","","","","","null","+","Fixation - short","","null","","","","","","","","","","","","","","","","",""
"","html-keyboard-response","311","410144","0.0-561.0","fja98dr0","","","","","","","","","","","","","515","sjn","Diagnostic trial","","f","","8","2","8","false","false","false","both pre & post","RIGHT","LEFT","f","1","false","","","",""
"","html-keyboard-response","312","410907","0.0-564.0","fja98dr0","1920","1080","","","","","","","","","","","null","+","Fixation - short","","null","","","","","","","","","","","","","","","","",""
"","html-keyboard-response","313","411447","0.0-565.0","fja98dr0","","","","","","","","","","","","","541","sjn","Diagnostic trial","","f","","8","3","8","false","false","false","both pre & post","RIGHT","LEFT","f","1","false","","","",""
"","html-keyboard-response","314","412199","0.0-568.0","fja98dr0","1920","1080","","","","","","","","","","","null","+","Fixation - short","","null","","","","","","","","","","","","","","","","",""
"","html-keyboard-response","315","412768","0.0-569.0","fja98dr0","","","","","","","","","","","","","570","sjn","Diagnostic trial","","f","","8","4","8","false","false","false","both pre & post","RIGHT","LEFT","f","1","false","","","",""
"","html-keyboard-response","316","413525","0.0-572.0","fja98dr0","1920","1080","","","","","","","","","","","null","+","Fixation - short","","null","","","","","","","","","","","","","","","","",""
"","html-keyboard-response","317","414048","0.0-573.0","fja98dr0","","","","","","","","","","","","","522","bms","Diagnostic trial","","f","","8","5","8","false","false","false","both pre & post","LEFT","LEFT","f","1","true","","","",""
"","html-keyboard-response","318","414801","0.0-576.0","fja98dr0","1920","1080","","","","","","","","","","","null","+","Fixation - short","","null","","","","","","","","","","","","","","","","",""
"","html-keyboard-response","319","415319","0.0-577.0","fja98dr0","","","","","","","","","","","","","517","bms","Diagnostic trial","","f","","8","6","8","false","false","false","both pre & post","LEFT","LEFT","f","1","true","","","",""
"","html-keyboard-response","320","416082","0.0-580.0","fja98dr0","1920","1080","","","","","","","","","","","null","+","Fixation - short","","null","","","","","","","","","","","","","","","","",""
"","html-keyboard-response","321","416600","0.0-581.0","fja98dr0","","","","","","","","","","","","","518","sjn","Diagnostic trial","","j","","8","7","8","false","false","true","both pre & post","RIGHT","RIGHT","j","1","true","","","",""
"","html-keyboard-response","322","417361","0.0-584.0","fja98dr0","1920","1080","","","","","","","","","","","null","+","Fixation - short","","null","","","","","","","","","","","","","","","","",""
"","canvas-keyboard-response","323","418615","0.0-585.0","fja98dr0","","","","","","","","","","","","","null","Cue","Cue","","null","","8","7","","","false","","","","","","","","","","",""
"","html-keyboard-response","324","419374","0.0-586.0","fja98dr0","1920","1080","","","","","","","","","","","null","+","Fixation - short","","null","","","","","","","","","","","","","","","","",""
"","html-keyboard-response","325","419911","0.0-587.0","fja98dr0","","","","","","","","","","","","","537","sjn","Diagnostic trial","","j","","8","8","8","true","false","true","both pre & post","RIGHT","RIGHT","j","1","true","","","",""
"","html-keyboard-response","326","420676","0.0-590.0","fja98dr0","1920","1080","","","","","","","","","","","null","+","Fixation - short","","null","","","","","","","","","","","","","","","","",""
"","html-keyboard-response","327","421264","0.0-591.0","fja98dr0","","","","","","","","","","","","","587","bms","Diagnostic trial","","f","","8","9","8","true","false","false","both pre & post","LEFT","LEFT","f","1","true","","","",""
"","html-keyboard-response","328","422025","0.0-594.0","fja98dr0","1920","1080","","","","","","","","","","","null","+","Fixation - short","","null","","","","","","","","","","","","","","","","",""
"","html-keyboard-response","329","422832","0.0-595.0","fja98dr0","","","","","","","","","","","","","806","bms","Diagnostic trial","","j","","8","10","8","true","false","true","both pre & post","LEFT","RIGHT","j","1","false","","","",""
"","html-keyboard-response","330","423593","0.0-598.0","fja98dr0","1920","1080","","","","","","","","","","","null","+","Fixation - short","","null","","","","","","","","","","","","","","","","",""
"","html-keyboard-response","331","424487","0.0-599.0","fja98dr0","","","","","","","","","","","","","894","bms","Inducer trial","","f","","8","","","","true","","","","","f","1","","false","LEFT","",""
"","html-keyboard-response","332","425251","0.0-602.0","fja98dr0","1920","1080","","","","","","","","","","","null","+","Fixation - short","","null","","","","","","","","","","","","","","","","",""
"","html-keyboard-response","333","427544","0.0-603.0","fja98dr0","","","","","","","","","","","","","2291","If ila press RIGHT | If jil press LEFT","Inducer instructions",""," ","","9","","","","","","","","","","","","","","",""
"","html-keyboard-response","334","428294","0.0-604.0","fja98dr0","1920","1080","","","","","","","","","","","null","+","Fixation - short","","null","","","","","","","","","","","","","","","","",""
"","html-keyboard-response","335","429088","0.0-605.0","fja98dr0","","","","","","","","","","","","","793","jil","Diagnostic trial","","f","","9","0","5","false","false","false","both pre & post","LEFT","LEFT","f","1","true","","","",""
"","html-keyboard-response","336","429842","0.0-608.0","fja98dr0","1920","1080","","","","","","","","","","","null","+","Fixation - short","","null","","","","","","","","","","","","","","","","",""
"","html-keyboard-response","337","430903","0.0-609.0","fja98dr0","","","","","","","","","","","","","1060","ila","Diagnostic trial","","j","","9","1","5","false","false","true","both pre & post","RIGHT","RIGHT","j","1","true","","","",""
"","html-keyboard-response","338","431666","0.0-612.0","fja98dr0","1920","1080","","","","","","","","","","","null","+","Fixation - short","","null","","","","","","","","","","","","","","","","",""
"","html-keyboard-response","339","432408","0.0-613.0","fja98dr0","","","","","","","","","","","","","741","jil","Diagnostic trial","","f","","9","2","5","false","false","false","both pre & post","LEFT","LEFT","f","1","true","","","",""
"","html-keyboard-response","340","433168","0.0-616.0","fja98dr0","1920","1080","","","","","","","","","","","null","+","Fixation - short","","null","","","","","","","","","","","","","","","","",""
"","html-keyboard-response","341","434063","0.0-617.0","fja98dr0","","","","","","","","","","","","","894","jil","Diagnostic trial","","j","","9","3","5","false","false","true","both pre & post","LEFT","RIGHT","j","1","false","","","",""
"","html-keyboard-response","342","434822","0.0-620.0","fja98dr0","1920","1080","","","","","","","","","","","null","+","Fixation - short","","null","","","","","","","","","","","","","","","","",""
"","html-keyboard-response","343","435367","0.0-621.0","fja98dr0","","","","","","","","","","","","","546","jil","Diagnostic trial","","j","","9","4","5","false","false","true","both pre & post","LEFT","RIGHT","j","1","false","","","",""
"","html-keyboard-response","344","436123","0.0-624.0","fja98dr0","1920","1080","","","","","","","","","","","null","+","Fixation - short","","null","","","","","","","","","","","","","","","","",""
"","canvas-keyboard-response","345","437388","0.0-625.0","fja98dr0","","","","","","","","","","","","","null","Cue","Cue","","null","","9","4","","","false","","","","","","","","","","",""
"","html-keyboard-response","346","438150","0.0-626.0","fja98dr0","1920","1080","","","","","","","","","","","null","+","Fixation - short","","null","","","","","","","","","","","","","","","","",""
"","html-keyboard-response","347","438944","0.0-627.0","fja98dr0","","","","","","","","","","","","","793","ila","Diagnostic trial","","f","","9","5","5","true","false","false","both pre & post","RIGHT","LEFT","f","1","false","","","",""
"","html-keyboard-response","348","439702","0.0-630.0","fja98dr0","1920","1080","","","","","","","","","","","null","+","Fixation - short","","null","","","","","","","","","","","","","","","","",""
"","html-keyboard-response","349","440544","0.0-631.0","fja98dr0","","","","","","","","","","","","","840","jil","Diagnostic trial","","f","","9","6","5","true","false","false","both pre & post","LEFT","LEFT","f","1","true","","","",""
"","html-keyboard-response","350","441308","0.0-634.0","fja98dr0","1920","1080","","","","","","","","","","","null","+","Fixation - short","","null","","","","","","","","","","","","","","","","",""
"","html-keyboard-response","351","442223","0.0-635.0","fja98dr0","","","","","","","","","","","","","914","jil","Diagnostic trial","","f","","9","7","5","true","false","false","both pre & post","LEFT","LEFT","f","1","true","","","",""
"","html-keyboard-response","352","442980","0.0-638.0","fja98dr0","1920","1080","","","","","","","","","","","null","+","Fixation - short","","null","","","","","","","","","","","","","","","","",""
"","html-keyboard-response","353","443639","0.0-639.0","fja98dr0","","","","","","","","","","","","","659","ila","Diagnostic trial","","j","","9","8","5","true","false","true","both pre & post","RIGHT","RIGHT","j","1","true","","","",""
"","html-keyboard-response","354","444405","0.0-642.0","fja98dr0","1920","1080","","","","","","","","","","","null","+","Fixation - short","","null","","","","","","","","","","","","","","","","",""
"","html-keyboard-response","355","444992","0.0-643.0","fja98dr0","","","","","","","","","","","","","586","ila","Inducer trial","","j","","9","","","","true","","","","","j","1","","false","RIGHT","",""
"","html-keyboard-response","356","445746","0.0-646.0","fja98dr0","1920","1080","","","","","","","","","","","null","+","Fixation - short","","null","","","","","","","","","","","","","","","","",""
"","html-keyboard-response","357","448696","0.0-647.0","fja98dr0","","","","","","","","","","","","","2949","If ori press RIGHT | If quy press LEFT","Inducer instructions",""," ","","10","","","","","","","","","","","","","","",""
"","html-keyboard-response","358","449453","0.0-648.0","fja98dr0","1920","1080","","","","","","","","","","","null","+","Fixation - short","","null","","","","","","","","","","","","","","","","",""
"","html-keyboard-response","359","451391","0.0-649.0","fja98dr0","","","","","","","","","","","","","1937","ori","Diagnostic trial","","f","","10","0","8","false","false","false","both pre & post","RIGHT","LEFT","f","1","false","","","",""
"","html-keyboard-response","360","452151","0.0-652.0","fja98dr0","1920","1080","","","","","","","","","","","null","+","Fixation - short","","null","","","","","","","","","","","","","","","","",""
"","html-keyboard-response","361","452752","0.0-653.0","fja98dr0","","","","","","","","","","","","","600","ori","Diagnostic trial","","f","","10","1","8","false","false","false","both pre & post","RIGHT","LEFT","f","1","false","","","",""
"","html-keyboard-response","362","453502","0.0-656.0","fja98dr0","1920","1080","","","","","","","","","","","null","+","Fixation - short","","null","","","","","","","","","","","","","","","","",""
"","html-keyboard-response","363","454287","0.0-657.0","fja98dr0","","","","","","","","","","","","","785","ori","Diagnostic trial","","j","","10","2","8","false","false","true","both pre & post","RIGHT","RIGHT","j","1","true","","","",""
"","html-keyboard-response","364","455046","0.0-660.0","fja98dr0","1920","1080","","","","","","","","","","","null","+","Fixation - short","","null","","","","","","","","","","","","","","","","",""
"","html-keyboard-response","365","455784","0.0-661.0","fja98dr0","","","","","","","","","","","","","738","ori","Diagnostic trial","","j","","10","3","8","false","false","true","both pre & post","RIGHT","RIGHT","j","1","true","","","",""
"","html-keyboard-response","366","456543","0.0-664.0","fja98dr0","1920","1080","","","","","","","","","","","null","+","Fixation - short","","null","","","","","","","","","","","","","","","","",""
"","html-keyboard-response","367","457159","0.0-665.0","fja98dr0","","","","","","","","","","","","","615","quy","Diagnostic trial","","f","","10","4","8","false","false","false","both pre & post","LEFT","LEFT","f","1","true","","","",""
"","html-keyboard-response","368","457914","0.0-668.0","fja98dr0","1920","1080","","","","","","","","","","","null","+","Fixation - short","","null","","","","","","","","","","","","","","","","",""
"","html-keyboard-response","369","458583","0.0-669.0","fja98dr0","","","","","","","","","","","","","668","quy","Diagnostic trial","","j","","10","5","8","false","false","true","both pre & post","LEFT","RIGHT","j","1","false","","","",""
"","html-keyboard-response","370","459345","0.0-672.0","fja98dr0","1920","1080","","","","","","","","","","","null","+","Fixation - short","","null","","","","","","","","","","","","","","","","",""
"","html-keyboard-response","371","460143","0.0-673.0","fja98dr0","","","","","","","","","","","","","798","quy","Diagnostic trial","","f","","10","6","8","false","false","true","both pre & post","LEFT","RIGHT","j","0","false","","","",""
"","call-function","372","460143","0.0-675.0-0.0","fja98dr0","","","","","","","","","","","","","","","","","","","","","","","","","","","","","","","","","",""
"","html-keyboard-response","373","460446","0.0-675.0-1.0","fja98dr0","1920","1080","","","","","","","","","","","null","Wrong","Feedback","","null","","","","","","","","","","","","","","","","",""
"","call-function","374","460446","0.0-675.0-2.0","fja98dr0","","","","","","","","","","","","","","","","","","","","","","","","","","","","","","","","","",""
"","html-keyboard-response","375","461202","0.0-676.0","fja98dr0","1920","1080","","","","","","","","","","","null","+","Fixation - short","","null","","","","","","","","","","","","","","","","",""
"","html-keyboard-response","376","461920","0.0-677.0","fja98dr0","","","","","","","","","","","","","717","ori","Diagnostic trial","","f","","10","7","8","false","false","false","both pre & post","RIGHT","LEFT","f","1","false","","","",""
"","html-keyboard-response","377","462673","0.0-680.0","fja98dr0","1920","1080","","","","","","","","","","","null","+","Fixation - short","","null","","","","","","","","","","","","","","","","",""
"","canvas-keyboard-response","378","463932","0.0-681.0","fja98dr0","","","","","","","","","","","","","null","Cue","Cue","","null","","10","7","","","false","","","","","","","","","","",""
"","html-keyboard-response","379","464692","0.0-682.0","fja98dr0","1920","1080","","","","","","","","","","","null","+","Fixation - short","","null","","","","","","","","","","","","","","","","",""
"","html-keyboard-response","380","466152","0.0-683.0","fja98dr0","","","","","","","","","","","","","1459","ori","Inducer trial","","j","","10","","","","true","","","","","j","1","","false","RIGHT","",""
"","html-keyboard-response","381","466907","0.0-686.0","fja98dr0","1920","1080","","","","","","","","","","","null","+","Fixation - short","","null","","","","","","","","","","","","","","","","",""
"","html-keyboard-response","382","469424","0.0-687.0","fja98dr0","","","","","","","","","","","","","2517","If jup press RIGHT | If uen press LEFT","Inducer instructions",""," ","","11","","","","","","","","","","","","","","",""
"","html-keyboard-response","383","470188","0.0-688.0","fja98dr0","1920","1080","","","","","","","","","","","null","+","Fixation - short","","null","","","","","","","","","","","","","","","","",""
"","html-keyboard-response","384","470999","0.0-689.0","fja98dr0","","","","","","","","","","","","","811","uen","Diagnostic trial","","f","","11","0","7","false","false","false","both pre & post","LEFT","LEFT","f","1","true","","","",""
"","html-keyboard-response","385","471759","0.0-692.0","fja98dr0","1920","1080","","","","","","","","","","","null","+","Fixation - short","","null","","","","","","","","","","","","","","","","",""
"","html-keyboard-response","386","472463","0.0-693.0","fja98dr0","","","","","","","","","","","","","704","uen","Diagnostic trial","","f","","11","1","7","false","false","false","both pre & post","LEFT","LEFT","f","1","true","","","",""
"","html-keyboard-response","387","473229","0.0-696.0","fja98dr0","1920","1080","","","","","","","","","","","null","+","Fixation - short","","null","","","","","","","","","","","","","","","","",""
"","html-keyboard-response","388","473896","0.0-697.0","fja98dr0","","","","","","","","","","","","","665","uen","Diagnostic trial","","j","","11","2","7","false","false","true","both pre & post","LEFT","RIGHT","j","1","false","","","",""
"","html-keyboard-response","389","474651","0.0-700.0","fja98dr0","1920","1080","","","","","","","","","","","null","+","Fixation - short","","null","","","","","","","","","","","","","","","","",""
"","html-keyboard-response","390","475496","0.0-701.0","fja98dr0","","","","","","","","","","","","","844","jup","Diagnostic trial","","j","","11","3","7","false","false","true","both pre & post","RIGHT","RIGHT","j","1","true","","","",""
"","html-keyboard-response","391","476252","0.0-704.0","fja98dr0","1920","1080","","","","","","","","","","","null","+","Fixation - short","","null","","","","","","","","","","","","","","","","",""
"","html-keyboard-response","392","476880","0.0-705.0","fja98dr0","","","","","","","","","","","","","626","jup","Diagnostic trial","","f","","11","4","7","false","false","false","both pre & post","RIGHT","LEFT","f","1","false","","","",""
"","html-keyboard-response","393","477635","0.0-708.0","fja98dr0","1920","1080","","","","","","","","","","","null","+","Fixation - short","","null","","","","","","","","","","","","","","","","",""
"","html-keyboard-response","394","478295","0.0-709.0","fja98dr0","","","","","","","","","","","","","659","uen","Diagnostic trial","","j","","11","5","7","false","false","true","both pre & post","LEFT","RIGHT","j","1","false","","","",""
"","html-keyboard-response","395","479060","0.0-712.0","fja98dr0","1920","1080","","","","","","","","","","","null","+","Fixation - short","","null","","","","","","","","","","","","","","","","",""
"","html-keyboard-response","396","479656","0.0-713.0","fja98dr0","","","","","","","","","","","","","595","jup","Diagnostic trial","","f","","11","6","7","false","false","false","both pre & post","RIGHT","LEFT","f","1","false","","","",""
"","html-keyboard-response","397","480419","0.0-716.0","fja98dr0","1920","1080","","","","","","","","","","","null","+","Fixation - short","","null","","","","","","","","","","","","","","","","",""
"","canvas-keyboard-response","398","481779","0.0-717.0","fja98dr0","","","","","","","","","","","","","null","Cue","Cue","","null","","11","6","","","false","","","","","","","","","","",""
"","html-keyboard-response","399","482545","0.0-718.0","fja98dr0","1920","1080","","","","","","","","","","","null","+","Fixation - short","","null","","","","","","","","","","","","","","","","",""
"","html-keyboard-response","400","483328","0.0-719.0","fja98dr0","","","","","","","","","","","","","782","jup","Diagnostic trial","","f","","11","7","7","true","false","false","both pre & post","RIGHT","LEFT","f","1","false","","","",""
"","html-keyboard-response","401","484092","0.0-722.0","fja98dr0","1920","1080","","","","","","","","","","","null","+","Fixation - short","","null","","","","","","","","","","","","","","","","",""
"","html-keyboard-response","402","484847","0.0-723.0","fja98dr0","","","","","","","","","","","","","755","uen","Diagnostic trial","","j","","11","8","7","true","false","true","both pre & post","LEFT","RIGHT","j","1","false","","","",""
"","html-keyboard-response","403","485607","0.0-726.0","fja98dr0","1920","1080","","","","","","","","","","","null","+","Fixation - short","","null","","","","","","","","","","","","","","","","",""
"","html-keyboard-response","404","486336","0.0-727.0","fja98dr0","","","","","","","","","","","","","727","jup","Diagnostic trial","","j","","11","9","7","true","false","true","both pre & post","RIGHT","RIGHT","j","1","true","","","",""
"","html-keyboard-response","405","487097","0.0-730.0","fja98dr0","1920","1080","","","","","","","","","","","null","+","Fixation - short","","null","","","","","","","","","","","","","","","","",""
"","html-keyboard-response","406","487648","0.0-731.0","fja98dr0","","","","","","","","","","","","","550","jup","Inducer trial","","j","","11","","","","true","","","","","j","1","","false","RIGHT","",""
"","html-keyboard-response","407","488406","0.0-734.0","fja98dr0","1920","1080","","","","","","","","","","","null","+","Fixation - short","","null","","","","","","","","","","","","","","","","",""
"","html-keyboard-response","408","489975","0.0-735.0","fja98dr0","","","","","","","","","","","","","1569","If pte press RIGHT | If eeu press LEFT","Inducer instructions",""," ","","12","","","","","","","","","","","","","","",""
"","html-keyboard-response","409","490740","0.0-736.0","fja98dr0","1920","1080","","","","","","","","","","","null","+","Fixation - short","","null","","","","","","","","","","","","","","","","",""
"","html-keyboard-response","410","491471","0.0-737.0","fja98dr0","","","","","","","","","","","","","731","eeu","Diagnostic trial","","f","","12","0","9","false","false","false","both pre & post","LEFT","LEFT","f","1","true","","","",""
"","html-keyboard-response","411","492223","0.0-740.0","fja98dr0","1920","1080","","","","","","","","","","","null","+","Fixation - short","","null","","","","","","","","","","","","","","","","",""
"","html-keyboard-response","412","492920","0.0-741.0","fja98dr0","","","","","","","","","","","","","697","pte","Diagnostic trial","","j","","12","1","9","false","false","true","both pre & post","RIGHT","RIGHT","j","1","true","","","",""
"","html-keyboard-response","413","493683","0.0-744.0","fja98dr0","1920","1080","","","","","","","","","","","null","+","Fixation - short","","null","","","","","","","","","","","","","","","","",""
"","html-keyboard-response","414","494336","0.0-745.0","fja98dr0","","","","","","","","","","","","","653","pte","Diagnostic trial","","j","","12","2","9","false","false","true","both pre & post","RIGHT","RIGHT","j","1","true","","","",""
"","html-keyboard-response","415","495102","0.0-748.0","fja98dr0","1920","1080","","","","","","","","","","","null","+","Fixation - short","","null","","","","","","","","","","","","","","","","",""
"","html-keyboard-response","416","495616","0.0-749.0","fja98dr0","","","","","","","","","","","","","513","eeu","Diagnostic trial","","f","","12","3","9","false","false","false","both pre & post","LEFT","LEFT","f","1","true","","","",""
"","html-keyboard-response","417","496378","0.0-752.0","fja98dr0","1920","1080","","","","","","","","","","","null","+","Fixation - short","","null","","","","","","","","","","","","","","","","",""
"","html-keyboard-response","418","497047","0.0-753.0","fja98dr0","","","","","","","","","","","","","669","pte","Diagnostic trial","","f","","12","4","9","false","false","false","both pre & post","RIGHT","LEFT","f","1","false","","","",""
"","html-keyboard-response","419","497803","0.0-756.0","fja98dr0","1920","1080","","","","","","","","","","","null","+","Fixation - short","","null","","","","","","","","","","","","","","","","",""
"","html-keyboard-response","420","498392","0.0-757.0","fja98dr0","","","","","","","","","","","","","588","pte","Diagnostic trial","","j","","12","5","9","false","false","true","both pre & post","RIGHT","RIGHT","j","1","true","","","",""
"","html-keyboard-response","421","499143","0.0-760.0","fja98dr0","1920","1080","","","","","","","","","","","null","+","Fixation - short","","null","","","","","","","","","","","","","","","","",""
"","html-keyboard-response","422","499752","0.0-761.0","fja98dr0","","","","","","","","","","","","","608","pte","Diagnostic trial","","f","","12","6","9","false","false","false","both pre & post","RIGHT","LEFT","f","1","false","","","",""
"","html-keyboard-response","423","500517","0.0-764.0","fja98dr0","1920","1080","","","","","","","","","","","null","+","Fixation - short","","null","","","","","","","","","","","","","","","","",""
"","html-keyboard-response","424","501071","0.0-765.0","fja98dr0","","","","","","","","","","","","","556","eeu","Diagnostic trial","","f","","12","7","9","false","false","false","both pre & post","LEFT","LEFT","f","1","true","","","",""
"","html-keyboard-response","425","501828","0.0-768.0","fja98dr0","1920","1080","","","","","","","","","","","null","+","Fixation - short","","null","","","","","","","","","","","","","","","","",""
"","html-keyboard-response","426","502344","0.0-769.0","fja98dr0","","","","","","","","","","","","","515","pte","Diagnostic trial","","f","","12","8","9","false","false","false","both pre & post","RIGHT","LEFT","f","1","false","","","",""
"","html-keyboard-response","427","503107","0.0-772.0","fja98dr0","1920","1080","","","","","","","","","","","null","+","Fixation - short","","null","","","","","","","","","","","","","","","","",""
"","canvas-keyboard-response","428","504367","0.0-773.0","fja98dr0","","","","","","","","","","","","","null","Cue","Cue","","null","","12","8","","","false","","","","","","","","","","",""
"","html-keyboard-response","429","505129","0.0-774.0","fja98dr0","1920","1080","","","","","","","","","","","null","+","Fixation - short","","null","","","","","","","","","","","","","","","","",""
"","html-keyboard-response","430","505672","0.0-775.0","fja98dr0","","","","","","","","","","","","","541","eeu","Diagnostic trial","","j","","12","9","9","true","false","true","both pre & post","LEFT","RIGHT","j","1","false","","","",""
"","html-keyboard-response","431","506426","0.0-778.0","fja98dr0","1920","1080","","","","","","","","","","","null","+","Fixation - short","","null","","","","","","","","","","","","","","","","",""
"","html-keyboard-response","432","507063","0.0-779.0","fja98dr0","","","","","","","","","","","","","638","eeu","Diagnostic trial","","f","","12","10","9","true","false","false","both pre & post","LEFT","LEFT","f","1","true","","","",""
"","html-keyboard-response","433","507817","0.0-782.0","fja98dr0","1920","1080","","","","","","","","","","","null","+","Fixation - short","","null","","","","","","","","","","","","","","","","",""
"","html-keyboard-response","434","508392","0.0-783.0","fja98dr0","","","","","","","","","","","","","574","eeu","Diagnostic trial","","f","","12","11","9","true","false","false","both pre & post","LEFT","LEFT","f","1","true","","","",""
"","html-keyboard-response","435","509156","0.0-786.0","fja98dr0","1920","1080","","","","","","","","","","","null","+","Fixation - short","","null","","","","","","","","","","","","","","","","",""
"","html-keyboard-response","436","509855","0.0-787.0","fja98dr0","","","","","","","","","","","","","699","pte","Diagnostic trial","","f","","12","12","9","true","false","false","both pre & post","RIGHT","LEFT","f","1","false","","","",""
"","html-keyboard-response","437","510610","0.0-790.0","fja98dr0","1920","1080","","","","","","","","","","","null","+","Fixation - short","","null","","","","","","","","","","","","","","","","",""
"","html-keyboard-response","438","511184","0.0-791.0","fja98dr0","","","","","","","","","","","","","573","eeu","Inducer trial","","f","","12","","","","true","","","","","f","1","","false","LEFT","",""
"","html-keyboard-response","439","511941","0.0-794.0","fja98dr0","1920","1080","","","","","","","","","","","null","+","Fixation - short","","null","","","","","","","","","","","","","","","","",""
"","html-keyboard-response","440","513895","0.0-795.0","fja98dr0","","","","","","","","","","","","","1954","If pcm press RIGHT | If ccx press LEFT","Inducer instructions",""," ","","13","","","","","","","","","","","","","","",""
"","html-keyboard-response","441","514656","0.0-796.0","fja98dr0","1920","1080","","","","","","","","","","","null","+","Fixation - short","","null","","","","","","","","","","","","","","","","",""
"","html-keyboard-response","442","515375","0.0-797.0","fja98dr0","","","","","","","","","","","","","720","ccx","Diagnostic trial","","f","","13","0","7","false","false","false","both pre & post","LEFT","LEFT","f","1","true","","","",""
"","html-keyboard-response","443","516141","0.0-800.0","fja98dr0","1920","1080","","","","","","","","","","","null","+","Fixation - short","","null","","","","","","","","","","","","","","","","",""
"","html-keyboard-response","444","516695","0.0-801.0","fja98dr0","","","","","","","","","","","","","555","ccx","Diagnostic trial","","f","","13","1","7","false","false","false","both pre & post","LEFT","LEFT","f","1","true","","","",""
"","html-keyboard-response","445","517455","0.0-804.0","fja98dr0","1920","1080","","","","","","","","","","","null","+","Fixation - short","","null","","","","","","","","","","","","","","","","",""
"","html-keyboard-response","446","518111","0.0-805.0","fja98dr0","","","","","","","","","","","","","657","pcm","Diagnostic trial","","f","","13","2","7","false","false","false","both pre & post","RIGHT","LEFT","f","1","false","","","",""
"","html-keyboard-response","447","518876","0.0-808.0","fja98dr0","1920","1080","","","","","","","","","","","null","+","Fixation - short","","null","","","","","","","","","","","","","","","","",""
"","html-keyboard-response","448","519343","0.0-809.0","fja98dr0","","","","","","","","","","","","","467","pcm","Diagnostic trial","","j","","13","3","7","false","false","true","both pre & post","RIGHT","RIGHT","j","1","true","","","",""
"","html-keyboard-response","449","520124","0.0-812.0","fja98dr0","1920","1080","","","","","","","","","","","null","+","Fixation - short","","null","","","","","","","","","","","","","","","","",""
"","html-keyboard-response","450","520647","0.0-813.0","fja98dr0","","","","","","","","","","","","","523","pcm","Diagnostic trial","","j","","13","4","7","false","false","true","both pre & post","RIGHT","RIGHT","j","1","true","","","",""
"","html-keyboard-response","451","521409","0.0-816.0","fja98dr0","1920","1080","","","","","","","","","","","null","+","Fixation - short","","null","","","","","","","","","","","","","","","","",""
"","html-keyboard-response","452","521863","0.0-817.0","fja98dr0","","","","","","","","","","","","","454","pcm","Diagnostic trial","","j","","13","5","7","false","false","true","both pre & post","RIGHT","RIGHT","j","1","true","","","",""
