"value","trial_type","trial_index","time_elapsed","internal_node_id","id","width","height","webaudio","browser","browser_version","mobile","os","fullscreen","vsync_rate","webcam","microphone","view_history","rt","stimulus","trial_info","success","response","exp_parameters","inducer_run","diagnostic_run","cue_num","post_cue","inducer_trial","italic","forced_equal_run","correct_inducer_response_side","correct_diag_response_side","correct_response_key","correct_response","congruent","force_equal","correct_indu_response_side","accuracy","interactive"
"","call-function","0","2","0.0-0.0","mgbrh8v1","","","","","","","","","","","","","","","","","","","","","","","","","","","","","","","","","",""
"","browser-check","1","1012","0.0-1.0","mgbrh8v1","1272","606","true","edge-chromium","122.0.0","false","Windows 10","true","60.03","true","true","","","","","","","","","","","","","","","","","","","","","","",""
"","instructions","2","56294","0.0-2.0","mgbrh8v1","","","","","","","","","","","","[{""page_index"":0,""viewing_time"":24674},{""page_index"":1,""viewing_time"":21638},{""page_index"":2,""viewing_time"":8970}]","55282","The experiment and consent","The experiment and consent","","","","","","","","","","","","","","","","","","",""
"","fullscreen","3","64301","0.0-3.0","mgbrh8v1","","","","","","","","","","","","","7004","","Full screen","true","","","","","","","","","","","","","","","","","",""
"","instructions","4","101976","0.0-4.0","mgbrh8v1","","","","","","","","","","","","[{""page_index"":0,""viewing_time"":27279},{""page_index"":1,""viewing_time"":10395}]","37674","Instructions","Basic overview explanation","","","","","","","","","","","","","","","","","","",""
"","html-keyboard-response","5","113818","0.0-5.0","mgbrh8v1","","","","","","","","","","","","","10329","If italic press RIGHT | If upright press LEFT","Diagnostic instructions",""," ","{""debug"":false,""skip_instructions"":false,""skip_practice"":false,""save_local_data"":false,""studu_name"":""exp2"",""default_background_colour"":""#cccccc"",""wrong_response_colour"":""#d22d2d"",""instruction_delay"":20000,""trial_duration"":2000,""short_fixation"":750,""long_fixation"":1500,""wrong_response_delay"":300,""too_slow_delay"":300,""instruction_font_size"":""24px"",""general_font_size"":""42px"",""fixation_size"":""48px"",""allowed_responses"":[""f"",""j""],""cue_min_length"":0,""cue_max_length"":4,""tot_post_cue_len"":72,""cue_colour"":""yellow"",""cue_shape"":""Triangle"",""cue_size"":70,""cue_duration"":1250,""avg_number_of_cues"":3,""inducer_colour"":""red"",""number_of_inducers"":24,""pre_cue_italic_forced_equal"":true,""post_cue_italic_forced_equal"":true,""prac_diagnostic_rounds"":16,""prac_inducer_rounds"":6,""prac_cue_rounds"":16,""prac_post_cue_num"":3}","","","","","","","","","","","","","","","",""
"","html-keyboard-response","6","114580","0.0-6.0","mgbrh8v1","1280","720","","","","","","","","","","","null","+","Fixation - short","","null","","","","","","","","","","","","","","","","",""
"","html-keyboard-response","7","115216","0.0-7.0","mgbrh8v1","","","","","","","","","","","","","635","dof","Diagnostic practice","","f","","Diagnostic practice","0","-84","true","false","false","prac equal","RIGHT","LEFT","f","1","false","","","",""
"","html-keyboard-response","8","115968","0.0-10.0","mgbrh8v1","1280","720","","","","","","","","","","","null","+","Fixation - short","","null","","","","","","","","","","","","","","","","",""
"","html-keyboard-response","9","116584","0.0-11.0","mgbrh8v1","","","","","","","","","","","","","615","dof","Diagnostic practice","","j","","Diagnostic practice","1","-84","true","false","true","prac equal","RIGHT","RIGHT","j","1","true","","","",""
"","html-keyboard-response","10","117346","0.0-14.0","mgbrh8v1","1280","720","","","","","","","","","","","null","+","Fixation - short","","null","","","","","","","","","","","","","","","","",""
"","html-keyboard-response","11","117824","0.0-15.0","mgbrh8v1","","","","","","","","","","","","","477","bsh","Diagnostic practice","","f","","Diagnostic practice","2","-84","true","false","false","prac equal","LEFT","LEFT","f","1","true","","","",""
"","html-keyboard-response","12","118586","0.0-18.0","mgbrh8v1","1280","720","","","","","","","","","","","null","+","Fixation - short","","null","","","","","","","","","","","","","","","","",""
"","html-keyboard-response","13","119048","0.0-19.0","mgbrh8v1","","","","","","","","","","","","","461","bsh","Diagnostic practice","","f","","Diagnostic practice","3","-84","true","false","false","prac equal","LEFT","LEFT","f","1","true","","","",""
"","html-keyboard-response","14","119805","0.0-22.0","mgbrh8v1","1280","720","","","","","","","","","","","null","+","Fixation - short","","null","","","","","","","","","","","","","","","","",""
"","html-keyboard-response","15","120312","0.0-23.0","mgbrh8v1","","","","","","","","","","","","","506","dof","Diagnostic practice","","j","","Diagnostic practice","4","-84","true","false","true","prac equal","RIGHT","RIGHT","j","1","true","","","",""
"","html-keyboard-response","16","121075","0.0-26.0","mgbrh8v1","1280","720","","","","","","","","","","","null","+","Fixation - short","","null","","","","","","","","","","","","","","","","",""
"","html-keyboard-response","17","121512","0.0-27.0","mgbrh8v1","","","","","","","","","","","","","436","bsh","Diagnostic practice","","j","","Diagnostic practice","5","-84","true","false","true","prac equal","LEFT","RIGHT","j","1","false","","","",""
"","html-keyboard-response","18","122263","0.0-30.0","mgbrh8v1","1280","720","","","","","","","","","","","null","+","Fixation - short","","null","","","","","","","","","","","","","","","","",""
"","html-keyboard-response","19","122696","0.0-31.0","mgbrh8v1","","","","","","","","","","","","","432","bsh","Diagnostic practice","","f","","Diagnostic practice","6","-84","true","false","false","prac equal","LEFT","LEFT","f","1","true","","","",""
"","html-keyboard-response","20","123453","0.0-34.0","mgbrh8v1","1280","720","","","","","","","","","","","null","+","Fixation - short","","null","","","","","","","","","","","","","","","","",""
"","html-keyboard-response","21","123842","0.0-35.0","mgbrh8v1","","","","","","","","","","","","","388","bsh","Diagnostic practice","","f","","Diagnostic practice","7","-84","true","false","false","prac equal","LEFT","LEFT","f","1","true","","","",""
"","html-keyboard-response","22","124593","0.0-38.0","mgbrh8v1","1280","720","","","","","","","","","","","null","+","Fixation - short","","null","","","","","","","","","","","","","","","","",""
"","html-keyboard-response","23","125168","0.0-39.0","mgbrh8v1","","","","","","","","","","","","","575","bsh","Diagnostic practice","","j","","Diagnostic practice","8","-84","true","false","true","prac equal","LEFT","RIGHT","j","1","false","","","",""
"","html-keyboard-response","24","125925","0.0-42.0","mgbrh8v1","1280","720","","","","","","","","","","","null","+","Fixation - short","","null","","","","","","","","","","","","","","","","",""
"","html-keyboard-response","25","126408","0.0-43.0","mgbrh8v1","","","","","","","","","","","","","482","bsh","Diagnostic practice","","f","","Diagnostic practice","9","-84","true","false","false","prac equal","LEFT","LEFT","f","1","true","","","",""
"","html-keyboard-response","26","127163","0.0-46.0","mgbrh8v1","1280","720","","","","","","","","","","","null","+","Fixation - short","","null","","","","","","","","","","","","","","","","",""
"","html-keyboard-response","27","127640","0.0-47.0","mgbrh8v1","","","","","","","","","","","","","477","dof","Diagnostic practice","","f","","Diagnostic practice","10","-84","true","false","false","prac equal","RIGHT","LEFT","f","1","false","","","",""
"","html-keyboard-response","28","128399","0.0-50.0","mgbrh8v1","1280","720","","","","","","","","","","","null","+","Fixation - short","","null","","","","","","","","","","","","","","","","",""
"","html-keyboard-response","29","128992","0.0-51.0","mgbrh8v1","","","","","","","","","","","","","593","dof","Diagnostic practice","","j","","Diagnostic practice","11","-84","true","false","true","prac equal","RIGHT","RIGHT","j","1","true","","","",""
"","html-keyboard-response","30","129745","0.0-54.0","mgbrh8v1","1280","720","","","","","","","","","","","null","+","Fixation - short","","null","","","","","","","","","","","","","","","","",""
"","html-keyboard-response","31","130368","0.0-55.0","mgbrh8v1","","","","","","","","","","","","","622","bsh","Diagnostic practice","","j","","Diagnostic practice","12","-84","true","false","true","prac equal","LEFT","RIGHT","j","1","false","","","",""
"","html-keyboard-response","32","131133","0.0-58.0","mgbrh8v1","1280","720","","","","","","","","","","","null","+","Fixation - short","","null","","","","","","","","","","","","","","","","",""
"","html-keyboard-response","33","131744","0.0-59.0","mgbrh8v1","","","","","","","","","","","","","611","dof","Diagnostic practice","","j","","Diagnostic practice","13","-84","true","false","true","prac equal","RIGHT","RIGHT","j","1","true","","","",""
"","html-keyboard-response","34","132509","0.0-62.0","mgbrh8v1","1280","720","","","","","","","","","","","null","+","Fixation - short","","null","","","","","","","","","","","","","","","","",""
"","html-keyboard-response","35","132928","0.0-63.0","mgbrh8v1","","","","","","","","","","","","","419","dof","Diagnostic practice","","j","","Diagnostic practice","14","-84","true","false","true","prac equal","RIGHT","RIGHT","j","1","true","","","",""
"","html-keyboard-response","36","133690","0.0-66.0","mgbrh8v1","1280","720","","","","","","","","","","","null","+","Fixation - short","","null","","","","","","","","","","","","","","","","",""
"","html-keyboard-response","37","134065","0.0-67.0","mgbrh8v1","","","","","","","","","","","","","375","bsh","Diagnostic practice","","f","","Diagnostic practice","15","-84","true","false","false","prac equal","LEFT","LEFT","f","1","true","","","",""
"","html-keyboard-response","38","134829","0.0-70.0","mgbrh8v1","1280","720","","","","","","","","","","","null","+","Fixation - short","","null","","","","","","","","","","","","","","","","",""
"","instructions","39","146176","0.0-71.0","mgbrh8v1","","","","","","","","","","","","[{""page_index"":0,""viewing_time"":11346}]","11346","Instructions","Final experiment explanation","","","","","","","","","","","","","","","","","","",""
"","html-keyboard-response","40","156857","0.0-72.0","mgbrh8v1","","","","","","","","","","","","","9170","If dpa press RIGHT | If ccx press LEFT","Inducer practice",""," ","","Practice","","","","","","","","","","","","","","",""
"","html-keyboard-response","41","157624","0.0-73.0","mgbrh8v1","1280","720","","","","","","","","","","","null","+","Fixation - short","","null","","","","","","","","","","","","","","","","",""
"","html-keyboard-response","42","157992","0.0-74.0","mgbrh8v1","","","","","","","","","","","","","368","ccx","Inducer practice","","f","","Practice","","","","true","","","","","f","1","","true","LEFT","",""
"","html-keyboard-response","43","158749","0.0-77.0","mgbrh8v1","1280","720","","","","","","","","","","","null","+","Fixation - short","","null","","","","","","","","","","","","","","","","",""
"","html-keyboard-response","44","165568","0.0-78.0","mgbrh8v1","","","","","","","","","","","","","6819","If drk press RIGHT | If pbz press LEFT","Inducer practice",""," ","","Practice","","","","","","","","","","","","","","",""
"","html-keyboard-response","45","166323","0.0-79.0","mgbrh8v1","1280","720","","","","","","","","","","","null","+","Fixation - short","","null","","","","","","","","","","","","","","","","",""
"","html-keyboard-response","46","166768","0.0-80.0","mgbrh8v1","","","","","","","","","","","","","445","drk","Inducer practice","","j","","Practice","","","","true","","","","","j","1","","true","RIGHT","",""
"","html-keyboard-response","47","167529","0.0-83.0","mgbrh8v1","1280","720","","","","","","","","","","","null","+","Fixation - short","","null","","","","","","","","","","","","","","","","",""
"","html-keyboard-response","48","170625","0.0-84.0","mgbrh8v1","","","","","","","","","","","","","3096","If bms press RIGHT | If uen press LEFT","Inducer practice",""," ","","Practice","","","","","","","","","","","","","","",""
"","html-keyboard-response","49","171380","0.0-85.0","mgbrh8v1","1280","720","","","","","","","","","","","null","+","Fixation - short","","null","","","","","","","","","","","","","","","","",""
"","html-keyboard-response","50","171888","0.0-86.0","mgbrh8v1","","","","","","","","","","","","","508","bms","Inducer practice","","j","","Practice","","","","true","","","","","j","1","","true","RIGHT","",""
"","html-keyboard-response","51","172645","0.0-89.0","mgbrh8v1","1280","720","","","","","","","","","","","null","+","Fixation - short","","null","","","","","","","","","","","","","","","","",""
"","html-keyboard-response","52","174048","0.0-90.0","mgbrh8v1","","","","","","","","","","","","","1403","If hlb press RIGHT | If mik press LEFT","Inducer practice",""," ","","Practice","","","","","","","","","","","","","","",""
"","html-keyboard-response","53","174802","0.0-91.0","mgbrh8v1","1280","720","","","","","","","","","","","null","+","Fixation - short","","null","","","","","","","","","","","","","","","","",""
"","html-keyboard-response","54","175288","0.0-92.0","mgbrh8v1","","","","","","","","","","","","","486","hlb","Inducer practice","","j","","Practice","","","","true","","","","","j","1","","true","RIGHT","",""
"","html-keyboard-response","55","176050","0.0-95.0","mgbrh8v1","1280","720","","","","","","","","","","","null","+","Fixation - short","","null","","","","","","","","","","","","","","","","",""
"","html-keyboard-response","56","179544","0.0-96.0","mgbrh8v1","","","","","","","","","","","","","3493","If lpn press RIGHT | If xet press LEFT","Inducer practice",""," ","","Practice","","","","","","","","","","","","","","",""
"","html-keyboard-response","57","180298","0.0-97.0","mgbrh8v1","1280","720","","","","","","","","","","","null","+","Fixation - short","","null","","","","","","","","","","","","","","","","",""
"","html-keyboard-response","58","180665","0.0-98.0","mgbrh8v1","","","","","","","","","","","","","367","xet","Inducer practice","","f","","Practice","","","","true","","","","","f","1","","true","LEFT","",""
"","html-keyboard-response","59","181422","0.0-101.0","mgbrh8v1","1280","720","","","","","","","","","","","null","+","Fixation - short","","null","","","","","","","","","","","","","","","","",""
"","html-keyboard-response","60","184472","0.0-102.0","mgbrh8v1","","","","","","","","","","","","","3049","If rif press RIGHT | If mts press LEFT","Inducer practice",""," ","","Practice","","","","","","","","","","","","","","",""
"","html-keyboard-response","61","185228","0.0-103.0","mgbrh8v1","1280","720","","","","","","","","","","","null","+","Fixation - short","","null","","","","","","","","","","","","","","","","",""
"","html-keyboard-response","62","185648","0.0-104.0","mgbrh8v1","","","","","","","","","","","","","419","mts","Inducer practice","","f","","Practice","","","","true","","","","","f","1","","true","LEFT","",""
"","html-keyboard-response","63","186414","0.0-107.0","mgbrh8v1","1280","720","","","","","","","","","","","null","+","Fixation - short","","null","","","","","","","","","","","","","","","","",""
"","instructions","64","275263","0.0-108.0","mgbrh8v1","","","","","","","","","","","","[{""page_index"":0,""viewing_time"":88848}]","88848","Instructions","Final experiment explanation","","","","","","","","","","","","","","","","","","",""
"","html-keyboard-response","65","281080","0.0-109.0","mgbrh8v1","","","","","","","","","","","","","4301","If ori press RIGHT | If cta press LEFT","Cue practice",""," ","","Practice","","","","","","","","","","","","","","",""
"","html-keyboard-response","66","281841","0.0-110.0","mgbrh8v1","1280","720","","","","","","","","","","","null","+","Fixation - short","","null","","","","","","","","","","","","","","","","",""
"","html-keyboard-response","67","282312","0.0-111.0","mgbrh8v1","","","","","","","","","","","","","471","ori","Cue practice","","j","","Practice","0","13","false","false","true","both pre & post","RIGHT","RIGHT","j","1","true","","","",""
"","html-keyboard-response","68","283077","0.0-114.0","mgbrh8v1","1280","720","","","","","","","","","","","null","+","Fixation - short","","null","","","","","","","","","","","","","","","","",""
"","html-keyboard-response","69","283824","0.0-115.0","mgbrh8v1","","","","","","","","","","","","","747","ori","Cue practice","","j","","Practice","1","13","false","false","false","both pre & post","RIGHT","LEFT","f","0","false","","","",""
"","call-function","70","283825","0.0-117.0-0.0","mgbrh8v1","","","","","","","","","","","","","","","","","","","","","","","","","","","","","","","","","",""
"","html-keyboard-response","71","284137","0.0-117.0-1.0","mgbrh8v1","1280","720","","","","","","","","","","","null","Wrong","Feedback","","null","","","","","","","","","","","","","","","","",""
"","call-function","72","284137","0.0-117.0-2.0","mgbrh8v1","","","","","","","","","","","","","","","","","","","","","","","","","","","","","","","","","",""
"","html-keyboard-response","73","284903","0.0-118.0","mgbrh8v1","1280","720","","","","","","","","","","","null","+","Fixation - short","","null","","","","","","","","","","","","","","","","",""
"","html-keyboard-response","74","285585","0.0-119.0","mgbrh8v1","","","","","","","","","","","","","682","ori","Cue practice","","f","","Practice","2","13","false","false","false","both pre & post","RIGHT","LEFT","f","1","false","","","",""
"","html-keyboard-response","75","286343","0.0-122.0","mgbrh8v1","1280","720","","","","","","","","","","","null","+","Fixation - short","","null","","","","","","","","","","","","","","","","",""
"","html-keyboard-response","76","286848","0.0-123.0","mgbrh8v1","","","","","","","","","","","","","505","ori","Cue practice","","f","","Practice","3","13","false","false","false","both pre & post","RIGHT","LEFT","f","1","false","","","",""
"","html-keyboard-response","77","287601","0.0-126.0","mgbrh8v1","1280","720","","","","","","","","","","","null","+","Fixation - short","","null","","","","","","","","","","","","","","","","",""
"","html-keyboard-response","78","288144","0.0-127.0","mgbrh8v1","","","","","","","","","","","","","543","ori","Cue practice","","j","","Practice","4","13","false","false","true","both pre & post","RIGHT","RIGHT","j","1","true","","","",""
"","html-keyboard-response","79","288907","0.0-130.0","mgbrh8v1","1280","720","","","","","","","","","","","null","+","Fixation - short","","null","","","","","","","","","","","","","","","","",""
"","html-keyboard-response","80","289432","0.0-131.0","mgbrh8v1","","","","","","","","","","","","","525","cta","Cue practice","","f","","Practice","5","13","false","false","false","both pre & post","LEFT","LEFT","f","1","true","","","",""
"","html-keyboard-response","81","290189","0.0-134.0","mgbrh8v1","1280","720","","","","","","","","","","","null","+","Fixation - short","","null","","","","","","","","","","","","","","","","",""
"","html-keyboard-response","82","290592","0.0-135.0","mgbrh8v1","","","","","","","","","","","","","403","ori","Cue practice","","j","","Practice","6","13","false","false","true","both pre & post","RIGHT","RIGHT","j","1","true","","","",""
"","html-keyboard-response","83","291344","0.0-138.0","mgbrh8v1","1280","720","","","","","","","","","","","null","+","Fixation - short","","null","","","","","","","","","","","","","","","","",""
"","html-keyboard-response","84","291952","0.0-139.0","mgbrh8v1","","","","","","","","","","","","","608","ori","Cue practice","","j","","Practice","7","13","false","false","true","both pre & post","RIGHT","RIGHT","j","1","true","","","",""
"","html-keyboard-response","85","292717","0.0-142.0","mgbrh8v1","1280","720","","","","","","","","","","","null","+","Fixation - short","","null","","","","","","","","","","","","","","","","",""
"","html-keyboard-response","86","293232","0.0-143.0","mgbrh8v1","","","","","","","","","","","","","515","ori","Cue practice","","j","","Practice","8","13","false","false","true","both pre & post","RIGHT","RIGHT","j","1","true","","","",""
"","html-keyboard-response","87","293990","0.0-146.0","mgbrh8v1","1280","720","","","","","","","","","","","null","+","Fixation - short","","null","","","","","","","","","","","","","","","","",""
"","html-keyboard-response","88","294416","0.0-147.0","mgbrh8v1","","","","","","","","","","","","","426","cta","Cue practice","","f","","Practice","9","13","false","false","false","both pre & post","LEFT","LEFT","f","1","true","","","",""
"","html-keyboard-response","89","295175","0.0-150.0","mgbrh8v1","1280","720","","","","","","","","","","","null","+","Fixation - short","","null","","","","","","","","","","","","","","","","",""
"","html-keyboard-response","90","295658","0.0-151.0","mgbrh8v1","","","","","","","","","","","","","482","cta","Cue practice","","j","","Practice","10","13","false","false","true","both pre & post","LEFT","RIGHT","j","1","false","","","",""
"","html-keyboard-response","91","296424","0.0-154.0","mgbrh8v1","1280","720","","","","","","","","","","","null","+","Fixation - short","","null","","","","","","","","","","","","","","","","",""
"","html-keyboard-response","92","297072","0.0-155.0","mgbrh8v1","","","","","","","","","","","","","648","cta","Cue practice","","j","","Practice","11","13","false","false","true","both pre & post","LEFT","RIGHT","j","1","false","","","",""
"","html-keyboard-response","93","297833","0.0-158.0","mgbrh8v1","1280","720","","","","","","","","","","","null","+","Fixation - short","","null","","","","","","","","","","","","","","","","",""
"","html-keyboard-response","94","298312","0.0-159.0","mgbrh8v1","","","","","","","","","","","","","479","ori","Cue practice","","f","","Practice","12","13","false","false","false","both pre & post","RIGHT","LEFT","f","1","false","","","",""
"","html-keyboard-response","95","299069","0.0-162.0","mgbrh8v1","1280","720","","","","","","","","","","","null","+","Fixation - short","","null","","","","","","","","","","","","","","","","",""
"","canvas-keyboard-response","96","300336","0.0-163.0","mgbrh8v1","","","","","","","","","","","","","null","Cue","Cue","","null","","Practice","12","","","false","","","","","","","","","","",""
"","html-keyboard-response","97","301097","0.0-164.0","mgbrh8v1","1280","720","","","","","","","","","","","null","+","Fixation - short","","null","","","","","","","","","","","","","","","","",""
"","html-keyboard-response","98","301632","0.0-165.0","mgbrh8v1","","","","","","","","","","","","","535","ori","Cue practice","","j","","Practice","13","13","true","false","true","both pre & post","RIGHT","RIGHT","j","1","true","","","",""
"","html-keyboard-response","99","302397","0.0-168.0","mgbrh8v1","1280","720","","","","","","","","","","","null","+","Fixation - short","","null","","","","","","","","","","","","","","","","",""
"","html-keyboard-response","100","302920","0.0-169.0","mgbrh8v1","","","","","","","","","","","","","523","ori","Cue practice","","f","","Practice","14","13","true","false","false","both pre & post","RIGHT","LEFT","f","1","false","","","",""
"","html-keyboard-response","101","303681","0.0-172.0","mgbrh8v1","1280","720","","","","","","","","","","","null","+","Fixation - short","","null","","","","","","","","","","","","","","","","",""
"","html-keyboard-response","102","304216","0.0-173.0","mgbrh8v1","","","","","","","","","","","","","535","ori","Cue practice","","j","","Practice","15","13","true","false","true","both pre & post","RIGHT","RIGHT","j","1","true","","","",""
"","html-keyboard-response","103","304971","0.0-176.0","mgbrh8v1","1280","720","","","","","","","","","","","null","+","Fixation - short","","null","","","","","","","","","","","","","","","","",""
"","html-keyboard-response","104","305464","0.0-177.0","mgbrh8v1","","","","","","","","","","","","","493","cta","Inducer practice","","f","","Practice","","","","true","","","","","f","1","","false","LEFT","",""
"","html-keyboard-response","105","306229","0.0-180.0","mgbrh8v1","1280","720","","","","","","","","","","","null","+","Fixation - short","","null","","","","","","","","","","","","","","","","",""
"","instructions","106","325193","0.0-181.0","mgbrh8v1","","","","","","","","","","","","[{""page_index"":0,""viewing_time"":18963}]","18964","End practice","End of practice","","","","","","","","","","","","","","","","","","",""
"","html-keyboard-response","107","328207","0.0-182.0","mgbrh8v1","1280","720","","","","","","","","","","","null","+","Fixation - long","","null","","","","","","","","","","","","","","","","",""
"","html-keyboard-response","108","335601","0.0-183.0","mgbrh8v1","","","","","","","","","","","","","7394","If dgv press RIGHT | If vnn press LEFT","Inducer instructions",""," ","","0","","","","","","","","","","","","","","",""
"","html-keyboard-response","109","336354","0.0-184.0","mgbrh8v1","1280","720","","","","","","","","","","","null","+","Fixation - short","","null","","","","","","","","","","","","","","","","",""
"","html-keyboard-response","110","336815","0.0-185.0","mgbrh8v1","","","","","","","","","","","","","461","vnn","Diagnostic trial","","f","","0","0","6","false","false","false","both pre & post","LEFT","LEFT","f","1","true","","","",""
"","html-keyboard-response","111","337573","0.0-188.0","mgbrh8v1","1280","720","","","","","","","","","","","null","+","Fixation - short","","null","","","","","","","","","","","","","","","","",""
"","html-keyboard-response","112","338103","0.0-189.0","mgbrh8v1","","","","","","","","","","","","","530","dgv","Diagnostic trial","","j","","0","1","6","false","false","false","both pre & post","RIGHT","LEFT","f","0","false","","","",""
"","call-function","113","338104","0.0-191.0-0.0","mgbrh8v1","","","","","","","","","","","","","","","","","","","","","","","","","","","","","","","","","",""
"","html-keyboard-response","114","338413","0.0-191.0-1.0","mgbrh8v1","1280","720","","","","","","","","","","","null","Wrong","Feedback","","null","","","","","","","","","","","","","","","","",""
"","call-function","115","338414","0.0-191.0-2.0","mgbrh8v1","","","","","","","","","","","","","","","","","","","","","","","","","","","","","","","","","",""
"","html-keyboard-response","116","339173","0.0-192.0","mgbrh8v1","1280","720","","","","","","","","","","","null","+","Fixation - short","","null","","","","","","","","","","","","","","","","",""
"","html-keyboard-response","117","339791","0.0-193.0","mgbrh8v1","","","","","","","","","","","","","617","dgv","Diagnostic trial","","j","","0","2","6","false","false","true","both pre & post","RIGHT","RIGHT","j","1","true","","","",""
"","html-keyboard-response","118","340551","0.0-196.0","mgbrh8v1","1280","720","","","","","","","","","","","null","+","Fixation - short","","null","","","","","","","","","","","","","","","","",""
"","html-keyboard-response","119","341039","0.0-197.0","mgbrh8v1","","","","","","","","","","","","","488","dgv","Diagnostic trial","","j","","0","3","6","false","false","true","both pre & post","RIGHT","RIGHT","j","1","true","","","",""
"","html-keyboard-response","120","341803","0.0-200.0","mgbrh8v1","1280","720","","","","","","","","","","","null","+","Fixation - short","","null","","","","","","","","","","","","","","","","",""
"","html-keyboard-response","121","342344","0.0-201.0","mgbrh8v1","","","","","","","","","","","","","540","dgv","Diagnostic trial","","f","","0","4","6","false","false","false","both pre & post","RIGHT","LEFT","f","1","false","","","",""
"","html-keyboard-response","122","343102","0.0-204.0","mgbrh8v1","1280","720","","","","","","","","","","","null","+","Fixation - short","","null","","","","","","","","","","","","","","","","",""
"","html-keyboard-response","123","343551","0.0-205.0","mgbrh8v1","","","","","","","","","","","","","449","dgv","Diagnostic trial","","f","","0","5","6","false","false","false","both pre & post","RIGHT","LEFT","f","1","false","","","",""
"","html-keyboard-response","124","344304","0.0-208.0","mgbrh8v1","1280","720","","","","","","","","","","","null","+","Fixation - short","","null","","","","","","","","","","","","","","","","",""
"","canvas-keyboard-response","125","345558","0.0-209.0","mgbrh8v1","","","","","","","","","","","","","null","Cue","Cue","","null","","0","5","","","false","","","","","","","","","","",""
"","html-keyboard-response","126","346324","0.0-210.0","mgbrh8v1","1280","720","","","","","","","","","","","null","+","Fixation - short","","null","","","","","","","","","","","","","","","","",""
"","html-keyboard-response","127","346905","0.0-211.0","mgbrh8v1","","","","","","","","","","","","","580","dgv","Diagnostic trial","","j","","0","6","6","true","false","true","both pre & post","RIGHT","RIGHT","j","1","true","","","",""
"","html-keyboard-response","128","347667","0.0-214.0","mgbrh8v1","1280","720","","","","","","","","","","","null","+","Fixation - short","","null","","","","","","","","","","","","","","","","",""
"","html-keyboard-response","129","348287","0.0-215.0","mgbrh8v1","","","","","","","","","","","","","620","vnn","Inducer trial","","f","","0","","","","true","","","","","f","1","","false","LEFT","",""
"","html-keyboard-response","130","349039","0.0-218.0","mgbrh8v1","1280","720","","","","","","","","","","","null","+","Fixation - short","","null","","","","","","","","","","","","","","","","",""
"","html-keyboard-response","131","353696","0.0-219.0","mgbrh8v1","","","","","","","","","","","","","4657","If gso press RIGHT | If ecl press LEFT","Inducer instructions",""," ","","1","","","","","","","","","","","","","","",""
"","html-keyboard-response","132","354460","0.0-220.0","mgbrh8v1","1280","720","","","","","","","","","","","null","+","Fixation - short","","null","","","","","","","","","","","","","","","","",""
"","html-keyboard-response","133","355056","0.0-221.0","mgbrh8v1","","","","","","","","","","","","","595","ecl","Diagnostic trial","","j","","1","0","7","false","false","true","both pre & post","LEFT","RIGHT","j","1","false","","","",""
"","html-keyboard-response","134","355812","0.0-224.0","mgbrh8v1","1280","720","","","","","","","","","","","null","+","Fixation - short","","null","","","","","","","","","","","","","","","","",""
"","html-keyboard-response","135","356343","0.0-225.0","mgbrh8v1","","","","","","","","","","","","","531","ecl","Diagnostic trial","","j","","1","1","7","false","false","true","both pre & post","LEFT","RIGHT","j","1","false","","","",""
"","html-keyboard-response","136","357096","0.0-228.0","mgbrh8v1","1280","720","","","","","","","","","","","null","+","Fixation - short","","null","","","","","","","","","","","","","","","","",""
"","html-keyboard-response","137","357673","0.0-229.0","mgbrh8v1","","","","","","","","","","","","","576","ecl","Diagnostic trial","","j","","1","2","7","false","false","true","both pre & post","LEFT","RIGHT","j","1","false","","","",""
"","html-keyboard-response","138","358436","0.0-232.0","mgbrh8v1","1280","720","","","","","","","","","","","null","+","Fixation - short","","null","","","","","","","","","","","","","","","","",""
"","html-keyboard-response","139","358840","0.0-233.0","mgbrh8v1","","","","","","","","","","","","","403","ecl","Diagnostic trial","","j","","1","3","7","false","false","true","both pre & post","LEFT","RIGHT","j","1","false","","","",""
"","html-keyboard-response","140","359592","0.0-236.0","mgbrh8v1","1280","720","","","","","","","","","","","null","+","Fixation - short","","null","","","","","","","","","","","","","","","","",""
"","html-keyboard-response","141","360056","0.0-237.0","mgbrh8v1","","","","","","","","","","","","","463","gso","Diagnostic trial","","f","","1","4","7","false","false","false","both pre & post","RIGHT","LEFT","f","1","false","","","",""
"","html-keyboard-response","142","360818","0.0-240.0","mgbrh8v1","1280","720","","","","","","","","","","","null","+","Fixation - short","","null","","","","","","","","","","","","","","","","",""
"","html-keyboard-response","143","361463","0.0-241.0","mgbrh8v1","","","","","","","","","","","","","645","ecl","Diagnostic trial","","j","","1","5","7","false","false","true","both pre & post","LEFT","RIGHT","j","1","false","","","",""
"","html-keyboard-response","144","362220","0.0-244.0","mgbrh8v1","1280","720","","","","","","","","","","","null","+","Fixation - short","","null","","","","","","","","","","","","","","","","",""
"","html-keyboard-response","145","362624","0.0-245.0","mgbrh8v1","","","","","","","","","","","","","403","ecl","Diagnostic trial","","f","","1","6","7","false","false","false","both pre & post","LEFT","LEFT","f","1","true","","","",""
"","html-keyboard-response","146","363378","0.0-248.0","mgbrh8v1","1280","720","","","","","","","","","","","null","+","Fixation - short","","null","","","","","","","","","","","","","","","","",""
"","canvas-keyboard-response","147","364631","0.0-249.0","mgbrh8v1","","","","","","","","","","","","","null","Cue","Cue","","null","","1","6","","","false","","","","","","","","","","",""
"","html-keyboard-response","148","365384","0.0-250.0","mgbrh8v1","1280","720","","","","","","","","","","","null","+","Fixation - short","","null","","","","","","","","","","","","","","","","",""
"","html-keyboard-response","149","365847","0.0-251.0","mgbrh8v1","","","","","","","","","","","","","463","gso","Inducer trial","","j","","1","","","","true","","","","","j","1","","false","RIGHT","",""
"","html-keyboard-response","150","366609","0.0-254.0","mgbrh8v1","1280","720","","","","","","","","","","","null","+","Fixation - short","","null","","","","","","","","","","","","","","","","",""
"","html-keyboard-response","151","370001","0.0-255.0","mgbrh8v1","","","","","","","","","","","","","3391","If upf press RIGHT | If yrp press LEFT","Inducer instructions",""," ","","2","","","","","","","","","","","","","","",""
"","html-keyboard-response","152","370761","0.0-256.0","mgbrh8v1","1280","720","","","","","","","","","","","null","+","Fixation - short","","null","","","","","","","","","","","","","","","","",""
"","html-keyboard-response","153","371200","0.0-257.0","mgbrh8v1","","","","","","","","","","","","","438","upf","Diagnostic trial","","j","","2","0","6","false","false","true","both pre & post","RIGHT","RIGHT","j","1","true","","","",""
"","html-keyboard-response","154","371966","0.0-260.0","mgbrh8v1","1280","720","","","","","","","","","","","null","+","Fixation - short","","null","","","","","","","","","","","","","","","","",""
"","html-keyboard-response","155","372487","0.0-261.0","mgbrh8v1","","","","","","","","","","","","","521","upf","Diagnostic trial","","j","","2","1","6","false","false","true","both pre & post","RIGHT","RIGHT","j","1","true","","","",""
"","html-keyboard-response","156","373242","0.0-264.0","mgbrh8v1","1280","720","","","","","","","","","","","null","+","Fixation - short","","null","","","","","","","","","","","","","","","","",""
"","html-keyboard-response","157","373607","0.0-265.0","mgbrh8v1","","","","","","","","","","","","","365","upf","Diagnostic trial","","j","","2","2","6","false","false","true","both pre & post","RIGHT","RIGHT","j","1","true","","","",""
"","html-keyboard-response","158","374365","0.0-268.0","mgbrh8v1","1280","720","","","","","","","","","","","null","+","Fixation - short","","null","","","","","","","","","","","","","","","","",""
"","html-keyboard-response","159","374800","0.0-269.0","mgbrh8v1","","","","","","","","","","","","","434","upf","Diagnostic trial","","f","","2","3","6","false","false","false","both pre & post","RIGHT","LEFT","f","1","false","","","",""
"","html-keyboard-response","160","375559","0.0-272.0","mgbrh8v1","1280","720","","","","","","","","","","","null","+","Fixation - short","","null","","","","","","","","","","","","","","","","",""
"","html-keyboard-response","161","376175","0.0-273.0","mgbrh8v1","","","","","","","","","","","","","616","upf","Diagnostic trial","","j","","2","4","6","false","false","false","both pre & post","RIGHT","LEFT","f","0","false","","","",""
"","call-function","162","376176","0.0-275.0-0.0","mgbrh8v1","","","","","","","","","","","","","","","","","","","","","","","","","","","","","","","","","",""
"","html-keyboard-response","163","376481","0.0-275.0-1.0","mgbrh8v1","1280","720","","","","","","","","","","","null","Wrong","Feedback","","null","","","","","","","","","","","","","","","","",""
"","call-function","164","376482","0.0-275.0-2.0","mgbrh8v1","","","","","","","","","","","","","","","","","","","","","","","","","","","","","","","","","",""
"","html-keyboard-response","165","377245","0.0-276.0","mgbrh8v1","1280","720","","","","","","","","","","","null","+","Fixation - short","","null","","","","","","","","","","","","","","","","",""
"","html-keyboard-response","166","377703","0.0-277.0","mgbrh8v1","","","","","","","","","","","","","458","upf","Diagnostic trial","","f","","2","5","6","false","false","false","both pre & post","RIGHT","LEFT","f","1","false","","","",""
"","html-keyboard-response","167","378461","0.0-280.0","mgbrh8v1","1280","720","","","","","","","","","","","null","+","Fixation - short","","null","","","","","","","","","","","","","","","","",""
"","canvas-keyboard-response","168","379726","0.0-281.0","mgbrh8v1","","","","","","","","","","","","","null","Cue","Cue","","null","","2","5","","","false","","","","","","","","","","",""
"","html-keyboard-response","169","380485","0.0-282.0","mgbrh8v1","1280","720","","","","","","","","","","","null","+","Fixation - short","","null","","","","","","","","","","","","","","","","",""
"","html-keyboard-response","170","381081","0.0-283.0","mgbrh8v1","","","","","","","","","","","","","595","yrp","Diagnostic trial","","j","","2","6","6","true","false","false","both pre & post","LEFT","LEFT","f","0","true","","","",""
"","call-function","171","381081","0.0-285.0-0.0","mgbrh8v1","","","","","","","","","","","","","","","","","","","","","","","","","","","","","","","","","",""
"","html-keyboard-response","172","381387","0.0-285.0-1.0","mgbrh8v1","1280","720","","","","","","","","","","","null","Wrong","Feedback","","null","","","","","","","","","","","","","","","","",""
"","call-function","173","381388","0.0-285.0-2.0","mgbrh8v1","","","","","","","","","","","","","","","","","","","","","","","","","","","","","","","","","",""
"","html-keyboard-response","174","382147","0.0-286.0","mgbrh8v1","1280","720","","","","","","","","","","","null","+","Fixation - short","","null","","","","","","","","","","","","","","","","",""
"","html-keyboard-response","175","382776","0.0-287.0","mgbrh8v1","","","","","","","","","","","","","628","upf","Diagnostic trial","","j","","2","7","6","true","false","true","both pre & post","RIGHT","RIGHT","j","1","true","","","",""
"","html-keyboard-response","176","383533","0.0-290.0","mgbrh8v1","1280","720","","","","","","","","","","","null","+","Fixation - short","","null","","","","","","","","","","","","","","","","",""
"","html-keyboard-response","177","384023","0.0-291.0","mgbrh8v1","","","","","","","","","","","","","490","yrp","Diagnostic trial","","j","","2","8","6","true","false","true","both pre & post","LEFT","RIGHT","j","1","false","","","",""
"","html-keyboard-response","178","384788","0.0-294.0","mgbrh8v1","1280","720","","","","","","","","","","","null","+","Fixation - short","","null","","","","","","","","","","","","","","","","",""
"","html-keyboard-response","179","385183","0.0-295.0","mgbrh8v1","","","","","","","","","","","","","395","upf","Diagnostic trial","","f","","2","9","6","true","false","false","both pre & post","RIGHT","LEFT","f","1","false","","","",""
"","html-keyboard-response","180","385946","0.0-298.0","mgbrh8v1","1280","720","","","","","","","","","","","null","+","Fixation - short","","null","","","","","","","","","","","","","","","","",""
"","html-keyboard-response","181","386472","0.0-299.0","mgbrh8v1","","","","","","","","","","","","","526","upf","Inducer trial","","j","","2","","","","true","","","","","j","1","","false","RIGHT","",""
"","html-keyboard-response","182","387225","0.0-302.0","mgbrh8v1","1280","720","","","","","","","","","","","null","+","Fixation - short","","null","","","","","","","","","","","","","","","","",""
"","html-keyboard-response","183","389103","0.0-303.0","mgbrh8v1","","","","","","","","","","","","","1878","If ufc press RIGHT | If ivr press LEFT","Inducer instructions",""," ","","3","","","","","","","","","","","","","","",""
"","html-keyboard-response","184","389866","0.0-304.0","mgbrh8v1","1280","720","","","","","","","","","","","null","+","Fixation - short","","null","","","","","","","","","","","","","","","","",""
"","html-keyboard-response","185","390471","0.0-305.0","mgbrh8v1","","","","","","","","","","","","","605","ivr","Diagnostic trial","","j","","3","0","11","false","false","true","both pre & post","LEFT","RIGHT","j","1","false","","","",""
"","html-keyboard-response","186","391236","0.0-308.0","mgbrh8v1","1280","720","","","","","","","","","","","null","+","Fixation - short","","null","","","","","","","","","","","","","","","","",""
"","html-keyboard-response","187","391745","0.0-309.0","mgbrh8v1","","","","","","","","","","","","","508","ufc","Diagnostic trial","","j","","3","1","11","false","false","true","both pre & post","RIGHT","RIGHT","j","1","true","","","",""
"","html-keyboard-response","188","392508","0.0-312.0","mgbrh8v1","1280","720","","","","","","","","","","","null","+","Fixation - short","","null","","","","","","","","","","","","","","","","",""
"","html-keyboard-response","189","392967","0.0-313.0","mgbrh8v1","","","","","","","","","","","","","459","ivr","Diagnostic trial","","f","","3","2","11","false","false","false","both pre & post","LEFT","LEFT","f","1","true","","","",""
"","html-keyboard-response","190","393724","0.0-316.0","mgbrh8v1","1280","720","","","","","","","","","","","null","+","Fixation - short","","null","","","","","","","","","","","","","","","","",""
"","html-keyboard-response","191","394215","0.0-317.0","mgbrh8v1","","","","","","","","","","","","","491","ivr","Diagnostic trial","","f","","3","3","11","false","false","false","both pre & post","LEFT","LEFT","f","1","true","","","",""
"","html-keyboard-response","192","394968","0.0-320.0","mgbrh8v1","1280","720","","","","","","","","","","","null","+","Fixation - short","","null","","","","","","","","","","","","","","","","",""
"","html-keyboard-response","193","395415","0.0-321.0","mgbrh8v1","","","","","","","","","","","","","447","ufc","Diagnostic trial","","f","","3","4","11","false","false","false","both pre & post","RIGHT","LEFT","f","1","false","","","",""
"","html-keyboard-response","194","396169","0.0-324.0","mgbrh8v1","1280","720","","","","","","","","","","","null","+","Fixation - short","","null","","","","","","","","","","","","","","","","",""
"","html-keyboard-response","195","396680","0.0-325.0","mgbrh8v1","","","","","","","","","","","","","511","ufc","Diagnostic trial","","j","","3","5","11","false","false","true","both pre & post","RIGHT","RIGHT","j","1","true","","","",""
"","html-keyboard-response","196","397446","0.0-328.0","mgbrh8v1","1280","720","","","","","","","","","","","null","+","Fixation - short","","null","","","","","","","","","","","","","","","","",""
"","html-keyboard-response","197","398088","0.0-329.0","mgbrh8v1","","","","","","","","","","","","","642","ufc","Diagnostic trial","","f","","3","6","11","false","false","false","both pre & post","RIGHT","LEFT","f","1","false","","","",""
"","html-keyboard-response","198","398839","0.0-332.0","mgbrh8v1","1280","720","","","","","","","","","","","null","+","Fixation - short","","null","","","","","","","","","","","","","","","","",""
"","html-keyboard-response","199","399352","0.0-333.0","mgbrh8v1","","","","","","","","","","","","","513","ivr","Diagnostic trial","","f","","3","7","11","false","false","false","both pre & post","LEFT","LEFT","f","1","true","","","",""
"","html-keyboard-response","200","400113","0.0-336.0","mgbrh8v1","1280","720","","","","","","","","","","","null","+","Fixation - short","","null","","","","","","","","","","","","","","","","",""
"","html-keyboard-response","201","400568","0.0-337.0","mgbrh8v1","","","","","","","","","","","","","455","ivr","Diagnostic trial","","f","","3","8","11","false","false","false","both pre & post","LEFT","LEFT","f","1","true","","","",""
"","html-keyboard-response","202","401333","0.0-340.0","mgbrh8v1","1280","720","","","","","","","","","","","null","+","Fixation - short","","null","","","","","","","","","","","","","","","","",""
"","html-keyboard-response","203","401793","0.0-341.0","mgbrh8v1","","","","","","","","","","","","","460","ivr","Diagnostic trial","","f","","3","9","11","false","false","false","both pre & post","LEFT","LEFT","f","1","true","","","",""
"","html-keyboard-response","204","402550","0.0-344.0","mgbrh8v1","1280","720","","","","","","","","","","","null","+","Fixation - short","","null","","","","","","","","","","","","","","","","",""
"","html-keyboard-response","205","403032","0.0-345.0","mgbrh8v1","","","","","","","","","","","","","482","ivr","Diagnostic trial","","j","","3","10","11","false","false","true","both pre & post","LEFT","RIGHT","j","1","false","","","",""
"","html-keyboard-response","206","403787","0.0-348.0","mgbrh8v1","1280","720","","","","","","","","","","","null","+","Fixation - short","","null","","","","","","","","","","","","","","","","",""
"","canvas-keyboard-response","207","405039","0.0-349.0","mgbrh8v1","","","","","","","","","","","","","null","Cue","Cue","","null","","3","10","","","false","","","","","","","","","","",""
"","html-keyboard-response","208","405799","0.0-350.0","mgbrh8v1","1280","720","","","","","","","","","","","null","+","Fixation - short","","null","","","","","","","","","","","","","","","","",""
"","html-keyboard-response","209","406392","0.0-351.0","mgbrh8v1","","","","","","","","","","","","","593","ufc","Diagnostic trial","","f","","3","11","11","true","false","false","both pre & post","RIGHT","LEFT","f","1","false","","","",""
"","html-keyboard-response","210","407145","0.0-354.0","mgbrh8v1","1280","720","","","","","","","","","","","null","+","Fixation - short","","null","","","","","","","","","","","","","","","","",""
"","html-keyboard-response","211","407648","0.0-355.0","mgbrh8v1","","","","","","","","","","","","","503","ufc","Diagnostic trial","","f","","3","12","11","true","false","false","both pre & post","RIGHT","LEFT","f","1","false","","","",""
"","html-keyboard-response","212","408399","0.0-358.0","mgbrh8v1","1280","720","","","","","","","","","","","null","+","Fixation - short","","null","","","","","","","","","","","","","","","","",""
"","html-keyboard-response","213","408896","0.0-359.0","mgbrh8v1","","","","","","","","","","","","","497","ivr","Diagnostic trial","","f","","3","13","11","true","false","false","both pre & post","LEFT","LEFT","f","1","true","","","",""
"","html-keyboard-response","214","409659","0.0-362.0","mgbrh8v1","1280","720","","","","","","","","","","","null","+","Fixation - short","","null","","","","","","","","","","","","","","","","",""
"","html-keyboard-response","215","410200","0.0-363.0","mgbrh8v1","","","","","","","","","","","","","541","ivr","Inducer trial","","f","","3","","","","true","","","","","f","1","","false","LEFT","",""
"","html-keyboard-response","216","410952","0.0-366.0","mgbrh8v1","1280","720","","","","","","","","","","","null","+","Fixation - short","","null","","","","","","","","","","","","","","","","",""
"","html-keyboard-response","217","417209","0.0-367.0","mgbrh8v1","","","","","","","","","","","","","6257","If ndm press RIGHT | If cnl press LEFT","Inducer instructions",""," ","","4","","","","","","","","","","","","","","",""
"","html-keyboard-response","218","417970","0.0-368.0","mgbrh8v1","1280","720","","","","","","","","","","","null","+","Fixation - short","","null","","","","","","","","","","","","","","","","",""
"","html-keyboard-response","219","418472","0.0-369.0","mgbrh8v1","","","","","","","","","","","","","502","ndm","Diagnostic trial","","j","","4","0","4","false","false","true","both pre & post","RIGHT","RIGHT","j","1","true","","","",""
"","html-keyboard-response","220","419238","0.0-372.0","mgbrh8v1","1280","720","","","","","","","","","","","null","+","Fixation - short","","null","","","","","","","","","","","","","","","","",""
"","html-keyboard-response","221","419696","0.0-373.0","mgbrh8v1","","","","","","","","","","","","","458","ndm","Diagnostic trial","","j","","4","1","4","false","false","true","both pre & post","RIGHT","RIGHT","j","1","true","","","",""
"","html-keyboard-response","222","420456","0.0-376.0","mgbrh8v1","1280","720","","","","","","","","","","","null","+","Fixation - short","","null","","","","","","","","","","","","","","","","",""
"","html-keyboard-response","223","420848","0.0-377.0","mgbrh8v1","","","","","","","","","","","","","392","cnl","Diagnostic trial","","f","","4","2","4","false","false","false","both pre & post","LEFT","LEFT","f","1","true","","","",""
"","html-keyboard-response","224","421614","0.0-380.0","mgbrh8v1","1280","720","","","","","","","","","","","null","+","Fixation - short","","null","","","","","","","","","","","","","","","","",""
"","html-keyboard-response","225","422096","0.0-381.0","mgbrh8v1","","","","","","","","","","","","","482","ndm","Diagnostic trial","","f","","4","3","4","false","false","false","both pre & post","RIGHT","LEFT","f","1","false","","","",""
"","html-keyboard-response","226","422858","0.0-384.0","mgbrh8v1","1280","720","","","","","","","","","","","null","+","Fixation - short","","null","","","","","","","","","","","","","","","","",""
"","canvas-keyboard-response","227","424110","0.0-385.0","mgbrh8v1","","","","","","","","","","","","","null","Cue","Cue","","null","","4","3","","","false","","","","","","","","","","",""
"","html-keyboard-response","228","424872","0.0-386.0","mgbrh8v1","1280","720","","","","","","","","","","","null","+","Fixation - short","","null","","","","","","","","","","","","","","","","",""
"","html-keyboard-response","229","425592","0.0-387.0","mgbrh8v1","","","","","","","","","","","","","720","ndm","Diagnostic trial","","f","","4","4","4","true","false","false","both pre & post","RIGHT","LEFT","f","1","false","","","",""
"","html-keyboard-response","230","426345","0.0-390.0","mgbrh8v1","1280","720","","","","","","","","","","","null","+","Fixation - short","","null","","","","","","","","","","","","","","","","",""
"","html-keyboard-response","231","426920","0.0-391.0","mgbrh8v1","","","","","","","","","","","","","575","ndm","Diagnostic trial","","j","","4","5","4","true","false","true","both pre & post","RIGHT","RIGHT","j","1","true","","","",""
"","html-keyboard-response","232","427676","0.0-394.0","mgbrh8v1","1280","720","","","","","","","","","","","null","+","Fixation - short","","null","","","","","","","","","","","","","","","","",""
"","html-keyboard-response","233","428265","0.0-395.0","mgbrh8v1","","","","","","","","","","","","","589","ndm","Diagnostic trial","","j","","4","6","4","true","false","true","both pre & post","RIGHT","RIGHT","j","1","true","","","",""
"","html-keyboard-response","234","429023","0.0-398.0","mgbrh8v1","1280","720","","","","","","","","","","","null","+","Fixation - short","","null","","","","","","","","","","","","","","","","",""
"","html-keyboard-response","235","429632","0.0-399.0","mgbrh8v1","","","","","","","","","","","","","609","cnl","Diagnostic trial","","j","","4","7","4","true","false","true","both pre & post","LEFT","RIGHT","j","1","false","","","",""
"","html-keyboard-response","236","430386","0.0-402.0","mgbrh8v1","1280","720","","","","","","","","","","","null","+","Fixation - short","","null","","","","","","","","","","","","","","","","",""
"","html-keyboard-response","237","431200","0.0-403.0","mgbrh8v1","","","","","","","","","","","","","814","ndm","Inducer trial","","j","","4","","","","true","","","","","j","1","","false","RIGHT","",""
"","html-keyboard-response","238","431956","0.0-406.0","mgbrh8v1","1280","720","","","","","","","","","","","null","+","Fixation - short","","null","","","","","","","","","","","","","","","","",""
"","html-keyboard-response","239","437904","0.0-407.0","mgbrh8v1","","","","","","","","","","","","","5947","If jlm press RIGHT | If wwt press LEFT","Inducer instructions",""," ","","5","","","","","","","","","","","","","","",""
"","html-keyboard-response","240","438658","0.0-408.0","mgbrh8v1","1280","720","","","","","","","","","","","null","+","Fixation - short","","null","","","","","","","","","","","","","","","","",""
"","html-keyboard-response","241","439225","0.0-409.0","mgbrh8v1","","","","","","","","","","","","","567","jlm","Diagnostic trial","","f","","5","0","4","false","false","false","both pre & post","RIGHT","LEFT","f","1","false","","","",""
"","html-keyboard-response","242","439984","0.0-412.0","mgbrh8v1","1280","720","","","","","","","","","","","null","+","Fixation - short","","null","","","","","","","","","","","","","","","","",""
"","html-keyboard-response","243","440680","0.0-413.0","mgbrh8v1","","","","","","","","","","","","","696","jlm","Diagnostic trial","","f","","5","1","4","false","false","false","both pre & post","RIGHT","LEFT","f","1","false","","","",""
"","html-keyboard-response","244","441446","0.0-416.0","mgbrh8v1","1280","720","","","","","","","","","","","null","+","Fixation - short","","null","","","","","","","","","","","","","","","","",""
"","html-keyboard-response","245","442016","0.0-417.0","mgbrh8v1","","","","","","","","","","","","","570","jlm","Diagnostic trial","","j","","5","2","4","false","false","true","both pre & post","RIGHT","RIGHT","j","1","true","","","",""
"","html-keyboard-response","246","442772","0.0-420.0","mgbrh8v1","1280","720","","","","","","","","","","","null","+","Fixation - short","","null","","","","","","","","","","","","","","","","",""
"","html-keyboard-response","247","443384","0.0-421.0","mgbrh8v1","","","","","","","","","","","","","612","jlm","Diagnostic trial","","f","","5","3","4","false","false","false","both pre & post","RIGHT","LEFT","f","1","false","","","",""
"","html-keyboard-response","248","444138","0.0-424.0","mgbrh8v1","1280","720","","","","","","","","","","","null","+","Fixation - short","","null","","","","","","","","","","","","","","","","",""
"","canvas-keyboard-response","249","445400","0.0-425.0","mgbrh8v1","","","","","","","","","","","","","null","Cue","Cue","","null","","5","3","","","false","","","","","","","","","","",""
"","html-keyboard-response","250","446163","0.0-426.0","mgbrh8v1","1280","720","","","","","","","","","","","null","+","Fixation - short","","null","","","","","","","","","","","","","","","","",""
"","html-keyboard-response","251","446744","0.0-427.0","mgbrh8v1","","","","","","","","","","","","","581","jlm","Diagnostic trial","","f","","5","4","4","true","false","false","both pre & post","RIGHT","LEFT","f","1","false","","","",""
"","html-keyboard-response","252","447505","0.0-430.0","mgbrh8v1","1280","720","","","","","","","","","","","null","+","Fixation - short","","null","","","","","","","","","","","","","","","","",""
"","html-keyboard-response","253","448152","0.0-431.0","mgbrh8v1","","","","","","","","","","","","","647","wwt","Diagnostic trial","","j","","5","5","4","true","false","true","both pre & post","LEFT","RIGHT","j","1","false","","","",""
"","html-keyboard-response","254","448914","0.0-434.0","mgbrh8v1","1280","720","","","","","","","","","","","null","+","Fixation - short","","null","","","","","","","","","","","","","","","","",""
"","html-keyboard-response","255","449481","0.0-435.0","mgbrh8v1","","","","","","","","","","","","","567","wwt","Diagnostic trial","","f","","5","6","4","true","false","false","both pre & post","LEFT","LEFT","f","1","true","","","",""
"","html-keyboard-response","256","450234","0.0-438.0","mgbrh8v1","1280","720","","","","","","","","","","","null","+","Fixation - short","","null","","","","","","","","","","","","","","","","",""
"","html-keyboard-response","257","450880","0.0-439.0","mgbrh8v1","","","","","","","","","","","","","646","jlm","Diagnostic trial","","j","","5","7","4","true","false","true","both pre & post","RIGHT","RIGHT","j","1","true","","","",""
"","html-keyboard-response","258","451646","0.0-442.0","mgbrh8v1","1280","720","","","","","","","","","","","null","+","Fixation - short","","null","","","","","","","","","","","","","","","","",""
"","html-keyboard-response","259","452264","0.0-443.0","mgbrh8v1","","","","","","","","","","","","","618","wwt","Inducer trial","","f","","5","","","","true","","","","","f","1","","false","LEFT","",""
"","html-keyboard-response","260","453022","0.0-446.0","mgbrh8v1","1280","720","","","","","","","","","","","null","+","Fixation - short","","null","","","","","","","","","","","","","","","","",""
"","html-keyboard-response","261","459785","0.0-447.0","mgbrh8v1","","","","","","","","","","","","","6763","If faq press RIGHT | If jey press LEFT","Inducer instructions",""," ","","6","","","","","","","","","","","","","","",""
"","html-keyboard-response","262","460545","0.0-448.0","mgbrh8v1","1280","720","","","","","","","","","","","null","+","Fixation - short","","null","","","","","","","","","","","","","","","","",""
"","html-keyboard-response","263","461255","0.0-449.0","mgbrh8v1","","","","","","","","","","","","","710","jey","Diagnostic trial","","j","","6","0","8","false","false","true","both pre & post","LEFT","RIGHT","j","1","false","","","",""
"","html-keyboard-response","264","462007","0.0-452.0","mgbrh8v1","1280","720","","","","","","","","","","","null","+","Fixation - short","","null","","","","","","","","","","","","","","","","",""
"","html-keyboard-response","265","462687","0.0-453.0","mgbrh8v1","","","","","","","","","","","","","680","faq","Diagnostic trial","","j","","6","1","8","false","false","true","both pre & post","RIGHT","RIGHT","j","1","true","","","",""
"","html-keyboard-response","266","463451","0.0-456.0","mgbrh8v1","1280","720","","","","","","","","","","","null","+","Fixation - short","","null","","","","","","","","","","","","","","","","",""
"","html-keyboard-response","267","463871","0.0-457.0","mgbrh8v1","","","","","","","","","","","","","420","faq","Diagnostic trial","","f","","6","2","8","false","false","false","both pre & post","RIGHT","LEFT","f","1","false","","","",""
"","html-keyboard-response","268","464625","0.0-460.0","mgbrh8v1","1280","720","","","","","","","","","","","null","+","Fixation - short","","null","","","","","","","","","","","","","","","","",""
"","html-keyboard-response","269","465207","0.0-461.0","mgbrh8v1","","","","","","","","","","","","","582","jey","Diagnostic trial","","f","","6","3","8","false","false","false","both pre & post","LEFT","LEFT","f","1","true","","","",""
"","html-keyboard-response","270","465973","0.0-464.0","mgbrh8v1","1280","720","","","","","","","","","","","null","+","Fixation - short","","null","","","","","","","","","","","","","","","","",""
"","html-keyboard-response","271","466479","0.0-465.0","mgbrh8v1","","","","","","","","","","","","","505","jey","Diagnostic trial","","f","","6","4","8","false","false","false","both pre & post","LEFT","LEFT","f","1","true","","","",""
"","html-keyboard-response","272","467237","0.0-468.0","mgbrh8v1","1280","720","","","","","","","","","","","null","+","Fixation - short","","null","","","","","","","","","","","","","","","","",""
"","html-keyboard-response","273","467751","0.0-469.0","mgbrh8v1","","","","","","","","","","","","","514","faq","Diagnostic trial","","f","","6","5","8","false","false","false","both pre & post","RIGHT","LEFT","f","1","false","","","",""
"","html-keyboard-response","274","468503","0.0-472.0","mgbrh8v1","1280","720","","","","","","","","","","","null","+","Fixation - short","","null","","","","","","","","","","","","","","","","",""
"","html-keyboard-response","275","468943","0.0-473.0","mgbrh8v1","","","","","","","","","","","","","440","jey","Diagnostic trial","","j","","6","6","8","false","false","true","both pre & post","LEFT","RIGHT","j","1","false","","","",""
"","html-keyboard-response","276","469705","0.0-476.0","mgbrh8v1","1280","720","","","","","","","","","","","null","+","Fixation - short","","null","","","","","","","","","","","","","","","","",""
"","html-keyboard-response","277","470169","0.0-477.0","mgbrh8v1","","","","","","","","","","","","","463","faq","Diagnostic trial","","f","","6","7","8","false","false","false","both pre & post","RIGHT","LEFT","f","1","false","","","",""
"","html-keyboard-response","278","470934","0.0-480.0","mgbrh8v1","1280","720","","","","","","","","","","","null","+","Fixation - short","","null","","","","","","","","","","","","","","","","",""
"","canvas-keyboard-response","279","472198","0.0-481.0","mgbrh8v1","","","","","","","","","","","","","null","Cue","Cue","","null","","6","7","","","false","","","","","","","","","","",""
"","html-keyboard-response","280","472959","0.0-482.0","mgbrh8v1","1280","720","","","","","","","","","","","null","+","Fixation - short","","null","","","","","","","","","","","","","","","","",""
"","html-keyboard-response","281","473551","0.0-483.0","mgbrh8v1","","","","","","","","","","","","","592","jey","Diagnostic trial","","j","","6","8","8","true","false","true","both pre & post","LEFT","RIGHT","j","1","false","","","",""
"","html-keyboard-response","282","474304","0.0-486.0","mgbrh8v1","1280","720","","","","","","","","","","","null","+","Fixation - short","","null","","","","","","","","","","","","","","","","",""
"","html-keyboard-response","283","474919","0.0-487.0","mgbrh8v1","","","","","","","","","","","","","615","faq","Diagnostic trial","","j","","6","9","8","true","false","true","both pre & post","RIGHT","RIGHT","j","1","true","","","",""
"","html-keyboard-response","284","475672","0.0-490.0","mgbrh8v1","1280","720","","","","","","","","","","","null","+","Fixation - short","","null","","","","","","","","","","","","","","","","",""
"","html-keyboard-response","285","476207","0.0-491.0","mgbrh8v1","","","","","","","","","","","","","535","jey","Diagnostic trial","","j","","6","10","8","true","false","true","both pre & post","LEFT","RIGHT","j","1","false","","","",""
"","html-keyboard-response","286","476964","0.0-494.0","mgbrh8v1","1280","720","","","","","","","","","","","null","+","Fixation - short","","null","","","","","","","","","","","","","","","","",""
"","html-keyboard-response","287","477495","0.0-495.0","mgbrh8v1","","","","","","","","","","","","","531","faq","Diagnostic trial","","j","","6","11","8","true","false","true","both pre & post","RIGHT","RIGHT","j","1","true","","","",""
"","html-keyboard-response","288","478254","0.0-498.0","mgbrh8v1","1280","720","","","","","","","","","","","null","+","Fixation - short","","null","","","","","","","","","","","","","","","","",""
"","html-keyboard-response","289","478775","0.0-499.0","mgbrh8v1","","","","","","","","","","","","","521","jey","Inducer trial","","f","","6","","","","true","","","","","f","1","","false","LEFT","",""
"","html-keyboard-response","290","479530","0.0-502.0","mgbrh8v1","1280","720","","","","","","","","","","","null","+","Fixation - short","","null","","","","","","","","","","","","","","","","",""
"","html-keyboard-response","291","481881","0.0-503.0","mgbrh8v1","","","","","","","","","","","","","2350","If bgi press RIGHT | If iei press LEFT","Inducer instructions",""," ","","7","","","","","","","","","","","","","","",""
"","html-keyboard-response","292","482635","0.0-504.0","mgbrh8v1","1280","720","","","","","","","","","","","null","+","Fixation - short","","null","","","","","","","","","","","","","","","","",""
"","html-keyboard-response","293","483191","0.0-505.0","mgbrh8v1","","","","","","","","","","","","","556","iei","Diagnostic trial","","j","","7","0","11","false","false","true","both pre & post","LEFT","RIGHT","j","1","false","","","",""
"","html-keyboard-response","294","483952","0.0-508.0","mgbrh8v1","1280","720","","","","","","","","","","","null","+","Fixation - short","","null","","","","","","","","","","","","","","","","",""
"","html-keyboard-response","295","484423","0.0-509.0","mgbrh8v1","","","","","","","","","","","","","471","bgi","Diagnostic trial","","f","","7","1","11","false","false","false","both pre & post","RIGHT","LEFT","f","1","false","","","",""
"","html-keyboard-response","296","485186","0.0-512.0","mgbrh8v1","1280","720","","","","","","","","","","","null","+","Fixation - short","","null","","","","","","","","","","","","","","","","",""
"","html-keyboard-response","297","485711","0.0-513.0","mgbrh8v1","","","","","","","","","","","","","525","iei","Diagnostic trial","","j","","7","2","11","false","false","true","both pre & post","LEFT","RIGHT","j","1","false","","","",""
"","html-keyboard-response","298","486468","0.0-516.0","mgbrh8v1","1280","720","","","","","","","","","","","null","+","Fixation - short","","null","","","","","","","","","","","","","","","","",""
"","html-keyboard-response","299","486911","0.0-517.0","mgbrh8v1","","","","","","","","","","","","","443","bgi","Diagnostic trial","","j","","7","3","11","false","false","true","both pre & post","RIGHT","RIGHT","j","1","true","","","",""
"","html-keyboard-response","300","487662","0.0-520.0","mgbrh8v1","1280","720","","","","","","","","","","","null","+","Fixation - short","","null","","","","","","","","","","","","","","","","",""
"","html-keyboard-response","301","488095","0.0-521.0","mgbrh8v1","","","","","","","","","","","","","432","bgi","Diagnostic trial","","j","","7","4","11","false","false","true","both pre & post","RIGHT","RIGHT","j","1","true","","","",""
"","html-keyboard-response","302","488850","0.0-524.0","mgbrh8v1","1280","720","","","","","","","","","","","null","+","Fixation - short","","null","","","","","","","","","","","","","","","","",""
"","html-keyboard-response","303","489287","0.0-525.0","mgbrh8v1","","","","","","","","","","","","","437","iei","Diagnostic trial","","j","","7","5","11","false","false","true","both pre & post","LEFT","RIGHT","j","1","false","","","",""
"","html-keyboard-response","304","490038","0.0-528.0","mgbrh8v1","1280","720","","","","","","","","","","","null","+","Fixation - short","","null","","","","","","","","","","","","","","","","",""
"","html-keyboard-response","305","490631","0.0-529.0","mgbrh8v1","","","","","","","","","","","","","593","iei","Diagnostic trial","","f","","7","6","11","false","false","false","both pre & post","LEFT","LEFT","f","1","true","","","",""
"","html-keyboard-response","306","491386","0.0-532.0","mgbrh8v1","1280","720","","","","","","","","","","","null","+","Fixation - short","","null","","","","","","","","","","","","","","","","",""
"","html-keyboard-response","307","491945","0.0-533.0","mgbrh8v1","","","","","","","","","","","","","558","iei","Diagnostic trial","","j","","7","7","11","false","false","true","both pre & post","LEFT","RIGHT","j","1","false","","","",""
"","html-keyboard-response","308","492708","0.0-536.0","mgbrh8v1","1280","720","","","","","","","","","","","null","+","Fixation - short","","null","","","","","","","","","","","","","","","","",""
"","html-keyboard-response","309","493159","0.0-537.0","mgbrh8v1","","","","","","","","","","","","","451","iei","Diagnostic trial","","j","","7","8","11","false","false","true","both pre & post","LEFT","RIGHT","j","1","false","","","",""
"","html-keyboard-response","310","493913","0.0-540.0","mgbrh8v1","1280","720","","","","","","","","","","","null","+","Fixation - short","","null","","","","","","","","","","","","","","","","",""
"","html-keyboard-response","311","494479","0.0-541.0","mgbrh8v1","","","","","","","","","","","","","566","iei","Diagnostic trial","","f","","7","9","11","false","false","false","both pre & post","LEFT","LEFT","f","1","true","","","",""
"","html-keyboard-response","312","495240","0.0-544.0","mgbrh8v1","1280","720","","","","","","","","","","","null","+","Fixation - short","","null","","","","","","","","","","","","","","","","",""
"","html-keyboard-response","313","495807","0.0-545.0","mgbrh8v1","","","","","","","","","","","","","567","iei","Diagnostic trial","","j","","7","10","11","false","false","true","both pre & post","LEFT","RIGHT","j","1","false","","","",""
"","html-keyboard-response","314","496570","0.0-548.0","mgbrh8v1","1280","720","","","","","","","","","","","null","+","Fixation - short","","null","","","","","","","","","","","","","","","","",""
"","canvas-keyboard-response","315","497832","0.0-549.0","mgbrh8v1","","","","","","","","","","","","","null","Cue","Cue","","null","","7","10","","","false","","","","","","","","","","",""
"","html-keyboard-response","316","498594","0.0-550.0","mgbrh8v1","1280","720","","","","","","","","","","","null","+","Fixation - short","","null","","","","","","","","","","","","","","","","",""
"","html-keyboard-response","317","499056","0.0-551.0","mgbrh8v1","","","","","","","","","","","","","461","iei","Diagnostic trial","","f","","7","11","11","true","false","false","both pre & post","LEFT","LEFT","f","1","true","","","",""
"","html-keyboard-response","318","499814","0.0-554.0","mgbrh8v1","1280","720","","","","","","","","","","","null","+","Fixation - short","","null","","","","","","","","","","","","","","","","",""
"","html-keyboard-response","319","500231","0.0-555.0","mgbrh8v1","","","","","","","","","","","","","417","iei","Diagnostic trial","","f","","7","12","11","true","false","false","both pre & post","LEFT","LEFT","f","1","true","","","",""
"","html-keyboard-response","320","500988","0.0-558.0","mgbrh8v1","1280","720","","","","","","","","","","","null","+","Fixation - short","","null","","","","","","","","","","","","","","","","",""
"","html-keyboard-response","321","501479","0.0-559.0","mgbrh8v1","","","","","","","","","","","","","491","bgi","Diagnostic trial","","f","","7","13","11","true","false","false","both pre & post","RIGHT","LEFT","f","1","false","","","",""
"","html-keyboard-response","322","502236","0.0-562.0","mgbrh8v1","1280","720","","","","","","","","","","","null","+","Fixation - short","","null","","","","","","","","","","","","","","","","",""
"","html-keyboard-response","323","502649","0.0-563.0","mgbrh8v1","","","","","","","","","","","","","412","bgi","Diagnostic trial","","f","","7","14","11","true","false","false","both pre & post","RIGHT","LEFT","f","1","false","","","",""
"","html-keyboard-response","324","503406","0.0-566.0","mgbrh8v1","1280","720","","","","","","","","","","","null","+","Fixation - short","","null","","","","","","","","","","","","","","","","",""
"","html-keyboard-response","325","504039","0.0-567.0","mgbrh8v1","","","","","","","","","","","","","633","iei","Inducer trial","","f","","7","","","","true","","","","","f","1","","false","LEFT","",""
"","html-keyboard-response","326","504802","0.0-570.0","mgbrh8v1","1280","720","","","","","","","","","","","null","+","Fixation - short","","null","","","","","","","","","","","","","","","","",""
"","html-keyboard-response","327","508079","0.0-571.0","mgbrh8v1","","","","","","","","","","","","","3277","If dij press RIGHT | If ibg press LEFT","Inducer instructions",""," ","","8","","","","","","","","","","","","","","",""
"","html-keyboard-response","328","508840","0.0-572.0","mgbrh8v1","1280","720","","","","","","","","","","","null","+","Fixation - short","","null","","","","","","","","","","","","","","","","",""
"","html-keyboard-response","329","509311","0.0-573.0","mgbrh8v1","","","","","","","","","","","","","471","ibg","Diagnostic trial","","f","","8","0","11","false","false","false","both pre & post","LEFT","LEFT","f","1","true","","","",""
"","html-keyboard-response","330","510076","0.0-576.0","mgbrh8v1","1280","720","","","","","","","","","","","null","+","Fixation - short","","null","","","","","","","","","","","","","","","","",""
"","html-keyboard-response","331","510575","0.0-577.0","mgbrh8v1","","","","","","","","","","","","","499","dij","Diagnostic trial","","f","","8","1","11","false","false","false","both pre & post","RIGHT","LEFT","f","1","false","","","",""
"","html-keyboard-response","332","511330","0.0-580.0","mgbrh8v1","1280","720","","","","","","","","","","","null","+","Fixation - short","","null","","","","","","","","","","","","","","","","",""
"","html-keyboard-response","333","511919","0.0-581.0","mgbrh8v1","","","","","","","","","","","","","589","ibg","Diagnostic trial","","j","","8","2","11","false","false","true","both pre & post","LEFT","RIGHT","j","1","false","","","",""
"","html-keyboard-response","334","512673","0.0-584.0","mgbrh8v1","1280","720","","","","","","","","","","","null","+","Fixation - short","","null","","","","","","","","","","","","","","","","",""
"","html-keyboard-response","335","513153","0.0-585.0","mgbrh8v1","","","","","","","","","","","","","479","ibg","Diagnostic trial","","j","","8","3","11","false","false","true","both pre & post","LEFT","RIGHT","j","1","false","","","",""
"","html-keyboard-response","336","513908","0.0-588.0","mgbrh8v1","1280","720","","","","","","","","","","","null","+","Fixation - short","","null","","","","","","","","","","","","","","","","",""
"","html-keyboard-response","337","514415","0.0-589.0","mgbrh8v1","","","","","","","","","","","","","507","dij","Diagnostic trial","","f","","8","4","11","false","false","false","both pre & post","RIGHT","LEFT","f","1","false","","","",""
"","html-keyboard-response","338","515172","0.0-592.0","mgbrh8v1","1280","720","","","","","","","","","","","null","+","Fixation - short","","null","","","","","","","","","","","","","","","","",""
"","html-keyboard-response","339","515687","0.0-593.0","mgbrh8v1","","","","","","","","","","","","","514","dij","Diagnostic trial","","j","","8","5","11","false","false","true","both pre & post","RIGHT","RIGHT","j","1","true","","","",""
"","html-keyboard-response","340","516444","0.0-596.0","mgbrh8v1","1280","720","","","","","","","","","","","null","+","Fixation - short","","null","","","","","","","","","","","","","","","","",""
"","html-keyboard-response","341","517072","0.0-597.0","mgbrh8v1","","","","","","","","","","","","","627","ibg","Diagnostic trial","","j","","8","6","11","false","false","true","both pre & post","LEFT","RIGHT","j","1","false","","","",""
"","html-keyboard-response","342","517837","0.0-600.0","mgbrh8v1","1280","720","","","","","","","","","","","null","+","Fixation - short","","null","","","","","","","","","","","","","","","","",""
"","html-keyboard-response","343","518463","0.0-601.0","mgbrh8v1","","","","","","","","","","","","","626","dij","Diagnostic trial","","j","","8","7","11","false","false","true","both pre & post","RIGHT","RIGHT","j","1","true","","","",""
"","html-keyboard-response","344","519224","0.0-604.0","mgbrh8v1","1280","720","","","","","","","","","","","null","+","Fixation - short","","null","","","","","","","","","","","","","","","","",""
"","html-keyboard-response","345","519824","0.0-605.0","mgbrh8v1","","","","","","","","","","","","","599","dij","Diagnostic trial","","f","","8","8","11","false","false","false","both pre & post","RIGHT","LEFT","f","1","false","","","",""
"","html-keyboard-response","346","520590","0.0-608.0","mgbrh8v1","1280","720","","","","","","","","","","","null","+","Fixation - short","","null","","","","","","","","","","","","","","","","",""
"","html-keyboard-response","347","521320","0.0-609.0","mgbrh8v1","","","","","","","","","","","","","730","ibg","Diagnostic trial","","f","","8","9","11","false","false","false","both pre & post","LEFT","LEFT","f","1","true","","","",""
"","html-keyboard-response","348","522081","0.0-612.0","mgbrh8v1","1280","720","","","","","","","","","","","null","+","Fixation - short","","null","","","","","","","","","","","","","","","","",""
"","html-keyboard-response","349","522808","0.0-613.0","mgbrh8v1","","","","","","","","","","","","","727","dij","Diagnostic trial","","f","","8","10","11","false","false","false","both pre & post","RIGHT","LEFT","f","1","false","","","",""
"","html-keyboard-response","350","523569","0.0-616.0","mgbrh8v1","1280","720","","","","","","","","","","","null","+","Fixation - short","","null","","","","","","","","","","","","","","","","",""
"","canvas-keyboard-response","351","524823","0.0-617.0","mgbrh8v1","","","","","","","","","","","","","null","Cue","Cue","","null","","8","10","","","false","","","","","","","","","","",""
"","html-keyboard-response","352","525580","0.0-618.0","mgbrh8v1","1280","720","","","","","","","","","","","null","+","Fixation - short","","null","","","","","","","","","","","","","","","","",""
"","html-keyboard-response","353","526121","0.0-619.0","mgbrh8v1","","","","","","","","","","","","","541","dij","Inducer trial","","j","","8","","","","true","","","","","j","1","","false","RIGHT","",""
"","html-keyboard-response","354","526881","0.0-622.0","mgbrh8v1","1280","720","","","","","","","","","","","null","+","Fixation - short","","null","","","","","","","","","","","","","","","","",""
"","html-keyboard-response","355","527912","0.0-623.0","mgbrh8v1","","","","","","","","","","","","","1031","If nga press RIGHT | If mmo press LEFT","Inducer instructions",""," ","","9","","","","","","","","","","","","","","",""
"","html-keyboard-response","356","528675","0.0-624.0","mgbrh8v1","1280","720","","","","","","","","","","","null","+","Fixation - short","","null","","","","","","","","","","","","","","","","",""
"","html-keyboard-response","357","529264","0.0-625.0","mgbrh8v1","","","","","","","","","","","","","589","nga","Diagnostic trial","","j","","9","0","7","false","false","true","both pre & post","RIGHT","RIGHT","j","1","true","","","",""
"","html-keyboard-response","358","530021","0.0-628.0","mgbrh8v1","1280","720","","","","","","","","","","","null","+","Fixation - short","","null","","","","","","","","","","","","","","","","",""
"","html-keyboard-response","359","530624","0.0-629.0","mgbrh8v1","","","","","","","","","","","","","603","mmo","Diagnostic trial","","j","","9","1","7","false","false","true","both pre & post","LEFT","RIGHT","j","1","false","","","",""
"","html-keyboard-response","360","531383","0.0-632.0","mgbrh8v1","1280","720","","","","","","","","","","","null","+","Fixation - short","","null","","","","","","","","","","","","","","","","",""
"","html-keyboard-response","361","531912","0.0-633.0","mgbrh8v1","","","","","","","","","","","","","529","nga","Diagnostic trial","","j","","9","2","7","false","false","true","both pre & post","RIGHT","RIGHT","j","1","true","","","",""
"","html-keyboard-response","362","532665","0.0-636.0","mgbrh8v1","1280","720","","","","","","","","","","","null","+","Fixation - short","","null","","","","","","","","","","","","","","","","",""
"","html-keyboard-response","363","533136","0.0-637.0","mgbrh8v1","","","","","","","","","","","","","471","nga","Diagnostic trial","","f","","9","3","7","false","false","false","both pre & post","RIGHT","LEFT","f","1","false","","","",""
"","html-keyboard-response","364","533887","0.0-640.0","mgbrh8v1","1280","720","","","","","","","","","","","null","+","Fixation - short","","null","","","","","","","","","","","","","","","","",""
"","html-keyboard-response","365","534456","0.0-641.0","mgbrh8v1","","","","","","","","","","","","","569","mmo","Diagnostic trial","","f","","9","4","7","false","false","false","both pre & post","LEFT","LEFT","f","1","true","","","",""
"","html-keyboard-response","366","535211","0.0-644.0","mgbrh8v1","1280","720","","","","","","","","","","","null","+","Fixation - short","","null","","","","","","","","","","","","","","","","",""
"","html-keyboard-response","367","535968","0.0-645.0","mgbrh8v1","","","","","","","","","","","","","757","mmo","Diagnostic trial","","j","","9","5","7","false","false","true","both pre & post","LEFT","RIGHT","j","1","false","","","",""
"","html-keyboard-response","368","536729","0.0-648.0","mgbrh8v1","1280","720","","","","","","","","","","","null","+","Fixation - short","","null","","","","","","","","","","","","","","","","",""
"","html-keyboard-response","369","537281","0.0-649.0","mgbrh8v1","","","","","","","","","","","","","552","mmo","Diagnostic trial","","f","","9","6","7","false","false","false","both pre & post","LEFT","LEFT","f","1","true","","","",""
"","html-keyboard-response","370","538045","0.0-652.0","mgbrh8v1","1280","720","","","","","","","","","","","null","+","Fixation - short","","null","","","","","","","","","","","","","","","","",""
"","canvas-keyboard-response","371","539299","0.0-653.0","mgbrh8v1","","","","","","","","","","","","","null","Cue","Cue","","null","","9","6","","","false","","","","","","","","","","",""
"","html-keyboard-response","372","540056","0.0-654.0","mgbrh8v1","1280","720","","","","","","","","","","","null","+","Fixation - short","","null","","","","","","","","","","","","","","","","",""
"","html-keyboard-response","373","540680","0.0-655.0","mgbrh8v1","","","","","","","","","","","","","624","mmo","Diagnostic trial","","j","","9","7","7","true","false","true","both pre & post","LEFT","RIGHT","j","1","false","","","",""
"","html-keyboard-response","374","541446","0.0-658.0","mgbrh8v1","1280","720","","","","","","","","","","","null","+","Fixation - short","","null","","","","","","","","","","","","","","","","",""
"","html-keyboard-response","375","542032","0.0-659.0","mgbrh8v1","","","","","","","","","","","","","586","nga","Diagnostic trial","","j","","9","8","7","true","false","true","both pre & post","RIGHT","RIGHT","j","1","true","","","",""
"","html-keyboard-response","376","542791","0.0-662.0","mgbrh8v1","1280","720","","","","","","","","","","","null","+","Fixation - short","","null","","","","","","","","","","","","","","","","",""
"","html-keyboard-response","377","543384","0.0-663.0","mgbrh8v1","","","","","","","","","","","","","593","mmo","Diagnostic trial","","j","","9","9","7","true","false","true","both pre & post","LEFT","RIGHT","j","1","false","","","",""
"","html-keyboard-response","378","544149","0.0-666.0","mgbrh8v1","1280","720","","","","","","","","","","","null","+","Fixation - short","","null","","","","","","","","","","","","","","","","",""
"","html-keyboard-response","379","544696","0.0-667.0","mgbrh8v1","","","","","","","","","","","","","547","mmo","Inducer trial","","f","","9","","","","true","","","","","f","1","","false","LEFT","",""
"","html-keyboard-response","380","545453","0.0-670.0","mgbrh8v1","1280","720","","","","","","","","","","","null","+","Fixation - short","","null","","","","","","","","","","","","","","","","",""
"","html-keyboard-response","381","548137","0.0-671.0","mgbrh8v1","","","","","","","","","","","","","2684","If jsf press RIGHT | If glp press LEFT","Inducer instructions",""," ","","10","","","","","","","","","","","","","","",""
"","html-keyboard-response","382","548889","0.0-672.0","mgbrh8v1","1280","720","","","","","","","","","","","null","+","Fixation - short","","null","","","","","","","","","","","","","","","","",""
"","html-keyboard-response","383","549632","0.0-673.0","mgbrh8v1","","","","","","","","","","","","","743","jsf","Diagnostic trial","","f","","10","0","7","false","false","false","both pre & post","RIGHT","LEFT","f","1","false","","","",""
"","html-keyboard-response","384","550391","0.0-676.0","mgbrh8v1","1280","720","","","","","","","","","","","null","+","Fixation - short","","null","","","","","","","","","","","","","","","","",""
"","html-keyboard-response","385","550960","0.0-677.0","mgbrh8v1","","","","","","","","","","","","","569","jsf","Diagnostic trial","","f","","10","1","7","false","false","false","both pre & post","RIGHT","LEFT","f","1","false","","","",""
"","html-keyboard-response","386","551723","0.0-680.0","mgbrh8v1","1280","720","","","","","","","","","","","null","+","Fixation - short","","null","","","","","","","","","","","","","","","","",""
"","html-keyboard-response","387","552288","0.0-681.0","mgbrh8v1","","","","","","","","","","","","","565","glp","Diagnostic trial","","j","","10","2","7","false","false","true","both pre & post","LEFT","RIGHT","j","1","false","","","",""
"","html-keyboard-response","388","553048","0.0-684.0","mgbrh8v1","1280","720","","","","","","","","","","","null","+","Fixation - short","","null","","","","","","","","","","","","","","","","",""
"","html-keyboard-response","389","553592","0.0-685.0","mgbrh8v1","","","","","","","","","","","","","544","glp","Diagnostic trial","","f","","10","3","7","false","false","false","both pre & post","LEFT","LEFT","f","1","true","","","",""
"","html-keyboard-response","390","554353","0.0-688.0","mgbrh8v1","1280","720","","","","","","","","","","","null","+","Fixation - short","","null","","","","","","","","","","","","","","","","",""
"","html-keyboard-response","391","554976","0.0-689.0","mgbrh8v1","","","","","","","","","","","","","623","jsf","Diagnostic trial","","f","","10","4","7","false","false","false","both pre & post","RIGHT","LEFT","f","1","false","","","",""
"","html-keyboard-response","392","555729","0.0-692.0","mgbrh8v1","1280","720","","","","","","","","","","","null","+","Fixation - short","","null","","","","","","","","","","","","","","","","",""
"","html-keyboard-response","393","556200","0.0-693.0","mgbrh8v1","","","","","","","","","","","","","471","jsf","Diagnostic trial","","j","","10","5","7","false","false","true","both pre & post","RIGHT","RIGHT","j","1","true","","","",""
"","html-keyboard-response","394","556959","0.0-696.0","mgbrh8v1","1280","720","","","","","","","","","","","null","+","Fixation - short","","null","","","","","","","","","","","","","","","","",""
"","html-keyboard-response","395","557464","0.0-697.0","mgbrh8v1","","","","","","","","","","","","","505","jsf","Diagnostic trial","","j","","10","6","7","false","false","true","both pre & post","RIGHT","RIGHT","j","1","true","","","",""
"","html-keyboard-response","396","558224","0.0-700.0","mgbrh8v1","1280","720","","","","","","","","","","","null","+","Fixation - short","","null","","","","","","","","","","","","","","","","",""
"","canvas-keyboard-response","397","559475","0.0-701.0","mgbrh8v1","","","","","","","","","","","","","null","Cue","Cue","","null","","10","6","","","false","","","","","","","","","","",""
"","html-keyboard-response","398","560235","0.0-702.0","mgbrh8v1","1280","720","","","","","","","","","","","null","+","Fixation - short","","null","","","","","","","","","","","","","","","","",""
"","html-keyboard-response","399","561153","0.0-703.0","mgbrh8v1","","","","","","","","","","","","","918","jsf","Inducer trial","","j","","10","","","","true","","","","","j","1","","false","RIGHT","",""
"","html-keyboard-response","400","561907","0.0-706.0","mgbrh8v1","1280","720","","","","","","","","","","","null","+","Fixation - short","","null","","","","","","","","","","","","","","","","",""
"","html-keyboard-response","401","562920","0.0-707.0","mgbrh8v1","","","","","","","","","","","","","1013","If saj press RIGHT | If tkb press LEFT","Inducer instructions",""," ","","11","","","","","","","","","","","","","","",""
"","html-keyboard-response","402","563676","0.0-708.0","mgbrh8v1","1280","720","","","","","","","","","","","null","+","Fixation - short","","null","","","","","","","","","","","","","","","","",""
"","html-keyboard-response","403","564464","0.0-709.0","mgbrh8v1","","","","","","","","","","","","","788","saj","Diagnostic trial","","f","","11","0","10","false","false","true","both pre & post","RIGHT","RIGHT","j","0","true","","","",""
"","call-function","404","564464","0.0-711.0-0.0","mgbrh8v1","","","","","","","","","","","","","","","","","","","","","","","","","","","","","","","","","",""
"","html-keyboard-response","405","564768","0.0-711.0-1.0","mgbrh8v1","1280","720","","","","","","","","","","","null","Wrong","Feedback","","null","","","","","","","","","","","","","","","","",""
"","call-function","406","564768","0.0-711.0-2.0","mgbrh8v1","","","","","","","","","","","","","","","","","","","","","","","","","","","","","","","","","",""
"","html-keyboard-response","407","565525","0.0-712.0","mgbrh8v1","1280","720","","","","","","","","","","","null","+","Fixation - short","","null","","","","","","","","","","","","","","","","",""
"","html-keyboard-response","408","566096","0.0-713.0","mgbrh8v1","","","","","","","","","","","","","571","tkb","Diagnostic trial","","f","","11","1","10","false","false","false","both pre & post","LEFT","LEFT","f","1","true","","","",""
"","html-keyboard-response","409","566857","0.0-716.0","mgbrh8v1","1280","720","","","","","","","","","","","null","+","Fixation - short","","null","","","","","","","","","","","","","","","","",""
"","html-keyboard-response","410","567352","0.0-717.0","mgbrh8v1","","","","","","","","","","","","","495","tkb","Diagnostic trial","","j","","11","2","10","false","false","true","both pre & post","LEFT","RIGHT","j","1","false","","","",""
"","html-keyboard-response","411","568109","0.0-720.0","mgbrh8v1","1280","720","","","","","","","","","","","null","+","Fixation - short","","null","","","","","","","","","","","","","","","","",""
"","html-keyboard-response","412","568696","0.0-721.0","mgbrh8v1","","","","","","","","","","","","","587","saj","Diagnostic trial","","j","","11","3","10","false","false","true","both pre & post","RIGHT","RIGHT","j","1","true","","","",""
"","html-keyboard-response","413","569457","0.0-724.0","mgbrh8v1","1280","720","","","","","","","","","","","null","+","Fixation - short","","null","","","","","","","","","","","","","","","","",""
"","html-keyboard-response","414","569992","0.0-725.0","mgbrh8v1","","","","","","","","","","","","","535","saj","Diagnostic trial","","j","","11","4","10","false","false","true","both pre & post","RIGHT","RIGHT","j","1","true","","","",""
"","html-keyboard-response","415","570757","0.0-728.0","mgbrh8v1","1280","720","","","","","","","","","","","null","+","Fixation - short","","null","","","","","","","","","","","","","","","","",""
"","html-keyboard-response","416","571681","0.0-729.0","mgbrh8v1","","","","","","","","","","","","","924","tkb","Diagnostic trial","","j","","11","5","10","false","false","true","both pre & post","LEFT","RIGHT","j","1","false","","","",""
"","html-keyboard-response","417","572447","0.0-732.0","mgbrh8v1","1280","720","","","","","","","","","","","null","+","Fixation - short","","null","","","","","","","","","","","","","","","","",""
"","html-keyboard-response","418","573016","0.0-733.0","mgbrh8v1","","","","","","","","","","","","","569","tkb","Diagnostic trial","","j","","11","6","10","false","false","true","both pre & post","LEFT","RIGHT","j","1","false","","","",""
"","html-keyboard-response","419","573777","0.0-736.0","mgbrh8v1","1280","720","","","","","","","","","","","null","+","Fixation - short","","null","","","","","","","","","","","","","","","","",""
"","html-keyboard-response","420","574344","0.0-737.0","mgbrh8v1","","","","","","","","","","","","","567","saj","Diagnostic trial","","f","","11","7","10","false","false","false","both pre & post","RIGHT","LEFT","f","1","false","","","",""
"","html-keyboard-response","421","575101","0.0-740.0","mgbrh8v1","1280","720","","","","","","","","","","","null","+","Fixation - short","","null","","","","","","","","","","","","","","","","",""
"","html-keyboard-response","422","575888","0.0-741.0","mgbrh8v1","","","","","","","","","","","","","787","saj","Diagnostic trial","","f","","11","8","10","false","false","true","both pre & post","RIGHT","RIGHT","j","0","true","","","",""
"","call-function","423","575888","0.0-743.0-0.0","mgbrh8v1","","","","","","","","","","","","","","","","","","","","","","","","","","","","","","","","","",""
"","html-keyboard-response","424","576199","0.0-743.0-1.0","mgbrh8v1","1280","720","","","","","","","","","","","null","Wrong","Feedback","","null","","","","","","","","","","","","","","","","",""
"","call-function","425","576199","0.0-743.0-2.0","mgbrh8v1","","","","","","","","","","","","","","","","","","","","","","","","","","","","","","","","","",""
"","html-keyboard-response","426","576957","0.0-744.0","mgbrh8v1","1280","720","","","","","","","","","","","null","+","Fixation - short","","null","","","","","","","","","","","","","","","","",""
"","html-keyboard-response","427","577704","0.0-745.0","mgbrh8v1","","","","","","","","","","","","","746","tkb","Diagnostic trial","","j","","11","9","10","false","false","true","both pre & post","LEFT","RIGHT","j","1","false","","","",""
"","html-keyboard-response","428","578465","0.0-748.0","mgbrh8v1","1280","720","","","","","","","","","","","null","+","Fixation - short","","null","","","","","","","","","","","","","","","","",""
"","canvas-keyboard-response","429","579717","0.0-749.0","mgbrh8v1","","","","","","","","","","","","","null","Cue","Cue","","null","","11","9","","","false","","","","","","","","","","",""
"","html-keyboard-response","430","580481","0.0-750.0","mgbrh8v1","1280","720","","","","","","","","","","","null","+","Fixation - short","","null","","","","","","","","","","","","","","","","",""
"","html-keyboard-response","431","581448","0.0-751.0","mgbrh8v1","","","","","","","","","","","","","967","saj","Diagnostic trial","","f","","11","10","10","true","false","true","both pre & post","RIGHT","RIGHT","j","0","true","","","",""
"","call-function","432","581448","0.0-753.0-0.0","mgbrh8v1","","","","","","","","","","","","","","","","","","","","","","","","","","","","","","","","","",""
"","html-keyboard-response","433","581764","0.0-753.0-1.0","mgbrh8v1","1280","720","","","","","","","","","","","null","Wrong","Feedback","","null","","","","","","","","","","","","","","","","",""
"","call-function","434","581764","0.0-753.0-2.0","mgbrh8v1","","","","","","","","","","","","","","","","","","","","","","","","","","","","","","","","","",""
"","html-keyboard-response","435","582523","0.0-754.0","mgbrh8v1","1280","720","","","","","","","","","","","null","+","Fixation - short","","null","","","","","","","","","","","","","","","","",""
"","html-keyboard-response","436","583161","0.0-755.0","mgbrh8v1","","","","","","","","","","","","","638","saj","Diagnostic trial","","f","","11","11","10","true","false","false","both pre & post","RIGHT","LEFT","f","1","false","","","",""
"","html-keyboard-response","437","583927","0.0-758.0","mgbrh8v1","1280","720","","","","","","","","","","","null","+","Fixation - short","","null","","","","","","","","","","","","","","","","",""
"","html-keyboard-response","438","584472","0.0-759.0","mgbrh8v1","","","","","","","","","","","","","544","saj","Diagnostic trial","","f","","11","12","10","true","false","false","both pre & post","RIGHT","LEFT","f","1","false","","","",""
"","html-keyboard-response","439","585237","0.0-762.0","mgbrh8v1","1280","720","","","","","","","","","","","null","+","Fixation - short","","null","","","","","","","","","","","","","","","","",""
"","html-keyboard-response","440","585856","0.0-763.0","mgbrh8v1","","","","","","","","","","","","","619","tkb","Diagnostic trial","","f","","11","13","10","true","false","false","both pre & post","LEFT","LEFT","f","1","true","","","",""
"","html-keyboard-response","441","586622","0.0-766.0","mgbrh8v1","1280","720","","","","","","","","","","","null","+","Fixation - short","","null","","","","","","","","","","","","","","","","",""
"","html-keyboard-response","442","587656","0.0-767.0","mgbrh8v1","","","","","","","","","","","","","1034","saj","Inducer trial","","j","","11","","","","true","","","","","j","1","","false","RIGHT","",""
"","html-keyboard-response","443","588417","0.0-770.0","mgbrh8v1","1280","720","","","","","","","","","","","null","+","Fixation - short","","null","","","","","","","","","","","","","","","","",""
"","html-keyboard-response","444","589392","0.0-771.0","mgbrh8v1","","","","","","","","","","","","","975","If prg press RIGHT | If jcr press LEFT","Inducer instructions",""," ","","12","","","","","","","","","","","","","","",""
"","html-keyboard-response","445","590157","0.0-772.0","mgbrh8v1","1280","720","","","","","","","","","","","null","+","Fixation - short","","null","","","","","","","","","","","","","","","","",""
"","html-keyboard-response","446","590776","0.0-773.0","mgbrh8v1","","","","","","","","","","","","","619","prg","Diagnostic trial","","f","","12","0","4","false","false","false","both pre & post","RIGHT","LEFT","f","1","false","","","",""
"","html-keyboard-response","447","591539","0.0-776.0","mgbrh8v1","1280","720","","","","","","","","","","","null","+","Fixation - short","","null","","","","","","","","","","","","","","","","",""
"","html-keyboard-response","448","591984","0.0-777.0","mgbrh8v1","","","","","","","","","","","","","445","jcr","Diagnostic trial","","f","","12","1","4","false","false","false","both pre & post","LEFT","LEFT","f","1","true","","","",""
"","html-keyboard-response","449","592743","0.0-780.0","mgbrh8v1","1280","720","","","","","","","","","","","null","+","Fixation - short","","null","","","","","","","","","","","","","","","","",""
"","html-keyboard-response","450","593489","0.0-781.0","mgbrh8v1","","","","","","","","","","","","","746","prg","Diagnostic trial","","f","","12","2","4","false","false","false","both pre & post","RIGHT","LEFT","f","1","false","","","",""
"","html-keyboard-response","451","594249","0.0-784.0","mgbrh8v1","1280","720","","","","","","","","","","","null","+","Fixation - short","","null","","","","","","","","","","","","","","","","",""
"","html-keyboard-response","452","594856","0.0-785.0","mgbrh8v1","","","","","","","","","","","","","607","prg","Diagnostic trial","","j","","12","3","4","false","false","true","both pre & post","RIGHT","RIGHT","j","1","true","","","",""
"","html-keyboard-response","453","595611","0.0-788.0","mgbrh8v1","1280","720","","","","","","","","","","","null","+","Fixation - short","","null","","","","","","","","","","","","","","","","",""
"","canvas-keyboard-response","454","596877","0.0-789.0","mgbrh8v1","","","","","","","","","","","","","null","Cue","Cue","","null","","12","3","","","false","","","","","","","","","","",""
"","html-keyboard-response","455","597643","0.0-790.0","mgbrh8v1","1280","720","","","","","","","","","","","null","+","Fixation - short","","null","","","","","","","","","","","","","","","","",""
"","html-keyboard-response","456","598352","0.0-791.0","mgbrh8v1","","","","","","","","","","","","","709","prg","Diagnostic trial","","j","","12","4","4","true","false","true","both pre & post","RIGHT","RIGHT","j","1","true","","","",""
