"value","trial_type","trial_index","time_elapsed","internal_node_id","id","width","height","webaudio","browser","browser_version","mobile","os","fullscreen","vsync_rate","webcam","microphone","view_history","rt","stimulus","trial_info","success","response","exp_parameters","inducer_run","diagnostic_run","cue_num","post_cue","inducer_trial","italic","forced_equal_run","correct_inducer_response_side","correct_diag_response_side","correct_response_key","correct_response","congruent","force_equal","correct_indu_response_side","accuracy","interactive"
"","call-function","0","2","0.0-0.0","a5qt1fjv","","","","","","","","","","","","","","","","","","","","","","","","","","","","","","","","","",""
"","browser-check","1","825","0.0-1.0","a5qt1fjv","1920","919","true","chrome","123.0.0","false","Windows 10","true","108.75","true","true","","","","","","","","","","","","","","","","","","","","","","",""
"","instructions","2","42307","0.0-2.0","a5qt1fjv","","","","","","","","","","","","[{""page_index"":0,""viewing_time"":27346},{""page_index"":1,""viewing_time"":3601},{""page_index"":2,""viewing_time"":10535}]","41482","The experiment and consent","The experiment and consent","","","","","","","","","","","","","","","","","","",""
"","fullscreen","3","47165","0.0-3.0","a5qt1fjv","","","","","","","","","","","","","3845","","Full screen","true","","","","","","","","","","","","","","","","","",""
"","instructions","4","62452","0.0-4.0","a5qt1fjv","","","","","","","","","","","","[{""page_index"":0,""viewing_time"":9100},{""page_index"":1,""viewing_time"":6186}]","15286","Instructions","Basic overview explanation","","","","","","","","","","","","","","","","","","",""
"","html-keyboard-response","5","69085","0.0-5.0","a5qt1fjv","","","","","","","","","","","","","5123","If italic press RIGHT | If upright press LEFT","Diagnostic instructions",""," ","{""debug"":false,""skip_instructions"":false,""skip_practice"":false,""save_local_data"":false,""studu_name"":""exp2"",""default_background_colour"":""#cccccc"",""wrong_response_colour"":""#d22d2d"",""instruction_delay"":20000,""trial_duration"":2000,""short_fixation"":750,""long_fixation"":1500,""wrong_response_delay"":300,""too_slow_delay"":300,""instruction_font_size"":""24px"",""general_font_size"":""42px"",""fixation_size"":""48px"",""allowed_responses"":[""f"",""j""],""cue_min_length"":0,""cue_max_length"":4,""tot_post_cue_len"":72,""cue_colour"":""yellow"",""cue_shape"":""Circle"",""cue_size"":70,""cue_duration"":1250,""avg_number_of_cues"":3,""inducer_colour"":""red"",""number_of_inducers"":24,""pre_cue_italic_forced_equal"":true,""post_cue_italic_forced_equal"":true,""prac_diagnostic_rounds"":16,""prac_inducer_rounds"":6,""prac_cue_rounds"":16,""prac_post_cue_num"":3}","","","","","","","","","","","","","","","",""
"","html-keyboard-response","6","69851","0.0-6.0","a5qt1fjv","1920","1080","","","","","","","","","","","null","+","Fixation - short","","null","","","","","","","","","","","","","","","","",""
"","html-keyboard-response","7","70444","0.0-7.0","a5qt1fjv","","","","","","","","","","","","","592","ttm","Diagnostic practice","","f","","Diagnostic practice","0","-84","true","false","false","prac equal","LEFT","LEFT","f","1","true","","","",""
"","html-keyboard-response","8","71204","0.0-10.0","a5qt1fjv","1920","1080","","","","","","","","","","","null","+","Fixation - short","","null","","","","","","","","","","","","","","","","",""
"","html-keyboard-response","9","71615","0.0-11.0","a5qt1fjv","","","","","","","","","","","","","411","ttm","Diagnostic practice","","f","","Diagnostic practice","1","-84","true","false","false","prac equal","LEFT","LEFT","f","1","true","","","",""
"","html-keyboard-response","10","72365","0.0-14.0","a5qt1fjv","1920","1080","","","","","","","","","","","null","+","Fixation - short","","null","","","","","","","","","","","","","","","","",""
"","html-keyboard-response","11","72751","0.0-15.0","a5qt1fjv","","","","","","","","","","","","","385","wwt","Diagnostic practice","","f","","Diagnostic practice","2","-84","true","false","false","prac equal","RIGHT","LEFT","f","1","false","","","",""
"","html-keyboard-response","12","73511","0.0-18.0","a5qt1fjv","1920","1080","","","","","","","","","","","null","+","Fixation - short","","null","","","","","","","","","","","","","","","","",""
"","html-keyboard-response","13","73875","0.0-19.0","a5qt1fjv","","","","","","","","","","","","","363","ttm","Diagnostic practice","","f","","Diagnostic practice","3","-84","true","false","true","prac equal","LEFT","RIGHT","j","0","false","","","",""
"","call-function","14","73875","0.0-21.0-0.0","a5qt1fjv","","","","","","","","","","","","","","","","","","","","","","","","","","","","","","","","","",""
"","html-keyboard-response","15","74181","0.0-21.0-1.0","a5qt1fjv","1920","1080","","","","","","","","","","","null","Wrong","Feedback","","null","","","","","","","","","","","","","","","","",""
"","call-function","16","74182","0.0-21.0-2.0","a5qt1fjv","","","","","","","","","","","","","","","","","","","","","","","","","","","","","","","","","",""
"","html-keyboard-response","17","74945","0.0-22.0","a5qt1fjv","1920","1080","","","","","","","","","","","null","+","Fixation - short","","null","","","","","","","","","","","","","","","","",""
"","html-keyboard-response","18","75673","0.0-23.0","a5qt1fjv","","","","","","","","","","","","","727","wwt","Diagnostic practice","","f","","Diagnostic practice","4","-84","true","false","false","prac equal","RIGHT","LEFT","f","1","false","","","",""
"","html-keyboard-response","19","76425","0.0-26.0","a5qt1fjv","1920","1080","","","","","","","","","","","null","+","Fixation - short","","null","","","","","","","","","","","","","","","","",""
"","html-keyboard-response","20","76955","0.0-27.0","a5qt1fjv","","","","","","","","","","","","","529","ttm","Diagnostic practice","","f","","Diagnostic practice","5","-84","true","false","false","prac equal","LEFT","LEFT","f","1","true","","","",""
"","html-keyboard-response","21","77713","0.0-30.0","a5qt1fjv","1920","1080","","","","","","","","","","","null","+","Fixation - short","","null","","","","","","","","","","","","","","","","",""
"","html-keyboard-response","22","78273","0.0-31.0","a5qt1fjv","","","","","","","","","","","","","559","wwt","Diagnostic practice","","j","","Diagnostic practice","6","-84","true","false","true","prac equal","RIGHT","RIGHT","j","1","true","","","",""
"","html-keyboard-response","23","79026","0.0-34.0","a5qt1fjv","1920","1080","","","","","","","","","","","null","+","Fixation - short","","null","","","","","","","","","","","","","","","","",""
"","html-keyboard-response","24","80028","0.0-35.0","a5qt1fjv","","","","","","","","","","","","","1001","ttm","Diagnostic practice","","j","","Diagnostic practice","7","-84","true","false","true","prac equal","LEFT","RIGHT","j","1","false","","","",""
"","html-keyboard-response","25","80790","0.0-38.0","a5qt1fjv","1920","1080","","","","","","","","","","","null","+","Fixation - short","","null","","","","","","","","","","","","","","","","",""
"","html-keyboard-response","26","81292","0.0-39.0","a5qt1fjv","","","","","","","","","","","","","501","wwt","Diagnostic practice","","j","","Diagnostic practice","8","-84","true","false","true","prac equal","RIGHT","RIGHT","j","1","true","","","",""
"","html-keyboard-response","27","82043","0.0-42.0","a5qt1fjv","1920","1080","","","","","","","","","","","null","+","Fixation - short","","null","","","","","","","","","","","","","","","","",""
"","html-keyboard-response","28","82457","0.0-43.0","a5qt1fjv","","","","","","","","","","","","","413","ttm","Diagnostic practice","","f","","Diagnostic practice","9","-84","true","false","false","prac equal","LEFT","LEFT","f","1","true","","","",""
"","html-keyboard-response","29","83219","0.0-46.0","a5qt1fjv","1920","1080","","","","","","","","","","","null","+","Fixation - short","","null","","","","","","","","","","","","","","","","",""
"","html-keyboard-response","30","84166","0.0-47.0","a5qt1fjv","","","","","","","","","","","","","946","wwt","Diagnostic practice","","j","","Diagnostic practice","10","-84","true","false","true","prac equal","RIGHT","RIGHT","j","1","true","","","",""
"","html-keyboard-response","31","84920","0.0-50.0","a5qt1fjv","1920","1080","","","","","","","","","","","null","+","Fixation - short","","null","","","","","","","","","","","","","","","","",""
"","html-keyboard-response","32","85482","0.0-51.0","a5qt1fjv","","","","","","","","","","","","","561","wwt","Diagnostic practice","","j","","Diagnostic practice","11","-84","true","false","true","prac equal","RIGHT","RIGHT","j","1","true","","","",""
"","html-keyboard-response","33","86243","0.0-54.0","a5qt1fjv","1920","1080","","","","","","","","","","","null","+","Fixation - short","","null","","","","","","","","","","","","","","","","",""
"","html-keyboard-response","34","86785","0.0-55.0","a5qt1fjv","","","","","","","","","","","","","541","ttm","Diagnostic practice","","f","","Diagnostic practice","12","-84","true","false","false","prac equal","LEFT","LEFT","f","1","true","","","",""
"","html-keyboard-response","35","87537","0.0-58.0","a5qt1fjv","1920","1080","","","","","","","","","","","null","+","Fixation - short","","null","","","","","","","","","","","","","","","","",""
"","html-keyboard-response","36","88014","0.0-59.0","a5qt1fjv","","","","","","","","","","","","","476","wwt","Diagnostic practice","","f","","Diagnostic practice","13","-84","true","false","false","prac equal","RIGHT","LEFT","f","1","false","","","",""
"","html-keyboard-response","37","88777","0.0-62.0","a5qt1fjv","1920","1080","","","","","","","","","","","null","+","Fixation - short","","null","","","","","","","","","","","","","","","","",""
"","html-keyboard-response","38","89215","0.0-63.0","a5qt1fjv","","","","","","","","","","","","","437","ttm","Diagnostic practice","","j","","Diagnostic practice","14","-84","true","false","true","prac equal","LEFT","RIGHT","j","1","false","","","",""
"","html-keyboard-response","39","89975","0.0-66.0","a5qt1fjv","1920","1080","","","","","","","","","","","null","+","Fixation - short","","null","","","","","","","","","","","","","","","","",""
"","html-keyboard-response","40","90670","0.0-67.0","a5qt1fjv","","","","","","","","","","","","","694","wwt","Diagnostic practice","","j","","Diagnostic practice","15","-84","true","false","true","prac equal","RIGHT","RIGHT","j","1","true","","","",""
"","html-keyboard-response","41","91428","0.0-70.0","a5qt1fjv","1920","1080","","","","","","","","","","","null","+","Fixation - short","","null","","","","","","","","","","","","","","","","",""
"","instructions","42","100490","0.0-71.0","a5qt1fjv","","","","","","","","","","","","[{""page_index"":0,""viewing_time"":9061}]","9061","Instructions","Final experiment explanation","","","","","","","","","","","","","","","","","","",""
"","html-keyboard-response","43","107547","0.0-72.0","a5qt1fjv","","","","","","","","","","","","","5550","If eht press RIGHT | If gdn press LEFT","Inducer practice",""," ","","Practice","","","","","","","","","","","","","","",""
"","html-keyboard-response","44","108307","0.0-73.0","a5qt1fjv","1920","1080","","","","","","","","","","","null","+","Fixation - short","","null","","","","","","","","","","","","","","","","",""
"","html-keyboard-response","45","108896","0.0-74.0","a5qt1fjv","","","","","","","","","","","","","588","gdn","Inducer practice","","f","","Practice","","","","true","","","","","f","1","","true","LEFT","",""
"","html-keyboard-response","46","109648","0.0-77.0","a5qt1fjv","1920","1080","","","","","","","","","","","null","+","Fixation - short","","null","","","","","","","","","","","","","","","","",""
"","html-keyboard-response","47","111646","0.0-78.0","a5qt1fjv","","","","","","","","","","","","","1997","If wab press RIGHT | If hhd press LEFT","Inducer practice",""," ","","Practice","","","","","","","","","","","","","","",""
"","html-keyboard-response","48","112400","0.0-79.0","a5qt1fjv","1920","1080","","","","","","","","","","","null","+","Fixation - short","","null","","","","","","","","","","","","","","","","",""
"","html-keyboard-response","49","113069","0.0-80.0","a5qt1fjv","","","","","","","","","","","","","668","hhd","Inducer practice","","f","","Practice","","","","true","","","","","f","1","","true","LEFT","",""
"","html-keyboard-response","50","113829","0.0-83.0","a5qt1fjv","1920","1080","","","","","","","","","","","null","+","Fixation - short","","null","","","","","","","","","","","","","","","","",""
"","html-keyboard-response","51","114768","0.0-84.0","a5qt1fjv","","","","","","","","","","","","","938","If slu press RIGHT | If lff press LEFT","Inducer practice",""," ","","Practice","","","","","","","","","","","","","","",""
"","html-keyboard-response","52","115527","0.0-85.0","a5qt1fjv","1920","1080","","","","","","","","","","","null","+","Fixation - short","","null","","","","","","","","","","","","","","","","",""
"","html-keyboard-response","53","115888","0.0-86.0","a5qt1fjv","","","","","","","","","","","","","360","slu","Inducer practice","","j","","Practice","","","","true","","","","","j","1","","true","RIGHT","",""
"","html-keyboard-response","54","116643","0.0-89.0","a5qt1fjv","1920","1080","","","","","","","","","","","null","+","Fixation - short","","null","","","","","","","","","","","","","","","","",""
"","html-keyboard-response","55","117205","0.0-90.0","a5qt1fjv","","","","","","","","","","","","","562","If dul press RIGHT | If vib press LEFT","Inducer practice",""," ","","Practice","","","","","","","","","","","","","","",""
"","html-keyboard-response","56","117967","0.0-91.0","a5qt1fjv","1920","1080","","","","","","","","","","","null","+","Fixation - short","","null","","","","","","","","","","","","","","","","",""
"","html-keyboard-response","57","118668","0.0-92.0","a5qt1fjv","","","","","","","","","","","","","701","vib","Inducer practice","","f","","Practice","","","","true","","","","","f","1","","true","LEFT","",""
"","html-keyboard-response","58","119434","0.0-95.0","a5qt1fjv","1920","1080","","","","","","","","","","","null","+","Fixation - short","","null","","","","","","","","","","","","","","","","",""
"","html-keyboard-response","59","120153","0.0-96.0","a5qt1fjv","","","","","","","","","","","","","719","If pcm press RIGHT | If bgi press LEFT","Inducer practice",""," ","","Practice","","","","","","","","","","","","","","",""
"","html-keyboard-response","60","120905","0.0-97.0","a5qt1fjv","1920","1080","","","","","","","","","","","null","+","Fixation - short","","null","","","","","","","","","","","","","","","","",""
"","html-keyboard-response","61","121267","0.0-98.0","a5qt1fjv","","","","","","","","","","","","","362","pcm","Inducer practice","","j","","Practice","","","","true","","","","","j","1","","true","RIGHT","",""
"","html-keyboard-response","62","122022","0.0-101.0","a5qt1fjv","1920","1080","","","","","","","","","","","null","+","Fixation - short","","null","","","","","","","","","","","","","","","","",""
"","html-keyboard-response","63","122756","0.0-102.0","a5qt1fjv","","","","","","","","","","","","","734","If rif press RIGHT | If yrp press LEFT","Inducer practice",""," ","","Practice","","","","","","","","","","","","","","",""
"","html-keyboard-response","64","123509","0.0-103.0","a5qt1fjv","1920","1080","","","","","","","","","","","null","+","Fixation - short","","null","","","","","","","","","","","","","","","","",""
"","html-keyboard-response","65","123885","0.0-104.0","a5qt1fjv","","","","","","","","","","","","","376","rif","Inducer practice","","j","","Practice","","","","true","","","","","j","1","","true","RIGHT","",""
"","html-keyboard-response","66","124650","0.0-107.0","a5qt1fjv","1920","1080","","","","","","","","","","","null","+","Fixation - short","","null","","","","","","","","","","","","","","","","",""
"","instructions","67","152214","0.0-108.0","a5qt1fjv","","","","","","","","","","","","[{""page_index"":0,""viewing_time"":27564}]","27564","Instructions","Final experiment explanation","","","","","","","","","","","","","","","","","","",""
"","html-keyboard-response","68","155493","0.0-109.0","a5qt1fjv","","","","","","","","","","","","","1767","If chy press RIGHT | If geb press LEFT","Cue practice",""," ","","Practice","","","","","","","","","","","","","","",""
"","html-keyboard-response","69","156256","0.0-110.0","a5qt1fjv","1920","1080","","","","","","","","","","","null","+","Fixation - short","","null","","","","","","","","","","","","","","","","",""
"","html-keyboard-response","70","157805","0.0-111.0","a5qt1fjv","","","","","","","","","","","","","1549","geb","Cue practice","","j","","Practice","0","13","false","false","true","both pre & post","LEFT","RIGHT","j","1","false","","","",""
"","html-keyboard-response","71","158571","0.0-114.0","a5qt1fjv","1920","1080","","","","","","","","","","","null","+","Fixation - short","","null","","","","","","","","","","","","","","","","",""
"","html-keyboard-response","72","159367","0.0-115.0","a5qt1fjv","","","","","","","","","","","","","796","geb","Cue practice","","j","","Practice","1","13","false","false","true","both pre & post","LEFT","RIGHT","j","1","false","","","",""
"","html-keyboard-response","73","160133","0.0-118.0","a5qt1fjv","1920","1080","","","","","","","","","","","null","+","Fixation - short","","null","","","","","","","","","","","","","","","","",""
"","html-keyboard-response","74","160678","0.0-119.0","a5qt1fjv","","","","","","","","","","","","","545","geb","Cue practice","","j","","Practice","2","13","false","false","true","both pre & post","LEFT","RIGHT","j","1","false","","","",""
"","html-keyboard-response","75","161437","0.0-122.0","a5qt1fjv","1920","1080","","","","","","","","","","","null","+","Fixation - short","","null","","","","","","","","","","","","","","","","",""
"","html-keyboard-response","76","162406","0.0-123.0","a5qt1fjv","","","","","","","","","","","","","969","chy","Cue practice","","j","","Practice","3","13","false","false","true","both pre & post","RIGHT","RIGHT","j","1","true","","","",""
"","html-keyboard-response","77","163159","0.0-126.0","a5qt1fjv","1920","1080","","","","","","","","","","","null","+","Fixation - short","","null","","","","","","","","","","","","","","","","",""
"","html-keyboard-response","78","164196","0.0-127.0","a5qt1fjv","","","","","","","","","","","","","1037","geb","Cue practice","","j","","Practice","4","13","false","false","true","both pre & post","LEFT","RIGHT","j","1","false","","","",""
"","html-keyboard-response","79","164954","0.0-130.0","a5qt1fjv","1920","1080","","","","","","","","","","","null","+","Fixation - short","","null","","","","","","","","","","","","","","","","",""
"","html-keyboard-response","80","165520","0.0-131.0","a5qt1fjv","","","","","","","","","","","","","566","geb","Cue practice","","f","","Practice","5","13","false","false","false","both pre & post","LEFT","LEFT","f","1","true","","","",""
"","html-keyboard-response","81","166278","0.0-134.0","a5qt1fjv","1920","1080","","","","","","","","","","","null","+","Fixation - short","","null","","","","","","","","","","","","","","","","",""
"","html-keyboard-response","82","167016","0.0-135.0","a5qt1fjv","","","","","","","","","","","","","738","geb","Cue practice","","f","","Practice","6","13","false","false","false","both pre & post","LEFT","LEFT","f","1","true","","","",""
"","html-keyboard-response","83","167779","0.0-138.0","a5qt1fjv","1920","1080","","","","","","","","","","","null","+","Fixation - short","","null","","","","","","","","","","","","","","","","",""
"","html-keyboard-response","84","168448","0.0-139.0","a5qt1fjv","","","","","","","","","","","","","669","geb","Cue practice","","f","","Practice","7","13","false","false","false","both pre & post","LEFT","LEFT","f","1","true","","","",""
"","html-keyboard-response","85","169212","0.0-142.0","a5qt1fjv","1920","1080","","","","","","","","","","","null","+","Fixation - short","","null","","","","","","","","","","","","","","","","",""
"","html-keyboard-response","86","170067","0.0-143.0","a5qt1fjv","","","","","","","","","","","","","855","chy","Cue practice","","f","","Practice","8","13","false","false","false","both pre & post","RIGHT","LEFT","f","1","false","","","",""
"","html-keyboard-response","87","170818","0.0-146.0","a5qt1fjv","1920","1080","","","","","","","","","","","null","+","Fixation - short","","null","","","","","","","","","","","","","","","","",""
"","html-keyboard-response","88","172998","0.0-147.0","a5qt1fjv","","","","","","","","","","","","","2180","chy","Cue practice","","j","","Practice","9","13","false","false","false","both pre & post","RIGHT","LEFT","f","0","false","","","",""
"","call-function","89","172998","0.0-149.0-0.0","a5qt1fjv","","","","","","","","","","","","","","","","","","","","","","","","","","","","","","","","","",""
"","html-keyboard-response","90","173303","0.0-149.0-1.0","a5qt1fjv","1920","1080","","","","","","","","","","","null","Wrong","Feedback","","null","","","","","","","","","","","","","","","","",""
"","call-function","91","173303","0.0-149.0-2.0","a5qt1fjv","","","","","","","","","","","","","","","","","","","","","","","","","","","","","","","","","",""
"","html-keyboard-response","92","174067","0.0-150.0","a5qt1fjv","1920","1080","","","","","","","","","","","null","+","Fixation - short","","null","","","","","","","","","","","","","","","","",""
"","html-keyboard-response","93","177585","0.0-151.0","a5qt1fjv","","","","","","","","","","","","","3518","geb","Cue practice","","f","","Practice","10","13","false","false","true","both pre & post","LEFT","RIGHT","j","0","false","","","",""
"","call-function","94","177585","0.0-153.0-0.0","a5qt1fjv","","","","","","","","","","","","","","","","","","","","","","","","","","","","","","","","","",""
"","html-keyboard-response","95","177893","0.0-153.0-1.0","a5qt1fjv","1920","1080","","","","","","","","","","","null","Wrong","Feedback","","null","","","","","","","","","","","","","","","","",""
"","call-function","96","177893","0.0-153.0-2.0","a5qt1fjv","","","","","","","","","","","","","","","","","","","","","","","","","","","","","","","","","",""
"","html-keyboard-response","97","178657","0.0-154.0","a5qt1fjv","1920","1080","","","","","","","","","","","null","+","Fixation - short","","null","","","","","","","","","","","","","","","","",""
"","html-keyboard-response","98","179303","0.0-155.0","a5qt1fjv","","","","","","","","","","","","","646","chy","Cue practice","","j","","Practice","11","13","false","false","true","both pre & post","RIGHT","RIGHT","j","1","true","","","",""
"","html-keyboard-response","99","180069","0.0-158.0","a5qt1fjv","1920","1080","","","","","","","","","","","null","+","Fixation - short","","null","","","","","","","","","","","","","","","","",""
"","html-keyboard-response","100","181055","0.0-159.0","a5qt1fjv","","","","","","","","","","","","","986","geb","Cue practice","","f","","Practice","12","13","false","false","false","both pre & post","LEFT","LEFT","f","1","true","","","",""
"","html-keyboard-response","101","181818","0.0-162.0","a5qt1fjv","1920","1080","","","","","","","","","","","null","+","Fixation - short","","null","","","","","","","","","","","","","","","","",""
"","canvas-keyboard-response","102","183078","0.0-163.0","a5qt1fjv","","","","","","","","","","","","","null","Cue","Cue","","null","","Practice","12","","","false","","","","","","","","","","",""
"","html-keyboard-response","103","183844","0.0-164.0","a5qt1fjv","1920","1080","","","","","","","","","","","null","+","Fixation - short","","null","","","","","","","","","","","","","","","","",""
"","html-keyboard-response","104","185267","0.0-165.0","a5qt1fjv","","","","","","","","","","","","","1423","geb","Cue practice","","j","","Practice","13","13","true","false","true","both pre & post","LEFT","RIGHT","j","1","false","","","",""
"","html-keyboard-response","105","186028","0.0-168.0","a5qt1fjv","1920","1080","","","","","","","","","","","null","+","Fixation - short","","null","","","","","","","","","","","","","","","","",""
"","html-keyboard-response","106","186508","0.0-169.0","a5qt1fjv","","","","","","","","","","","","","480","chy","Cue practice","","j","","Practice","14","13","true","false","true","both pre & post","RIGHT","RIGHT","j","1","true","","","",""
"","html-keyboard-response","107","187274","0.0-172.0","a5qt1fjv","1920","1080","","","","","","","","","","","null","+","Fixation - short","","null","","","","","","","","","","","","","","","","",""
"","html-keyboard-response","108","187788","0.0-173.0","a5qt1fjv","","","","","","","","","","","","","514","chy","Cue practice","","j","","Practice","15","13","true","false","false","both pre & post","RIGHT","LEFT","f","0","false","","","",""
"","call-function","109","187788","0.0-175.0-0.0","a5qt1fjv","","","","","","","","","","","","","","","","","","","","","","","","","","","","","","","","","",""
"","html-keyboard-response","110","188089","0.0-175.0-1.0","a5qt1fjv","1920","1080","","","","","","","","","","","null","Wrong","Feedback","","null","","","","","","","","","","","","","","","","",""
"","call-function","111","188089","0.0-175.0-2.0","a5qt1fjv","","","","","","","","","","","","","","","","","","","","","","","","","","","","","","","","","",""
"","html-keyboard-response","112","188840","0.0-176.0","a5qt1fjv","1920","1080","","","","","","","","","","","null","+","Fixation - short","","null","","","","","","","","","","","","","","","","",""
"","html-keyboard-response","113","192703","0.0-177.0","a5qt1fjv","","","","","","","","","","","","","3863","chy","Inducer practice","","f","","Practice","","","","true","","","","","j","0","","false","RIGHT","",""
"","call-function","114","192703","0.0-179.0-0.0","a5qt1fjv","","","","","","","","","","","","","","","","","","","","","","","","","","","","","","","","","",""
"","html-keyboard-response","115","193010","0.0-179.0-1.0","a5qt1fjv","1920","1080","","","","","","","","","","","null","Wrong","Feedback","","null","","","","","","","","","","","","","","","","",""
"","call-function","116","193010","0.0-179.0-2.0","a5qt1fjv","","","","","","","","","","","","","","","","","","","","","","","","","","","","","","","","","",""
"","html-keyboard-response","117","193761","0.0-180.0","a5qt1fjv","1920","1080","","","","","","","","","","","null","+","Fixation - short","","null","","","","","","","","","","","","","","","","",""
"","instructions","118","200205","0.0-181.0","a5qt1fjv","","","","","","","","","","","","[{""page_index"":0,""viewing_time"":6444}]","6444","End practice","End of practice","","","","","","","","","","","","","","","","","","",""
"","html-keyboard-response","119","203217","0.0-182.0","a5qt1fjv","1920","1080","","","","","","","","","","","null","+","Fixation - long","","null","","","","","","","","","","","","","","","","",""
"","html-keyboard-response","120","207810","0.0-183.0","a5qt1fjv","","","","","","","","","","","","","4593","If nga press RIGHT | If epy press LEFT","Inducer instructions",""," ","","0","","","","","","","","","","","","","","",""
"","html-keyboard-response","121","208572","0.0-184.0","a5qt1fjv","1920","1080","","","","","","","","","","","null","+","Fixation - short","","null","","","","","","","","","","","","","","","","",""
"","html-keyboard-response","122","209303","0.0-185.0","a5qt1fjv","","","","","","","","","","","","","731","nga","Diagnostic trial","","j","","0","0","6","false","false","false","both pre & post","RIGHT","LEFT","f","0","false","","","",""
"","call-function","123","209303","0.0-187.0-0.0","a5qt1fjv","","","","","","","","","","","","","","","","","","","","","","","","","","","","","","","","","",""
"","html-keyboard-response","124","209607","0.0-187.0-1.0","a5qt1fjv","1920","1080","","","","","","","","","","","null","Wrong","Feedback","","null","","","","","","","","","","","","","","","","",""
"","call-function","125","209607","0.0-187.0-2.0","a5qt1fjv","","","","","","","","","","","","","","","","","","","","","","","","","","","","","","","","","",""
"","html-keyboard-response","126","210373","0.0-188.0","a5qt1fjv","1920","1080","","","","","","","","","","","null","+","Fixation - short","","null","","","","","","","","","","","","","","","","",""
"","html-keyboard-response","127","212222","0.0-189.0","a5qt1fjv","","","","","","","","","","","","","1849","nga","Diagnostic trial","","f","","0","1","6","false","false","false","both pre & post","RIGHT","LEFT","f","1","false","","","",""
"","html-keyboard-response","128","212974","0.0-192.0","a5qt1fjv","1920","1080","","","","","","","","","","","null","+","Fixation - short","","null","","","","","","","","","","","","","","","","",""
"","html-keyboard-response","129","214571","0.0-193.0","a5qt1fjv","","","","","","","","","","","","","1597","epy","Diagnostic trial","","f","","0","2","6","false","false","false","both pre & post","LEFT","LEFT","f","1","true","","","",""
"","html-keyboard-response","130","215336","0.0-196.0","a5qt1fjv","1920","1080","","","","","","","","","","","null","+","Fixation - short","","null","","","","","","","","","","","","","","","","",""
"","html-keyboard-response","131","215899","0.0-197.0","a5qt1fjv","","","","","","","","","","","","","563","epy","Diagnostic trial","","f","","0","3","6","false","false","false","both pre & post","LEFT","LEFT","f","1","true","","","",""
"","html-keyboard-response","132","216656","0.0-200.0","a5qt1fjv","1920","1080","","","","","","","","","","","null","+","Fixation - short","","null","","","","","","","","","","","","","","","","",""
"","html-keyboard-response","133","217317","0.0-201.0","a5qt1fjv","","","","","","","","","","","","","661","nga","Diagnostic trial","","f","","0","4","6","false","false","false","both pre & post","RIGHT","LEFT","f","1","false","","","",""
"","html-keyboard-response","134","218075","0.0-204.0","a5qt1fjv","1920","1080","","","","","","","","","","","null","+","Fixation - short","","null","","","","","","","","","","","","","","","","",""
"","html-keyboard-response","135","218512","0.0-205.0","a5qt1fjv","","","","","","","","","","","","","437","nga","Diagnostic trial","","j","","0","5","6","false","false","true","both pre & post","RIGHT","RIGHT","j","1","true","","","",""
"","html-keyboard-response","136","219270","0.0-208.0","a5qt1fjv","1920","1080","","","","","","","","","","","null","+","Fixation - short","","null","","","","","","","","","","","","","","","","",""
"","canvas-keyboard-response","137","220527","0.0-209.0","a5qt1fjv","","","","","","","","","","","","","null","Cue","Cue","","null","","0","5","","","false","","","","","","","","","","",""
"","html-keyboard-response","138","221293","0.0-210.0","a5qt1fjv","1920","1080","","","","","","","","","","","null","+","Fixation - short","","null","","","","","","","","","","","","","","","","",""
"","html-keyboard-response","139","221816","0.0-211.0","a5qt1fjv","","","","","","","","","","","","","523","nga","Diagnostic trial","","j","","0","6","6","true","false","true","both pre & post","RIGHT","RIGHT","j","1","true","","","",""
"","html-keyboard-response","140","222569","0.0-214.0","a5qt1fjv","1920","1080","","","","","","","","","","","null","+","Fixation - short","","null","","","","","","","","","","","","","","","","",""
"","html-keyboard-response","141","223443","0.0-215.0","a5qt1fjv","","","","","","","","","","","","","874","nga","Inducer trial","","f","","0","","","","true","","","","","j","0","","false","RIGHT","",""
"","call-function","142","223443","0.0-217.0-0.0","a5qt1fjv","","","","","","","","","","","","","","","","","","","","","","","","","","","","","","","","","",""
"","html-keyboard-response","143","223748","0.0-217.0-1.0","a5qt1fjv","1920","1080","","","","","","","","","","","null","Wrong","Feedback","","null","","","","","","","","","","","","","","","","",""
"","call-function","144","223748","0.0-217.0-2.0","a5qt1fjv","","","","","","","","","","","","","","","","","","","","","","","","","","","","","","","","","",""
"","html-keyboard-response","145","224513","0.0-218.0","a5qt1fjv","1920","1080","","","","","","","","","","","null","+","Fixation - short","","null","","","","","","","","","","","","","","","","",""
"","html-keyboard-response","146","229017","0.0-219.0","a5qt1fjv","","","","","","","","","","","","","4504","If pxv press RIGHT | If kmh press LEFT","Inducer instructions",""," ","","1","","","","","","","","","","","","","","",""
"","html-keyboard-response","147","229776","0.0-220.0","a5qt1fjv","1920","1080","","","","","","","","","","","null","+","Fixation - short","","null","","","","","","","","","","","","","","","","",""
"","html-keyboard-response","148","230326","0.0-221.0","a5qt1fjv","","","","","","","","","","","","","550","kmh","Diagnostic trial","","f","","1","0","6","false","false","false","both pre & post","LEFT","LEFT","f","1","true","","","",""
"","html-keyboard-response","149","231077","0.0-224.0","a5qt1fjv","1920","1080","","","","","","","","","","","null","+","Fixation - short","","null","","","","","","","","","","","","","","","","",""
"","html-keyboard-response","150","232001","0.0-225.0","a5qt1fjv","","","","","","","","","","","","","924","kmh","Diagnostic trial","","f","","1","1","6","false","false","true","both pre & post","LEFT","RIGHT","j","0","false","","","",""
"","call-function","151","232001","0.0-227.0-0.0","a5qt1fjv","","","","","","","","","","","","","","","","","","","","","","","","","","","","","","","","","",""
"","html-keyboard-response","152","232306","0.0-227.0-1.0","a5qt1fjv","1920","1080","","","","","","","","","","","null","Wrong","Feedback","","null","","","","","","","","","","","","","","","","",""
"","call-function","153","232306","0.0-227.0-2.0","a5qt1fjv","","","","","","","","","","","","","","","","","","","","","","","","","","","","","","","","","",""
"","html-keyboard-response","154","233069","0.0-228.0","a5qt1fjv","1920","1080","","","","","","","","","","","null","+","Fixation - short","","null","","","","","","","","","","","","","","","","",""
"","html-keyboard-response","155","235078","0.0-229.0","a5qt1fjv","","","","","","","","","","","","","null","pxv","Diagnostic trial","","null","","1","2","6","false","false","false","both pre & post","RIGHT","LEFT","f","NaN","false","","","",""
"","call-function","156","235078","0.0-230.0-0.0","a5qt1fjv","","","","","","","","","","","","","","","","","","","","","","","","","","","","","","","","","",""
"","html-keyboard-response","157","235381","0.0-230.0-1.0","a5qt1fjv","1920","1080","","","","","","","","","","","null","Slow","Feedback","","null","","","","","","","","","","","","","","","","",""
"","call-function","158","235381","0.0-230.0-2.0","a5qt1fjv","","","","","","","","","","","","","","","","","","","","","","","","","","","","","","","","","",""
"","html-keyboard-response","159","236142","0.0-232.0","a5qt1fjv","1920","1080","","","","","","","","","","","null","+","Fixation - short","","null","","","","","","","","","","","","","","","","",""
"","html-keyboard-response","160","236699","0.0-233.0","a5qt1fjv","","","","","","","","","","","","","557","kmh","Diagnostic trial","","f","","1","3","6","false","false","false","both pre & post","LEFT","LEFT","f","1","true","","","",""
"","html-keyboard-response","161","237454","0.0-236.0","a5qt1fjv","1920","1080","","","","","","","","","","","null","+","Fixation - short","","null","","","","","","","","","","","","","","","","",""
"","html-keyboard-response","162","238101","0.0-237.0","a5qt1fjv","","","","","","","","","","","","","647","pxv","Diagnostic trial","","j","","1","4","6","false","false","true","both pre & post","RIGHT","RIGHT","j","1","true","","","",""
"","html-keyboard-response","163","238858","0.0-240.0","a5qt1fjv","1920","1080","","","","","","","","","","","null","+","Fixation - short","","null","","","","","","","","","","","","","","","","",""
"","html-keyboard-response","164","240065","0.0-241.0","a5qt1fjv","","","","","","","","","","","","","1207","pxv","Diagnostic trial","","j","","1","5","6","false","false","false","both pre & post","RIGHT","LEFT","f","0","false","","","",""
"","call-function","165","240065","0.0-243.0-0.0","a5qt1fjv","","","","","","","","","","","","","","","","","","","","","","","","","","","","","","","","","",""
"","html-keyboard-response","166","240376","0.0-243.0-1.0","a5qt1fjv","1920","1080","","","","","","","","","","","null","Wrong","Feedback","","null","","","","","","","","","","","","","","","","",""
"","call-function","167","240376","0.0-243.0-2.0","a5qt1fjv","","","","","","","","","","","","","","","","","","","","","","","","","","","","","","","","","",""
"","html-keyboard-response","168","241140","0.0-244.0","a5qt1fjv","1920","1080","","","","","","","","","","","null","+","Fixation - short","","null","","","","","","","","","","","","","","","","",""
"","canvas-keyboard-response","169","242401","0.0-245.0","a5qt1fjv","","","","","","","","","","","","","null","Cue","Cue","","null","","1","5","","","false","","","","","","","","","","",""
"","html-keyboard-response","170","243167","0.0-246.0","a5qt1fjv","1920","1080","","","","","","","","","","","null","+","Fixation - short","","null","","","","","","","","","","","","","","","","",""
"","html-keyboard-response","171","243842","0.0-247.0","a5qt1fjv","","","","","","","","","","","","","675","kmh","Diagnostic trial","","f","","1","6","6","true","false","false","both pre & post","LEFT","LEFT","f","1","true","","","",""
"","html-keyboard-response","172","244595","0.0-250.0","a5qt1fjv","1920","1080","","","","","","","","","","","null","+","Fixation - short","","null","","","","","","","","","","","","","","","","",""
"","html-keyboard-response","173","245500","0.0-251.0","a5qt1fjv","","","","","","","","","","","","","905","pxv","Inducer trial","","j","","1","","","","true","","","","","j","1","","false","RIGHT","",""
"","html-keyboard-response","174","246252","0.0-254.0","a5qt1fjv","1920","1080","","","","","","","","","","","null","+","Fixation - short","","null","","","","","","","","","","","","","","","","",""
"","html-keyboard-response","175","252770","0.0-255.0","a5qt1fjv","","","","","","","","","","","","","6518","If jup press RIGHT | If cta press LEFT","Inducer instructions",""," ","","2","","","","","","","","","","","","","","",""
"","html-keyboard-response","176","253525","0.0-256.0","a5qt1fjv","1920","1080","","","","","","","","","","","null","+","Fixation - short","","null","","","","","","","","","","","","","","","","",""
"","html-keyboard-response","177","254136","0.0-257.0","a5qt1fjv","","","","","","","","","","","","","611","cta","Diagnostic trial","","f","","2","0","4","false","false","false","both pre & post","LEFT","LEFT","f","1","true","","","",""
"","html-keyboard-response","178","254894","0.0-260.0","a5qt1fjv","1920","1080","","","","","","","","","","","null","+","Fixation - short","","null","","","","","","","","","","","","","","","","",""
"","html-keyboard-response","179","255888","0.0-261.0","a5qt1fjv","","","","","","","","","","","","","994","jup","Diagnostic trial","","j","","2","1","4","false","false","false","both pre & post","RIGHT","LEFT","f","0","false","","","",""
"","call-function","180","255888","0.0-263.0-0.0","a5qt1fjv","","","","","","","","","","","","","","","","","","","","","","","","","","","","","","","","","",""
"","html-keyboard-response","181","256199","0.0-263.0-1.0","a5qt1fjv","1920","1080","","","","","","","","","","","null","Wrong","Feedback","","null","","","","","","","","","","","","","","","","",""
"","call-function","182","256199","0.0-263.0-2.0","a5qt1fjv","","","","","","","","","","","","","","","","","","","","","","","","","","","","","","","","","",""
"","html-keyboard-response","183","256963","0.0-264.0","a5qt1fjv","1920","1080","","","","","","","","","","","null","+","Fixation - short","","null","","","","","","","","","","","","","","","","",""
"","html-keyboard-response","184","258273","0.0-265.0","a5qt1fjv","","","","","","","","","","","","","1310","cta","Diagnostic trial","","f","","2","2","4","false","false","false","both pre & post","LEFT","LEFT","f","1","true","","","",""
"","html-keyboard-response","185","259038","0.0-268.0","a5qt1fjv","1920","1080","","","","","","","","","","","null","+","Fixation - short","","null","","","","","","","","","","","","","","","","",""
"","html-keyboard-response","186","259398","0.0-269.0","a5qt1fjv","","","","","","","","","","","","","360","jup","Diagnostic trial","","j","","2","3","4","false","false","true","both pre & post","RIGHT","RIGHT","j","1","true","","","",""
"","html-keyboard-response","187","260152","0.0-272.0","a5qt1fjv","1920","1080","","","","","","","","","","","null","+","Fixation - short","","null","","","","","","","","","","","","","","","","",""
"","canvas-keyboard-response","188","261414","0.0-273.0","a5qt1fjv","","","","","","","","","","","","","null","Cue","Cue","","null","","2","3","","","false","","","","","","","","","","",""
"","html-keyboard-response","189","262180","0.0-274.0","a5qt1fjv","1920","1080","","","","","","","","","","","null","+","Fixation - short","","null","","","","","","","","","","","","","","","","",""
"","html-keyboard-response","190","263172","0.0-275.0","a5qt1fjv","","","","","","","","","","","","","992","jup","Diagnostic trial","","f","","2","4","4","true","false","false","both pre & post","RIGHT","LEFT","f","1","false","","","",""
"","html-keyboard-response","191","263931","0.0-278.0","a5qt1fjv","1920","1080","","","","","","","","","","","null","+","Fixation - short","","null","","","","","","","","","","","","","","","","",""
"","html-keyboard-response","192","264923","0.0-279.0","a5qt1fjv","","","","","","","","","","","","","992","cta","Diagnostic trial","","f","","2","5","4","true","false","false","both pre & post","LEFT","LEFT","f","1","true","","","",""
"","html-keyboard-response","193","265681","0.0-282.0","a5qt1fjv","1920","1080","","","","","","","","","","","null","+","Fixation - short","","null","","","","","","","","","","","","","","","","",""
"","html-keyboard-response","194","266255","0.0-283.0","a5qt1fjv","","","","","","","","","","","","","574","cta","Diagnostic trial","","j","","2","6","4","true","false","true","both pre & post","LEFT","RIGHT","j","1","false","","","",""
"","html-keyboard-response","195","267020","0.0-286.0","a5qt1fjv","1920","1080","","","","","","","","","","","null","+","Fixation - short","","null","","","","","","","","","","","","","","","","",""
"","html-keyboard-response","196","268115","0.0-287.0","a5qt1fjv","","","","","","","","","","","","","1095","jup","Diagnostic trial","","f","","2","7","4","true","false","false","both pre & post","RIGHT","LEFT","f","1","false","","","",""
"","html-keyboard-response","197","268868","0.0-290.0","a5qt1fjv","1920","1080","","","","","","","","","","","null","+","Fixation - short","","null","","","","","","","","","","","","","","","","",""
"","html-keyboard-response","198","269827","0.0-291.0","a5qt1fjv","","","","","","","","","","","","","959","jup","Inducer trial","","f","","2","","","","true","","","","","j","0","","false","RIGHT","",""
"","call-function","199","269827","0.0-293.0-0.0","a5qt1fjv","","","","","","","","","","","","","","","","","","","","","","","","","","","","","","","","","",""
"","html-keyboard-response","200","270136","0.0-293.0-1.0","a5qt1fjv","1920","1080","","","","","","","","","","","null","Wrong","Feedback","","null","","","","","","","","","","","","","","","","",""
"","call-function","201","270136","0.0-293.0-2.0","a5qt1fjv","","","","","","","","","","","","","","","","","","","","","","","","","","","","","","","","","",""
"","html-keyboard-response","202","270888","0.0-294.0","a5qt1fjv","1920","1080","","","","","","","","","","","null","+","Fixation - short","","null","","","","","","","","","","","","","","","","",""
"","html-keyboard-response","203","274412","0.0-295.0","a5qt1fjv","","","","","","","","","","","","","3524","If mvv press RIGHT | If vrm press LEFT","Inducer instructions",""," ","","3","","","","","","","","","","","","","","",""
"","html-keyboard-response","204","275169","0.0-296.0","a5qt1fjv","1920","1080","","","","","","","","","","","null","+","Fixation - short","","null","","","","","","","","","","","","","","","","",""
"","html-keyboard-response","205","275922","0.0-297.0","a5qt1fjv","","","","","","","","","","","","","753","mvv","Diagnostic trial","","j","","3","0","9","false","false","true","both pre & post","RIGHT","RIGHT","j","1","true","","","",""
"","html-keyboard-response","206","276681","0.0-300.0","a5qt1fjv","1920","1080","","","","","","","","","","","null","+","Fixation - short","","null","","","","","","","","","","","","","","","","",""
"","html-keyboard-response","207","277251","0.0-301.0","a5qt1fjv","","","","","","","","","","","","","570","vrm","Diagnostic trial","","f","","3","1","9","false","false","false","both pre & post","LEFT","LEFT","f","1","true","","","",""
"","html-keyboard-response","208","278009","0.0-304.0","a5qt1fjv","1920","1080","","","","","","","","","","","null","+","Fixation - short","","null","","","","","","","","","","","","","","","","",""
"","html-keyboard-response","209","278468","0.0-305.0","a5qt1fjv","","","","","","","","","","","","","459","mvv","Diagnostic trial","","j","","3","2","9","false","false","true","both pre & post","RIGHT","RIGHT","j","1","true","","","",""
"","html-keyboard-response","210","279222","0.0-308.0","a5qt1fjv","1920","1080","","","","","","","","","","","null","+","Fixation - short","","null","","","","","","","","","","","","","","","","",""
"","html-keyboard-response","211","279841","0.0-309.0","a5qt1fjv","","","","","","","","","","","","","619","vrm","Diagnostic trial","","f","","3","3","9","false","false","false","both pre & post","LEFT","LEFT","f","1","true","","","",""
"","html-keyboard-response","212","280593","0.0-312.0","a5qt1fjv","1920","1080","","","","","","","","","","","null","+","Fixation - short","","null","","","","","","","","","","","","","","","","",""
"","html-keyboard-response","213","281311","0.0-313.0","a5qt1fjv","","","","","","","","","","","","","718","vrm","Diagnostic trial","","f","","3","4","9","false","false","false","both pre & post","LEFT","LEFT","f","1","true","","","",""
"","html-keyboard-response","214","282074","0.0-316.0","a5qt1fjv","1920","1080","","","","","","","","","","","null","+","Fixation - short","","null","","","","","","","","","","","","","","","","",""
"","html-keyboard-response","215","282594","0.0-317.0","a5qt1fjv","","","","","","","","","","","","","520","mvv","Diagnostic trial","","f","","3","5","9","false","false","false","both pre & post","RIGHT","LEFT","f","1","false","","","",""
"","html-keyboard-response","216","283360","0.0-320.0","a5qt1fjv","1920","1080","","","","","","","","","","","null","+","Fixation - short","","null","","","","","","","","","","","","","","","","",""
"","html-keyboard-response","217","283864","0.0-321.0","a5qt1fjv","","","","","","","","","","","","","504","mvv","Diagnostic trial","","f","","3","6","9","false","false","false","both pre & post","RIGHT","LEFT","f","1","false","","","",""
"","html-keyboard-response","218","284619","0.0-324.0","a5qt1fjv","1920","1080","","","","","","","","","","","null","+","Fixation - short","","null","","","","","","","","","","","","","","","","",""
"","html-keyboard-response","219","285083","0.0-325.0","a5qt1fjv","","","","","","","","","","","","","464","mvv","Diagnostic trial","","f","","3","7","9","false","false","false","both pre & post","RIGHT","LEFT","f","1","false","","","",""
"","html-keyboard-response","220","285839","0.0-328.0","a5qt1fjv","1920","1080","","","","","","","","","","","null","+","Fixation - short","","null","","","","","","","","","","","","","","","","",""
"","html-keyboard-response","221","286269","0.0-329.0","a5qt1fjv","","","","","","","","","","","","","430","mvv","Diagnostic trial","","f","","3","8","9","false","false","false","both pre & post","RIGHT","LEFT","f","1","false","","","",""
"","html-keyboard-response","222","287030","0.0-332.0","a5qt1fjv","1920","1080","","","","","","","","","","","null","+","Fixation - short","","null","","","","","","","","","","","","","","","","",""
"","canvas-keyboard-response","223","288288","0.0-333.0","a5qt1fjv","","","","","","","","","","","","","null","Cue","Cue","","null","","3","8","","","false","","","","","","","","","","",""
"","html-keyboard-response","224","289054","0.0-334.0","a5qt1fjv","1920","1080","","","","","","","","","","","null","+","Fixation - short","","null","","","","","","","","","","","","","","","","",""
"","html-keyboard-response","225","289511","0.0-335.0","a5qt1fjv","","","","","","","","","","","","","457","mvv","Diagnostic trial","","j","","3","9","9","true","false","true","both pre & post","RIGHT","RIGHT","j","1","true","","","",""
"","html-keyboard-response","226","290265","0.0-338.0","a5qt1fjv","1920","1080","","","","","","","","","","","null","+","Fixation - short","","null","","","","","","","","","","","","","","","","",""
"","html-keyboard-response","227","290794","0.0-339.0","a5qt1fjv","","","","","","","","","","","","","529","mvv","Diagnostic trial","","j","","3","10","9","true","false","true","both pre & post","RIGHT","RIGHT","j","1","true","","","",""
"","html-keyboard-response","228","291554","0.0-342.0","a5qt1fjv","1920","1080","","","","","","","","","","","null","+","Fixation - short","","null","","","","","","","","","","","","","","","","",""
"","html-keyboard-response","229","292166","0.0-343.0","a5qt1fjv","","","","","","","","","","","","","612","vrm","Diagnostic trial","","j","","3","11","9","true","false","true","both pre & post","LEFT","RIGHT","j","1","false","","","",""
"","html-keyboard-response","230","292919","0.0-346.0","a5qt1fjv","1920","1080","","","","","","","","","","","null","+","Fixation - short","","null","","","","","","","","","","","","","","","","",""
"","html-keyboard-response","231","293693","0.0-347.0","a5qt1fjv","","","","","","","","","","","","","774","vrm","Diagnostic trial","","j","","3","12","9","true","false","true","both pre & post","LEFT","RIGHT","j","1","false","","","",""
"","html-keyboard-response","232","294448","0.0-350.0","a5qt1fjv","1920","1080","","","","","","","","","","","null","+","Fixation - short","","null","","","","","","","","","","","","","","","","",""
"","html-keyboard-response","233","295950","0.0-351.0","a5qt1fjv","","","","","","","","","","","","","1502","mvv","Inducer trial","","j","","3","","","","true","","","","","j","1","","false","RIGHT","",""
"","html-keyboard-response","234","296713","0.0-354.0","a5qt1fjv","1920","1080","","","","","","","","","","","null","+","Fixation - short","","null","","","","","","","","","","","","","","","","",""
"","html-keyboard-response","235","300003","0.0-355.0","a5qt1fjv","","","","","","","","","","","","","3290","If jlm press RIGHT | If ibg press LEFT","Inducer instructions",""," ","","4","","","","","","","","","","","","","","",""
"","html-keyboard-response","236","300755","0.0-356.0","a5qt1fjv","1920","1080","","","","","","","","","","","null","+","Fixation - short","","null","","","","","","","","","","","","","","","","",""
"","html-keyboard-response","237","301799","0.0-357.0","a5qt1fjv","","","","","","","","","","","","","1044","ibg","Diagnostic trial","","j","","4","0","4","false","false","true","both pre & post","LEFT","RIGHT","j","1","false","","","",""
"","html-keyboard-response","238","302551","0.0-360.0","a5qt1fjv","1920","1080","","","","","","","","","","","null","+","Fixation - short","","null","","","","","","","","","","","","","","","","",""
"","html-keyboard-response","239","303070","0.0-361.0","a5qt1fjv","","","","","","","","","","","","","519","jlm","Diagnostic trial","","j","","4","1","4","false","false","true","both pre & post","RIGHT","RIGHT","j","1","true","","","",""
"","html-keyboard-response","240","303835","0.0-364.0","a5qt1fjv","1920","1080","","","","","","","","","","","null","+","Fixation - short","","null","","","","","","","","","","","","","","","","",""
"","html-keyboard-response","241","305260","0.0-365.0","a5qt1fjv","","","","","","","","","","","","","1425","jlm","Diagnostic trial","","f","","4","2","4","false","false","false","both pre & post","RIGHT","LEFT","f","1","false","","","",""
"","html-keyboard-response","242","306016","0.0-368.0","a5qt1fjv","1920","1080","","","","","","","","","","","null","+","Fixation - short","","null","","","","","","","","","","","","","","","","",""
"","html-keyboard-response","243","306900","0.0-369.0","a5qt1fjv","","","","","","","","","","","","","884","ibg","Diagnostic trial","","f","","4","3","4","false","false","false","both pre & post","LEFT","LEFT","f","1","true","","","",""
"","html-keyboard-response","244","307657","0.0-372.0","a5qt1fjv","1920","1080","","","","","","","","","","","null","+","Fixation - short","","null","","","","","","","","","","","","","","","","",""
"","canvas-keyboard-response","245","308919","0.0-373.0","a5qt1fjv","","","","","","","","","","","","","null","Cue","Cue","","null","","4","3","","","false","","","","","","","","","","",""
"","html-keyboard-response","246","309685","0.0-374.0","a5qt1fjv","1920","1080","","","","","","","","","","","null","+","Fixation - short","","null","","","","","","","","","","","","","","","","",""
"","html-keyboard-response","247","311383","0.0-375.0","a5qt1fjv","","","","","","","","","","","","","1698","jlm","Diagnostic trial","","f","","4","4","4","true","false","false","both pre & post","RIGHT","LEFT","f","1","false","","","",""
"","html-keyboard-response","248","312141","0.0-378.0","a5qt1fjv","1920","1080","","","","","","","","","","","null","+","Fixation - short","","null","","","","","","","","","","","","","","","","",""
"","html-keyboard-response","249","312619","0.0-379.0","a5qt1fjv","","","","","","","","","","","","","478","ibg","Diagnostic trial","","f","","4","5","4","true","false","false","both pre & post","LEFT","LEFT","f","1","true","","","",""
"","html-keyboard-response","250","313383","0.0-382.0","a5qt1fjv","1920","1080","","","","","","","","","","","null","+","Fixation - short","","null","","","","","","","","","","","","","","","","",""
"","html-keyboard-response","251","313817","0.0-383.0","a5qt1fjv","","","","","","","","","","","","","434","jlm","Diagnostic trial","","j","","4","6","4","true","false","true","both pre & post","RIGHT","RIGHT","j","1","true","","","",""
"","html-keyboard-response","252","314571","0.0-386.0","a5qt1fjv","1920","1080","","","","","","","","","","","null","+","Fixation - short","","null","","","","","","","","","","","","","","","","",""
"","html-keyboard-response","253","315333","0.0-387.0","a5qt1fjv","","","","","","","","","","","","","762","jlm","Diagnostic trial","","j","","4","7","4","true","false","true","both pre & post","RIGHT","RIGHT","j","1","true","","","",""
"","html-keyboard-response","254","316097","0.0-390.0","a5qt1fjv","1920","1080","","","","","","","","","","","null","+","Fixation - short","","null","","","","","","","","","","","","","","","","",""
"","html-keyboard-response","255","316903","0.0-391.0","a5qt1fjv","","","","","","","","","","","","","806","jlm","Inducer trial","","f","","4","","","","true","","","","","j","0","","false","RIGHT","",""
"","call-function","256","316903","0.0-393.0-0.0","a5qt1fjv","","","","","","","","","","","","","","","","","","","","","","","","","","","","","","","","","",""
"","html-keyboard-response","257","317214","0.0-393.0-1.0","a5qt1fjv","1920","1080","","","","","","","","","","","null","Wrong","Feedback","","null","","","","","","","","","","","","","","","","",""
"","call-function","258","317214","0.0-393.0-2.0","a5qt1fjv","","","","","","","","","","","","","","","","","","","","","","","","","","","","","","","","","",""
"","html-keyboard-response","259","317980","0.0-394.0","a5qt1fjv","1920","1080","","","","","","","","","","","null","+","Fixation - short","","null","","","","","","","","","","","","","","","","",""
"","html-keyboard-response","260","322531","0.0-395.0","a5qt1fjv","","","","","","","","","","","","","4551","If sjn press RIGHT | If csp press LEFT","Inducer instructions",""," ","","5","","","","","","","","","","","","","","",""
"","html-keyboard-response","261","323296","0.0-396.0","a5qt1fjv","1920","1080","","","","","","","","","","","null","+","Fixation - short","","null","","","","","","","","","","","","","","","","",""
"","html-keyboard-response","262","323720","0.0-397.0","a5qt1fjv","","","","","","","","","","","","","424","sjn","Diagnostic trial","","j","","5","0","9","false","false","true","both pre & post","RIGHT","RIGHT","j","1","true","","","",""
"","html-keyboard-response","263","324476","0.0-400.0","a5qt1fjv","1920","1080","","","","","","","","","","","null","+","Fixation - short","","null","","","","","","","","","","","","","","","","",""
"","html-keyboard-response","264","325088","0.0-401.0","a5qt1fjv","","","","","","","","","","","","","611","sjn","Diagnostic trial","","f","","5","1","9","false","false","false","both pre & post","RIGHT","LEFT","f","1","false","","","",""
"","html-keyboard-response","265","325846","0.0-404.0","a5qt1fjv","1920","1080","","","","","","","","","","","null","+","Fixation - short","","null","","","","","","","","","","","","","","","","",""
"","html-keyboard-response","266","326462","0.0-405.0","a5qt1fjv","","","","","","","","","","","","","616","csp","Diagnostic trial","","f","","5","2","9","false","false","false","both pre & post","LEFT","LEFT","f","1","true","","","",""
"","html-keyboard-response","267","327217","0.0-408.0","a5qt1fjv","1920","1080","","","","","","","","","","","null","+","Fixation - short","","null","","","","","","","","","","","","","","","","",""
"","html-keyboard-response","268","327839","0.0-409.0","a5qt1fjv","","","","","","","","","","","","","622","sjn","Diagnostic trial","","j","","5","3","9","false","false","true","both pre & post","RIGHT","RIGHT","j","1","true","","","",""
"","html-keyboard-response","269","328601","0.0-412.0","a5qt1fjv","1920","1080","","","","","","","","","","","null","+","Fixation - short","","null","","","","","","","","","","","","","","","","",""
"","html-keyboard-response","270","329189","0.0-413.0","a5qt1fjv","","","","","","","","","","","","","588","sjn","Diagnostic trial","","f","","5","4","9","false","false","false","both pre & post","RIGHT","LEFT","f","1","false","","","",""
"","html-keyboard-response","271","329941","0.0-416.0","a5qt1fjv","1920","1080","","","","","","","","","","","null","+","Fixation - short","","null","","","","","","","","","","","","","","","","",""
"","html-keyboard-response","272","330560","0.0-417.0","a5qt1fjv","","","","","","","","","","","","","619","sjn","Diagnostic trial","","j","","5","5","9","false","false","true","both pre & post","RIGHT","RIGHT","j","1","true","","","",""
"","html-keyboard-response","273","331316","0.0-420.0","a5qt1fjv","1920","1080","","","","","","","","","","","null","+","Fixation - short","","null","","","","","","","","","","","","","","","","",""
"","html-keyboard-response","274","332180","0.0-421.0","a5qt1fjv","","","","","","","","","","","","","864","csp","Diagnostic trial","","j","","5","6","9","false","false","true","both pre & post","LEFT","RIGHT","j","1","false","","","",""
"","html-keyboard-response","275","332935","0.0-424.0","a5qt1fjv","1920","1080","","","","","","","","","","","null","+","Fixation - short","","null","","","","","","","","","","","","","","","","",""
"","html-keyboard-response","276","333421","0.0-425.0","a5qt1fjv","","","","","","","","","","","","","486","csp","Diagnostic trial","","j","","5","7","9","false","false","true","both pre & post","LEFT","RIGHT","j","1","false","","","",""
"","html-keyboard-response","277","334184","0.0-428.0","a5qt1fjv","1920","1080","","","","","","","","","","","null","+","Fixation - short","","null","","","","","","","","","","","","","","","","",""
"","html-keyboard-response","278","334996","0.0-429.0","a5qt1fjv","","","","","","","","","","","","","812","sjn","Diagnostic trial","","f","","5","8","9","false","false","false","both pre & post","RIGHT","LEFT","f","1","false","","","",""
"","html-keyboard-response","279","335753","0.0-432.0","a5qt1fjv","1920","1080","","","","","","","","","","","null","+","Fixation - short","","null","","","","","","","","","","","","","","","","",""
"","canvas-keyboard-response","280","337011","0.0-433.0","a5qt1fjv","","","","","","","","","","","","","null","Cue","Cue","","null","","5","8","","","false","","","","","","","","","","",""
"","html-keyboard-response","281","337763","0.0-434.0","a5qt1fjv","1920","1080","","","","","","","","","","","null","+","Fixation - short","","null","","","","","","","","","","","","","","","","",""
"","html-keyboard-response","282","338781","0.0-435.0","a5qt1fjv","","","","","","","","","","","","","1018","csp","Diagnostic trial","","j","","5","9","9","true","false","true","both pre & post","LEFT","RIGHT","j","1","false","","","",""
"","html-keyboard-response","283","339535","0.0-438.0","a5qt1fjv","1920","1080","","","","","","","","","","","null","+","Fixation - short","","null","","","","","","","","","","","","","","","","",""
"","html-keyboard-response","284","340851","0.0-439.0","a5qt1fjv","","","","","","","","","","","","","1316","sjn","Inducer trial","","j","","5","","","","true","","","","","j","1","","false","RIGHT","",""
"","html-keyboard-response","285","341609","0.0-442.0","a5qt1fjv","1920","1080","","","","","","","","","","","null","+","Fixation - short","","null","","","","","","","","","","","","","","","","",""
"","html-keyboard-response","286","343603","0.0-443.0","a5qt1fjv","","","","","","","","","","","","","1994","If xet press RIGHT | If hfs press LEFT","Inducer instructions",""," ","","6","","","","","","","","","","","","","","",""
"","html-keyboard-response","287","344368","0.0-444.0","a5qt1fjv","1920","1080","","","","","","","","","","","null","+","Fixation - short","","null","","","","","","","","","","","","","","","","",""
"","html-keyboard-response","288","345059","0.0-445.0","a5qt1fjv","","","","","","","","","","","","","691","hfs","Diagnostic trial","","j","","6","0","5","false","false","true","both pre & post","LEFT","RIGHT","j","1","false","","","",""
"","html-keyboard-response","289","345819","0.0-448.0","a5qt1fjv","1920","1080","","","","","","","","","","","null","+","Fixation - short","","null","","","","","","","","","","","","","","","","",""
"","html-keyboard-response","290","347083","0.0-449.0","a5qt1fjv","","","","","","","","","","","","","1264","xet","Diagnostic trial","","j","","6","1","5","false","false","true","both pre & post","RIGHT","RIGHT","j","1","true","","","",""
"","html-keyboard-response","291","347839","0.0-452.0","a5qt1fjv","1920","1080","","","","","","","","","","","null","+","Fixation - short","","null","","","","","","","","","","","","","","","","",""
"","html-keyboard-response","292","348653","0.0-453.0","a5qt1fjv","","","","","","","","","","","","","814","hfs","Diagnostic trial","","f","","6","2","5","false","false","false","both pre & post","LEFT","LEFT","f","1","true","","","",""
"","html-keyboard-response","293","349416","0.0-456.0","a5qt1fjv","1920","1080","","","","","","","","","","","null","+","Fixation - short","","null","","","","","","","","","","","","","","","","",""
"","html-keyboard-response","294","349989","0.0-457.0","a5qt1fjv","","","","","","","","","","","","","572","xet","Diagnostic trial","","j","","6","3","5","false","false","true","both pre & post","RIGHT","RIGHT","j","1","true","","","",""
"","html-keyboard-response","295","350741","0.0-460.0","a5qt1fjv","1920","1080","","","","","","","","","","","null","+","Fixation - short","","null","","","","","","","","","","","","","","","","",""
"","html-keyboard-response","296","351307","0.0-461.0","a5qt1fjv","","","","","","","","","","","","","566","hfs","Diagnostic trial","","j","","6","4","5","false","false","true","both pre & post","LEFT","RIGHT","j","1","false","","","",""
"","html-keyboard-response","297","352063","0.0-464.0","a5qt1fjv","1920","1080","","","","","","","","","","","null","+","Fixation - short","","null","","","","","","","","","","","","","","","","",""
"","canvas-keyboard-response","298","353317","0.0-465.0","a5qt1fjv","","","","","","","","","","","","","null","Cue","Cue","","null","","6","4","","","false","","","","","","","","","","",""
"","html-keyboard-response","299","354082","0.0-466.0","a5qt1fjv","1920","1080","","","","","","","","","","","null","+","Fixation - short","","null","","","","","","","","","","","","","","","","",""
"","html-keyboard-response","300","355369","0.0-467.0","a5qt1fjv","","","","","","","","","","","","","1287","hfs","Diagnostic trial","","j","","6","5","5","true","false","true","both pre & post","LEFT","RIGHT","j","1","false","","","",""
"","html-keyboard-response","301","356120","0.0-470.0","a5qt1fjv","1920","1080","","","","","","","","","","","null","+","Fixation - short","","null","","","","","","","","","","","","","","","","",""
"","html-keyboard-response","302","356777","0.0-471.0","a5qt1fjv","","","","","","","","","","","","","657","xet","Diagnostic trial","","j","","6","6","5","true","false","true","both pre & post","RIGHT","RIGHT","j","1","true","","","",""
"","html-keyboard-response","303","357537","0.0-474.0","a5qt1fjv","1920","1080","","","","","","","","","","","null","+","Fixation - short","","null","","","","","","","","","","","","","","","","",""
"","html-keyboard-response","304","358257","0.0-475.0","a5qt1fjv","","","","","","","","","","","","","720","hfs","Diagnostic trial","","f","","6","7","5","true","false","false","both pre & post","LEFT","LEFT","f","1","true","","","",""
"","html-keyboard-response","305","359021","0.0-478.0","a5qt1fjv","1920","1080","","","","","","","","","","","null","+","Fixation - short","","null","","","","","","","","","","","","","","","","",""
"","html-keyboard-response","306","360178","0.0-479.0","a5qt1fjv","","","","","","","","","","","","","1157","xet","Diagnostic trial","","f","","6","8","5","true","false","false","both pre & post","RIGHT","LEFT","f","1","false","","","",""
"","html-keyboard-response","307","360935","0.0-482.0","a5qt1fjv","1920","1080","","","","","","","","","","","null","+","Fixation - short","","null","","","","","","","","","","","","","","","","",""
"","html-keyboard-response","308","361853","0.0-483.0","a5qt1fjv","","","","","","","","","","","","","918","hfs","Inducer trial","","j","","6","","","","true","","","","","f","0","","false","LEFT","",""
"","call-function","309","361853","0.0-485.0-0.0","a5qt1fjv","","","","","","","","","","","","","","","","","","","","","","","","","","","","","","","","","",""
"","html-keyboard-response","310","362161","0.0-485.0-1.0","a5qt1fjv","1920","1080","","","","","","","","","","","null","Wrong","Feedback","","null","","","","","","","","","","","","","","","","",""
"","call-function","311","362161","0.0-485.0-2.0","a5qt1fjv","","","","","","","","","","","","","","","","","","","","","","","","","","","","","","","","","",""
"","html-keyboard-response","312","362914","0.0-486.0","a5qt1fjv","1920","1080","","","","","","","","","","","null","+","Fixation - short","","null","","","","","","","","","","","","","","","","",""
"","html-keyboard-response","313","365166","0.0-487.0","a5qt1fjv","","","","","","","","","","","","","2252","If aor press RIGHT | If bms press LEFT","Inducer instructions",""," ","","7","","","","","","","","","","","","","","",""
"","html-keyboard-response","314","365919","0.0-488.0","a5qt1fjv","1920","1080","","","","","","","","","","","null","+","Fixation - short","","null","","","","","","","","","","","","","","","","",""
"","html-keyboard-response","315","367210","0.0-489.0","a5qt1fjv","","","","","","","","","","","","","1291","bms","Diagnostic trial","","f","","7","0","5","false","false","false","both pre & post","LEFT","LEFT","f","1","true","","","",""
"","html-keyboard-response","316","367963","0.0-492.0","a5qt1fjv","1920","1080","","","","","","","","","","","null","+","Fixation - short","","null","","","","","","","","","","","","","","","","",""
"","html-keyboard-response","317","368467","0.0-493.0","a5qt1fjv","","","","","","","","","","","","","504","aor","Diagnostic trial","","j","","7","1","5","false","false","true","both pre & post","RIGHT","RIGHT","j","1","true","","","",""
"","html-keyboard-response","318","369223","0.0-496.0","a5qt1fjv","1920","1080","","","","","","","","","","","null","+","Fixation - short","","null","","","","","","","","","","","","","","","","",""
"","html-keyboard-response","319","369938","0.0-497.0","a5qt1fjv","","","","","","","","","","","","","715","aor","Diagnostic trial","","j","","7","2","5","false","false","true","both pre & post","RIGHT","RIGHT","j","1","true","","","",""
"","html-keyboard-response","320","370696","0.0-500.0","a5qt1fjv","1920","1080","","","","","","","","","","","null","+","Fixation - short","","null","","","","","","","","","","","","","","","","",""
"","html-keyboard-response","321","371407","0.0-501.0","a5qt1fjv","","","","","","","","","","","","","711","aor","Diagnostic trial","","j","","7","3","5","false","false","true","both pre & post","RIGHT","RIGHT","j","1","true","","","",""
"","html-keyboard-response","322","372160","0.0-504.0","a5qt1fjv","1920","1080","","","","","","","","","","","null","+","Fixation - short","","null","","","","","","","","","","","","","","","","",""
"","html-keyboard-response","323","373272","0.0-505.0","a5qt1fjv","","","","","","","","","","","","","1112","bms","Diagnostic trial","","j","","7","4","5","false","false","true","both pre & post","LEFT","RIGHT","j","1","false","","","",""
"","html-keyboard-response","324","374032","0.0-508.0","a5qt1fjv","1920","1080","","","","","","","","","","","null","+","Fixation - short","","null","","","","","","","","","","","","","","","","",""
"","canvas-keyboard-response","325","375284","0.0-509.0","a5qt1fjv","","","","","","","","","","","","","null","Cue","Cue","","null","","7","4","","","false","","","","","","","","","","",""
"","html-keyboard-response","326","376047","0.0-510.0","a5qt1fjv","1920","1080","","","","","","","","","","","null","+","Fixation - short","","null","","","","","","","","","","","","","","","","",""
"","html-keyboard-response","327","376715","0.0-511.0","a5qt1fjv","","","","","","","","","","","","","667","aor","Diagnostic trial","","j","","7","5","5","true","false","true","both pre & post","RIGHT","RIGHT","j","1","true","","","",""
"","html-keyboard-response","328","377478","0.0-514.0","a5qt1fjv","1920","1080","","","","","","","","","","","null","+","Fixation - short","","null","","","","","","","","","","","","","","","","",""
"","html-keyboard-response","329","378259","0.0-515.0","a5qt1fjv","","","","","","","","","","","","","781","aor","Inducer trial","","f","","7","","","","true","","","","","j","0","","false","RIGHT","",""
"","call-function","330","378259","0.0-517.0-0.0","a5qt1fjv","","","","","","","","","","","","","","","","","","","","","","","","","","","","","","","","","",""
"","html-keyboard-response","331","378563","0.0-517.0-1.0","a5qt1fjv","1920","1080","","","","","","","","","","","null","Wrong","Feedback","","null","","","","","","","","","","","","","","","","",""
"","call-function","332","378563","0.0-517.0-2.0","a5qt1fjv","","","","","","","","","","","","","","","","","","","","","","","","","","","","","","","","","",""
"","html-keyboard-response","333","379327","0.0-518.0","a5qt1fjv","1920","1080","","","","","","","","","","","null","+","Fixation - short","","null","","","","","","","","","","","","","","","","",""
"","html-keyboard-response","334","380372","0.0-519.0","a5qt1fjv","","","","","","","","","","","","","1045","If cnl press RIGHT | If mmo press LEFT","Inducer instructions",""," ","","8","","","","","","","","","","","","","","",""
"","html-keyboard-response","335","381126","0.0-520.0","a5qt1fjv","1920","1080","","","","","","","","","","","null","+","Fixation - short","","null","","","","","","","","","","","","","","","","",""
"","html-keyboard-response","336","381783","0.0-521.0","a5qt1fjv","","","","","","","","","","","","","656","cnl","Diagnostic trial","","f","","8","0","10","false","false","false","both pre & post","RIGHT","LEFT","f","1","false","","","",""
"","html-keyboard-response","337","382540","0.0-524.0","a5qt1fjv","1920","1080","","","","","","","","","","","null","+","Fixation - short","","null","","","","","","","","","","","","","","","","",""
"","html-keyboard-response","338","383172","0.0-525.0","a5qt1fjv","","","","","","","","","","","","","632","cnl","Diagnostic trial","","f","","8","1","10","false","false","false","both pre & post","RIGHT","LEFT","f","1","false","","","",""
"","html-keyboard-response","339","383925","0.0-528.0","a5qt1fjv","1920","1080","","","","","","","","","","","null","+","Fixation - short","","null","","","","","","","","","","","","","","","","",""
"","html-keyboard-response","340","384777","0.0-529.0","a5qt1fjv","","","","","","","","","","","","","852","mmo","Diagnostic trial","","j","","8","2","10","false","false","true","both pre & post","LEFT","RIGHT","j","1","false","","","",""
"","html-keyboard-response","341","385535","0.0-532.0","a5qt1fjv","1920","1080","","","","","","","","","","","null","+","Fixation - short","","null","","","","","","","","","","","","","","","","",""
"","html-keyboard-response","342","386185","0.0-533.0","a5qt1fjv","","","","","","","","","","","","","650","cnl","Diagnostic trial","","f","","8","3","10","false","false","false","both pre & post","RIGHT","LEFT","f","1","false","","","",""
"","html-keyboard-response","343","386949","0.0-536.0","a5qt1fjv","1920","1080","","","","","","","","","","","null","+","Fixation - short","","null","","","","","","","","","","","","","","","","",""
"","html-keyboard-response","344","387640","0.0-537.0","a5qt1fjv","","","","","","","","","","","","","691","cnl","Diagnostic trial","","f","","8","4","10","false","false","false","both pre & post","RIGHT","LEFT","f","1","false","","","",""
"","html-keyboard-response","345","388394","0.0-540.0","a5qt1fjv","1920","1080","","","","","","","","","","","null","+","Fixation - short","","null","","","","","","","","","","","","","","","","",""
"","html-keyboard-response","346","389398","0.0-541.0","a5qt1fjv","","","","","","","","","","","","","1004","mmo","Diagnostic trial","","j","","8","5","10","false","false","true","both pre & post","LEFT","RIGHT","j","1","false","","","",""
"","html-keyboard-response","347","390162","0.0-544.0","a5qt1fjv","1920","1080","","","","","","","","","","","null","+","Fixation - short","","null","","","","","","","","","","","","","","","","",""
"","html-keyboard-response","348","390670","0.0-545.0","a5qt1fjv","","","","","","","","","","","","","508","cnl","Diagnostic trial","","f","","8","6","10","false","false","false","both pre & post","RIGHT","LEFT","f","1","false","","","",""
"","html-keyboard-response","349","391421","0.0-548.0","a5qt1fjv","1920","1080","","","","","","","","","","","null","+","Fixation - short","","null","","","","","","","","","","","","","","","","",""
"","html-keyboard-response","350","393427","0.0-549.0","a5qt1fjv","","","","","","","","","","","","","null","cnl","Diagnostic trial","","null","","8","7","10","false","false","true","both pre & post","RIGHT","RIGHT","j","NaN","true","","","",""
"","call-function","351","393427","0.0-550.0-0.0","a5qt1fjv","","","","","","","","","","","","","","","","","","","","","","","","","","","","","","","","","",""
"","html-keyboard-response","352","393729","0.0-550.0-1.0","a5qt1fjv","1920","1080","","","","","","","","","","","null","Slow","Feedback","","null","","","","","","","","","","","","","","","","",""
"","call-function","353","393729","0.0-550.0-2.0","a5qt1fjv","","","","","","","","","","","","","","","","","","","","","","","","","","","","","","","","","",""
"","html-keyboard-response","354","394492","0.0-552.0","a5qt1fjv","1920","1080","","","","","","","","","","","null","+","Fixation - short","","null","","","","","","","","","","","","","","","","",""
"","html-keyboard-response","355","395218","0.0-553.0","a5qt1fjv","","","","","","","","","","","","","726","mmo","Diagnostic trial","","j","","8","8","10","false","false","true","both pre & post","LEFT","RIGHT","j","1","false","","","",""
"","html-keyboard-response","356","395975","0.0-556.0","a5qt1fjv","1920","1080","","","","","","","","","","","null","+","Fixation - short","","null","","","","","","","","","","","","","","","","",""
"","html-keyboard-response","357","396702","0.0-557.0","a5qt1fjv","","","","","","","","","","","","","727","cnl","Diagnostic trial","","j","","8","9","10","false","false","true","both pre & post","RIGHT","RIGHT","j","1","true","","","",""
"","html-keyboard-response","358","397460","0.0-560.0","a5qt1fjv","1920","1080","","","","","","","","","","","null","+","Fixation - short","","null","","","","","","","","","","","","","","","","",""
"","canvas-keyboard-response","359","398712","0.0-561.0","a5qt1fjv","","","","","","","","","","","","","null","Cue","Cue","","null","","8","9","","","false","","","","","","","","","","",""
"","html-keyboard-response","360","399478","0.0-562.0","a5qt1fjv","1920","1080","","","","","","","","","","","null","+","Fixation - short","","null","","","","","","","","","","","","","","","","",""
"","html-keyboard-response","361","400033","0.0-563.0","a5qt1fjv","","","","","","","","","","","","","555","cnl","Diagnostic trial","","f","","8","10","10","true","false","false","both pre & post","RIGHT","LEFT","f","1","false","","","",""
"","html-keyboard-response","362","400799","0.0-566.0","a5qt1fjv","1920","1080","","","","","","","","","","","null","+","Fixation - short","","null","","","","","","","","","","","","","","","","",""
"","html-keyboard-response","363","401702","0.0-567.0","a5qt1fjv","","","","","","","","","","","","","903","cnl","Inducer trial","","j","","8","","","","true","","","","","j","1","","false","RIGHT","",""
"","html-keyboard-response","364","402460","0.0-570.0","a5qt1fjv","1920","1080","","","","","","","","","","","null","+","Fixation - short","","null","","","","","","","","","","","","","","","","",""
"","html-keyboard-response","365","404578","0.0-571.0","a5qt1fjv","","","","","","","","","","","","","2117","If xlv press RIGHT | If cpt press LEFT","Inducer instructions",""," ","","9","","","","","","","","","","","","","","",""
"","html-keyboard-response","366","405336","0.0-572.0","a5qt1fjv","1920","1080","","","","","","","","","","","null","+","Fixation - short","","null","","","","","","","","","","","","","","","","",""
"","html-keyboard-response","367","406039","0.0-573.0","a5qt1fjv","","","","","","","","","","","","","703","xlv","Diagnostic trial","","f","","9","0","7","false","false","false","both pre & post","RIGHT","LEFT","f","1","false","","","",""
"","html-keyboard-response","368","406789","0.0-576.0","a5qt1fjv","1920","1080","","","","","","","","","","","null","+","Fixation - short","","null","","","","","","","","","","","","","","","","",""
"","html-keyboard-response","369","407168","0.0-577.0","a5qt1fjv","","","","","","","","","","","","","379","xlv","Diagnostic trial","","j","","9","1","7","false","false","true","both pre & post","RIGHT","RIGHT","j","1","true","","","",""
"","html-keyboard-response","370","407919","0.0-580.0","a5qt1fjv","1920","1080","","","","","","","","","","","null","+","Fixation - short","","null","","","","","","","","","","","","","","","","",""
"","html-keyboard-response","371","408493","0.0-581.0","a5qt1fjv","","","","","","","","","","","","","574","xlv","Diagnostic trial","","j","","9","2","7","false","false","true","both pre & post","RIGHT","RIGHT","j","1","true","","","",""
"","html-keyboard-response","372","409244","0.0-584.0","a5qt1fjv","1920","1080","","","","","","","","","","","null","+","Fixation - short","","null","","","","","","","","","","","","","","","","",""
"","html-keyboard-response","373","410151","0.0-585.0","a5qt1fjv","","","","","","","","","","","","","906","cpt","Diagnostic trial","","j","","9","3","7","false","false","true","both pre & post","LEFT","RIGHT","j","1","false","","","",""
"","html-keyboard-response","374","410907","0.0-588.0","a5qt1fjv","1920","1080","","","","","","","","","","","null","+","Fixation - short","","null","","","","","","","","","","","","","","","","",""
"","html-keyboard-response","375","411780","0.0-589.0","a5qt1fjv","","","","","","","","","","","","","872","xlv","Diagnostic trial","","f","","9","4","7","false","false","false","both pre & post","RIGHT","LEFT","f","1","false","","","",""
"","html-keyboard-response","376","412544","0.0-592.0","a5qt1fjv","1920","1080","","","","","","","","","","","null","+","Fixation - short","","null","","","","","","","","","","","","","","","","",""
"","html-keyboard-response","377","413078","0.0-593.0","a5qt1fjv","","","","","","","","","","","","","533","cpt","Diagnostic trial","","j","","9","5","7","false","false","true","both pre & post","LEFT","RIGHT","j","1","false","","","",""
"","html-keyboard-response","378","413834","0.0-596.0","a5qt1fjv","1920","1080","","","","","","","","","","","null","+","Fixation - short","","null","","","","","","","","","","","","","","","","",""
"","html-keyboard-response","379","414644","0.0-597.0","a5qt1fjv","","","","","","","","","","","","","810","xlv","Diagnostic trial","","j","","9","6","7","false","false","true","both pre & post","RIGHT","RIGHT","j","1","true","","","",""
"","html-keyboard-response","380","415397","0.0-600.0","a5qt1fjv","1920","1080","","","","","","","","","","","null","+","Fixation - short","","null","","","","","","","","","","","","","","","","",""
"","canvas-keyboard-response","381","416657","0.0-601.0","a5qt1fjv","","","","","","","","","","","","","null","Cue","Cue","","null","","9","6","","","false","","","","","","","","","","",""
"","html-keyboard-response","382","417423","0.0-602.0","a5qt1fjv","1920","1080","","","","","","","","","","","null","+","Fixation - short","","null","","","","","","","","","","","","","","","","",""
"","html-keyboard-response","383","417993","0.0-603.0","a5qt1fjv","","","","","","","","","","","","","569","cpt","Diagnostic trial","","j","","9","7","7","true","false","true","both pre & post","LEFT","RIGHT","j","1","false","","","",""
"","html-keyboard-response","384","418757","0.0-606.0","a5qt1fjv","1920","1080","","","","","","","","","","","null","+","Fixation - short","","null","","","","","","","","","","","","","","","","",""
"","html-keyboard-response","385","419397","0.0-607.0","a5qt1fjv","","","","","","","","","","","","","639","cpt","Diagnostic trial","","f","","9","8","7","true","false","false","both pre & post","LEFT","LEFT","f","1","true","","","",""
"","html-keyboard-response","386","420161","0.0-610.0","a5qt1fjv","1920","1080","","","","","","","","","","","null","+","Fixation - short","","null","","","","","","","","","","","","","","","","",""
"","html-keyboard-response","387","420930","0.0-611.0","a5qt1fjv","","","","","","","","","","","","","768","xlv","Diagnostic trial","","f","","9","9","7","true","false","false","both pre & post","RIGHT","LEFT","f","1","false","","","",""
"","html-keyboard-response","388","421694","0.0-614.0","a5qt1fjv","1920","1080","","","","","","","","","","","null","+","Fixation - short","","null","","","","","","","","","","","","","","","","",""
"","html-keyboard-response","389","422572","0.0-615.0","a5qt1fjv","","","","","","","","","","","","","878","xlv","Diagnostic trial","","f","","9","10","7","true","false","false","both pre & post","RIGHT","LEFT","f","1","false","","","",""
"","html-keyboard-response","390","423322","0.0-618.0","a5qt1fjv","1920","1080","","","","","","","","","","","null","+","Fixation - short","","null","","","","","","","","","","","","","","","","",""
"","html-keyboard-response","391","424262","0.0-619.0","a5qt1fjv","","","","","","","","","","","","","940","xlv","Inducer trial","","j","","9","","","","true","","","","","j","1","","false","RIGHT","",""
"","html-keyboard-response","392","425024","0.0-622.0","a5qt1fjv","1920","1080","","","","","","","","","","","null","+","Fixation - short","","null","","","","","","","","","","","","","","","","",""
"","html-keyboard-response","393","425631","0.0-623.0","a5qt1fjv","","","","","","","","","","","","","606","If dnc press RIGHT | If mts press LEFT","Inducer instructions",""," ","","10","","","","","","","","","","","","","","",""
"","html-keyboard-response","394","426394","0.0-624.0","a5qt1fjv","1920","1080","","","","","","","","","","","null","+","Fixation - short","","null","","","","","","","","","","","","","","","","",""
"","html-keyboard-response","395","427124","0.0-625.0","a5qt1fjv","","","","","","","","","","","","","729","mts","Diagnostic trial","","f","","10","0","12","false","false","false","both pre & post","LEFT","LEFT","f","1","true","","","",""
"","html-keyboard-response","396","427887","0.0-628.0","a5qt1fjv","1920","1080","","","","","","","","","","","null","+","Fixation - short","","null","","","","","","","","","","","","","","","","",""
"","html-keyboard-response","397","428464","0.0-629.0","a5qt1fjv","","","","","","","","","","","","","576","dnc","Diagnostic trial","","j","","10","1","12","false","false","true","both pre & post","RIGHT","RIGHT","j","1","true","","","",""
"","html-keyboard-response","398","429226","0.0-632.0","a5qt1fjv","1920","1080","","","","","","","","","","","null","+","Fixation - short","","null","","","","","","","","","","","","","","","","",""
"","html-keyboard-response","399","429649","0.0-633.0","a5qt1fjv","","","","","","","","","","","","","422","mts","Diagnostic trial","","j","","10","2","12","false","false","true","both pre & post","LEFT","RIGHT","j","1","false","","","",""
"","html-keyboard-response","400","430403","0.0-636.0","a5qt1fjv","1920","1080","","","","","","","","","","","null","+","Fixation - short","","null","","","","","","","","","","","","","","","","",""
"","html-keyboard-response","401","430792","0.0-637.0","a5qt1fjv","","","","","","","","","","","","","388","mts","Diagnostic trial","","j","","10","3","12","false","false","true","both pre & post","LEFT","RIGHT","j","1","false","","","",""
"","html-keyboard-response","402","431549","0.0-640.0","a5qt1fjv","1920","1080","","","","","","","","","","","null","+","Fixation - short","","null","","","","","","","","","","","","","","","","",""
"","html-keyboard-response","403","431992","0.0-641.0","a5qt1fjv","","","","","","","","","","","","","443","dnc","Diagnostic trial","","f","","10","4","12","false","false","false","both pre & post","RIGHT","LEFT","f","1","false","","","",""
"","html-keyboard-response","404","432745","0.0-644.0","a5qt1fjv","1920","1080","","","","","","","","","","","null","+","Fixation - short","","null","","","","","","","","","","","","","","","","",""
"","html-keyboard-response","405","433666","0.0-645.0","a5qt1fjv","","","","","","","","","","","","","921","mts","Diagnostic trial","","f","","10","5","12","false","false","false","both pre & post","LEFT","LEFT","f","1","true","","","",""
"","html-keyboard-response","406","434432","0.0-648.0","a5qt1fjv","1920","1080","","","","","","","","","","","null","+","Fixation - short","","null","","","","","","","","","","","","","","","","",""
"","html-keyboard-response","407","435115","0.0-649.0","a5qt1fjv","","","","","","","","","","","","","682","dnc","Diagnostic trial","","f","","10","6","12","false","false","false","both pre & post","RIGHT","LEFT","f","1","false","","","",""
"","html-keyboard-response","408","435865","0.0-652.0","a5qt1fjv","1920","1080","","","","","","","","","","","null","+","Fixation - short","","null","","","","","","","","","","","","","","","","",""
"","html-keyboard-response","409","436611","0.0-653.0","a5qt1fjv","","","","","","","","","","","","","745","dnc","Diagnostic trial","","f","","10","7","12","false","false","false","both pre & post","RIGHT","LEFT","f","1","false","","","",""
"","html-keyboard-response","410","437365","0.0-656.0","a5qt1fjv","1920","1080","","","","","","","","","","","null","+","Fixation - short","","null","","","","","","","","","","","","","","","","",""
"","html-keyboard-response","411","438034","0.0-657.0","a5qt1fjv","","","","","","","","","","","","","668","dnc","Diagnostic trial","","f","","10","8","12","false","false","false","both pre & post","RIGHT","LEFT","f","1","false","","","",""
"","html-keyboard-response","412","438798","0.0-660.0","a5qt1fjv","1920","1080","","","","","","","","","","","null","+","Fixation - short","","null","","","","","","","","","","","","","","","","",""
"","html-keyboard-response","413","439482","0.0-661.0","a5qt1fjv","","","","","","","","","","","","","683","mts","Diagnostic trial","","f","","10","9","12","false","false","false","both pre & post","LEFT","LEFT","f","1","true","","","",""
"","html-keyboard-response","414","440246","0.0-664.0","a5qt1fjv","1920","1080","","","","","","","","","","","null","+","Fixation - short","","null","","","","","","","","","","","","","","","","",""
"","html-keyboard-response","415","440857","0.0-665.0","a5qt1fjv","","","","","","","","","","","","","610","mts","Diagnostic trial","","j","","10","10","12","false","false","true","both pre & post","LEFT","RIGHT","j","1","false","","","",""
"","html-keyboard-response","416","441609","0.0-668.0","a5qt1fjv","1920","1080","","","","","","","","","","","null","+","Fixation - short","","null","","","","","","","","","","","","","","","","",""
"","html-keyboard-response","417","442279","0.0-669.0","a5qt1fjv","","","","","","","","","","","","","670","mts","Diagnostic trial","","j","","10","11","12","false","false","true","both pre & post","LEFT","RIGHT","j","1","false","","","",""
"","html-keyboard-response","418","443042","0.0-672.0","a5qt1fjv","1920","1080","","","","","","","","","","","null","+","Fixation - short","","null","","","","","","","","","","","","","","","","",""
"","canvas-keyboard-response","419","444302","0.0-673.0","a5qt1fjv","","","","","","","","","","","","","null","Cue","Cue","","null","","10","11","","","false","","","","","","","","","","",""
"","html-keyboard-response","420","445054","0.0-674.0","a5qt1fjv","1920","1080","","","","","","","","","","","null","+","Fixation - short","","null","","","","","","","","","","","","","","","","",""
"","html-keyboard-response","421","446924","0.0-675.0","a5qt1fjv","","","","","","","","","","","","","1869","mts","Diagnostic trial","","j","","10","12","12","true","false","false","both pre & post","LEFT","LEFT","f","0","true","","","",""
"","call-function","422","446924","0.0-677.0-0.0","a5qt1fjv","","","","","","","","","","","","","","","","","","","","","","","","","","","","","","","","","",""
"","html-keyboard-response","423","447226","0.0-677.0-1.0","a5qt1fjv","1920","1080","","","","","","","","","","","null","Wrong","Feedback","","null","","","","","","","","","","","","","","","","",""
"","call-function","424","447226","0.0-677.0-2.0","a5qt1fjv","","","","","","","","","","","","","","","","","","","","","","","","","","","","","","","","","",""
"","html-keyboard-response","425","447992","0.0-678.0","a5qt1fjv","1920","1080","","","","","","","","","","","null","+","Fixation - short","","null","","","","","","","","","","","","","","","","",""
"","html-keyboard-response","426","449390","0.0-679.0","a5qt1fjv","","","","","","","","","","","","","1397","dnc","Inducer trial","","j","","10","","","","true","","","","","j","1","","false","RIGHT","",""
"","html-keyboard-response","427","450143","0.0-682.0","a5qt1fjv","1920","1080","","","","","","","","","","","null","+","Fixation - short","","null","","","","","","","","","","","","","","","","",""
"","html-keyboard-response","428","453258","0.0-683.0","a5qt1fjv","","","","","","","","","","","","","3115","If tgf press RIGHT | If guf press LEFT","Inducer instructions",""," ","","11","","","","","","","","","","","","","","",""
"","html-keyboard-response","429","454012","0.0-684.0","a5qt1fjv","1920","1080","","","","","","","","","","","null","+","Fixation - short","","null","","","","","","","","","","","","","","","","",""
"","html-keyboard-response","430","454387","0.0-685.0","a5qt1fjv","","","","","","","","","","","","","374","tgf","Diagnostic trial","","j","","11","0","9","false","false","true","both pre & post","RIGHT","RIGHT","j","1","true","","","",""
"","html-keyboard-response","431","455145","0.0-688.0","a5qt1fjv","1920","1080","","","","","","","","","","","null","+","Fixation - short","","null","","","","","","","","","","","","","","","","",""
"","html-keyboard-response","432","455643","0.0-689.0","a5qt1fjv","","","","","","","","","","","","","497","guf","Diagnostic trial","","j","","11","1","9","false","false","true","both pre & post","LEFT","RIGHT","j","1","false","","","",""
"","html-keyboard-response","433","456404","0.0-692.0","a5qt1fjv","1920","1080","","","","","","","","","","","null","+","Fixation - short","","null","","","","","","","","","","","","","","","","",""
"","html-keyboard-response","434","457038","0.0-693.0","a5qt1fjv","","","","","","","","","","","","","633","tgf","Diagnostic trial","","f","","11","2","9","false","false","false","both pre & post","RIGHT","LEFT","f","1","false","","","",""
"","html-keyboard-response","435","457793","0.0-696.0","a5qt1fjv","1920","1080","","","","","","","","","","","null","+","Fixation - short","","null","","","","","","","","","","","","","","","","",""
"","html-keyboard-response","436","458301","0.0-697.0","a5qt1fjv","","","","","","","","","","","","","508","guf","Diagnostic trial","","j","","11","3","9","false","false","true","both pre & post","LEFT","RIGHT","j","1","false","","","",""
"","html-keyboard-response","437","459054","0.0-700.0","a5qt1fjv","1920","1080","","","","","","","","","","","null","+","Fixation - short","","null","","","","","","","","","","","","","","","","",""
"","html-keyboard-response","438","459593","0.0-701.0","a5qt1fjv","","","","","","","","","","","","","538","guf","Diagnostic trial","","f","","11","4","9","false","false","false","both pre & post","LEFT","LEFT","f","1","true","","","",""
"","html-keyboard-response","439","460347","0.0-704.0","a5qt1fjv","1920","1080","","","","","","","","","","","null","+","Fixation - short","","null","","","","","","","","","","","","","","","","",""
"","html-keyboard-response","440","460959","0.0-705.0","a5qt1fjv","","","","","","","","","","","","","611","guf","Diagnostic trial","","j","","11","5","9","false","false","true","both pre & post","LEFT","RIGHT","j","1","false","","","",""
"","html-keyboard-response","441","461716","0.0-708.0","a5qt1fjv","1920","1080","","","","","","","","","","","null","+","Fixation - short","","null","","","","","","","","","","","","","","","","",""
"","html-keyboard-response","442","462097","0.0-709.0","a5qt1fjv","","","","","","","","","","","","","380","tgf","Diagnostic trial","","j","","11","6","9","false","false","true","both pre & post","RIGHT","RIGHT","j","1","true","","","",""
"","html-keyboard-response","443","462862","0.0-712.0","a5qt1fjv","1920","1080","","","","","","","","","","","null","+","Fixation - short","","null","","","","","","","","","","","","","","","","",""
"","html-keyboard-response","444","463416","0.0-713.0","a5qt1fjv","","","","","","","","","","","","","554","guf","Diagnostic trial","","f","","11","7","9","false","false","false","both pre & post","LEFT","LEFT","f","1","true","","","",""
"","html-keyboard-response","445","464170","0.0-716.0","a5qt1fjv","1920","1080","","","","","","","","","","","null","+","Fixation - short","","null","","","","","","","","","","","","","","","","",""
"","html-keyboard-response","446","464812","0.0-717.0","a5qt1fjv","","","","","","","","","","","","","641","tgf","Diagnostic trial","","f","","11","8","9","false","false","false","both pre & post","RIGHT","LEFT","f","1","false","","","",""
"","html-keyboard-response","447","465573","0.0-720.0","a5qt1fjv","1920","1080","","","","","","","","","","","null","+","Fixation - short","","null","","","","","","","","","","","","","","","","",""
"","canvas-keyboard-response","448","466824","0.0-721.0","a5qt1fjv","","","","","","","","","","","","","null","Cue","Cue","","null","","11","8","","","false","","","","","","","","","","",""
"","html-keyboard-response","449","467589","0.0-722.0","a5qt1fjv","1920","1080","","","","","","","","","","","null","+","Fixation - short","","null","","","","","","","","","","","","","","","","",""
"","html-keyboard-response","450","468233","0.0-723.0","a5qt1fjv","","","","","","","","","","","","","643","guf","Diagnostic trial","","f","","11","9","9","true","false","false","both pre & post","LEFT","LEFT","f","1","true","","","",""
"","html-keyboard-response","451","468990","0.0-726.0","a5qt1fjv","1920","1080","","","","","","","","","","","null","+","Fixation - short","","null","","","","","","","","","","","","","","","","",""
"","html-keyboard-response","452","469474","0.0-727.0","a5qt1fjv","","","","","","","","","","","","","483","tgf","Diagnostic trial","","j","","11","10","9","true","false","true","both pre & post","RIGHT","RIGHT","j","1","true","","","",""
"","html-keyboard-response","453","470237","0.0-730.0","a5qt1fjv","1920","1080","","","","","","","","","","","null","+","Fixation - short","","null","","","","","","","","","","","","","","","","",""
"","html-keyboard-response","454","470906","0.0-731.0","a5qt1fjv","","","","","","","","","","","","","668","guf","Diagnostic trial","","j","","11","11","9","true","false","true","both pre & post","LEFT","RIGHT","j","1","false","","","",""
"","html-keyboard-response","455","471667","0.0-734.0","a5qt1fjv","1920","1080","","","","","","","","","","","null","+","Fixation - short","","null","","","","","","","","","","","","","","","","",""
"","html-keyboard-response","456","472278","0.0-735.0","a5qt1fjv","","","","","","","","","","","","","610","tgf","Diagnostic trial","","j","","11","12","9","true","false","true","both pre & post","RIGHT","RIGHT","j","1","true","","","",""
"","html-keyboard-response","457","473039","0.0-738.0","a5qt1fjv","1920","1080","","","","","","","","","","","null","+","Fixation - short","","null","","","","","","","","","","","","","","","","",""
"","html-keyboard-response","458","474230","0.0-739.0","a5qt1fjv","","","","","","","","","","","","","1191","tgf","Inducer trial","","j","","11","","","","true","","","","","j","1","","false","RIGHT","",""
"","html-keyboard-response","459","474996","0.0-742.0","a5qt1fjv","1920","1080","","","","","","","","","","","null","+","Fixation - short","","null","","","","","","","","","","","","","","","","",""
"","html-keyboard-response","460","483828","0.0-743.0","a5qt1fjv","","","","","","","","","","","","","8832","If mda press RIGHT | If bwe press LEFT","Inducer instructions",""," ","","12","","","","","","","","","","","","","","",""
"","html-keyboard-response","461","484593","0.0-744.0","a5qt1fjv","1920","1080","","","","","","","","","","","null","+","Fixation - short","","null","","","","","","","","","","","","","","","","",""
