"value","trial_type","trial_index","time_elapsed","internal_node_id","id","width","height","webaudio","browser","browser_version","mobile","os","fullscreen","vsync_rate","webcam","microphone","view_history","rt","stimulus","trial_info","success","response","exp_parameters","inducer_run","diagnostic_run","cue_num","post_cue","inducer_trial","italic","forced_equal_run","correct_inducer_response_side","correct_diag_response_side","correct_response_key","correct_response","congruent","force_equal","correct_indu_response_side","accuracy","interactive"
"","call-function","0","3","0.0-0.0","mggwh2ro","","","","","","","","","","","","","","","","","","","","","","","","","","","","","","","","","",""
"","browser-check","1","1009","0.0-1.0","mggwh2ro","1205","541","true","chrome","122.0.0","false","Android OS","true","60.11","true","true","","","","","","","","","","","","","","","","","","","","","","",""
"","instructions","2","28983","0.0-2.0","mggwh2ro","","","","","","","","","","","","[{""page_index"":0,""viewing_time"":13696},{""page_index"":1,""viewing_time"":11632},{""page_index"":2,""viewing_time"":2643}]","27971","The experiment and consent","The experiment and consent","","","","","","","","","","","","","","","","","","",""
"","fullscreen","3","32895","0.0-3.0","mggwh2ro","","","","","","","","","","","","","2903","","Full screen","true","","","","","","","","","","","","","","","","","",""
"","instructions","4","58332","0.0-4.0","mggwh2ro","","","","","","","","","","","","[{""page_index"":0,""viewing_time"":18669},{""page_index"":1,""viewing_time"":6763}]","25433","Instructions","Basic overview explanation","","","","","","","","","","","","","","","","","","",""
"","html-keyboard-response","5","73451","0.0-5.0","mggwh2ro","","","","","","","","","","","","","13612","If italic press RIGHT | If upright press LEFT","Diagnostic instructions",""," ","{""debug"":false,""skip_instructions"":false,""skip_practice"":false,""save_local_data"":false,""studu_name"":""exp2"",""default_background_colour"":""#cccccc"",""wrong_response_colour"":""#d22d2d"",""instruction_delay"":20000,""trial_duration"":2000,""short_fixation"":750,""long_fixation"":1500,""wrong_response_delay"":300,""too_slow_delay"":300,""instruction_font_size"":""24px"",""general_font_size"":""42px"",""fixation_size"":""48px"",""allowed_responses"":[""f"",""j""],""cue_min_length"":0,""cue_max_length"":4,""tot_post_cue_len"":72,""cue_colour"":""yellow"",""cue_shape"":""Square"",""cue_size"":70,""cue_duration"":1250,""avg_number_of_cues"":3,""inducer_colour"":""red"",""number_of_inducers"":24,""pre_cue_italic_forced_equal"":true,""post_cue_italic_forced_equal"":true,""prac_diagnostic_rounds"":16,""prac_inducer_rounds"":6,""prac_cue_rounds"":16,""prac_post_cue_num"":3}","","","","","","","","","","","","","","","",""
"","html-keyboard-response","6","74206","0.0-6.0","mggwh2ro","1205","753","","","","","","","","","","","null","+","Fixation - short","","null","","","","","","","","","","","","","","","","",""
"","html-keyboard-response","7","75710","0.0-7.0","mggwh2ro","","","","","","","","","","","","","1502","drk","Diagnostic practice","","j","","Diagnostic practice","0","-84","true","false","true","prac equal","LEFT","RIGHT","j","1","false","","","",""
"","html-keyboard-response","8","76464","0.0-10.0","mggwh2ro","1205","753","","","","","","","","","","","null","+","Fixation - short","","null","","","","","","","","","","","","","","","","",""
"","html-keyboard-response","9","77107","0.0-11.0","mggwh2ro","","","","","","","","","","","","","641","gfm","Diagnostic practice","","f","","Diagnostic practice","1","-84","true","false","false","prac equal","RIGHT","LEFT","f","1","false","","","",""
"","html-keyboard-response","10","77859","0.0-14.0","mggwh2ro","1205","753","","","","","","","","","","","null","+","Fixation - short","","null","","","","","","","","","","","","","","","","",""
"","html-keyboard-response","11","78210","0.0-15.0","mggwh2ro","","","","","","","","","","","","","349","drk","Diagnostic practice","","j","","Diagnostic practice","2","-84","true","false","true","prac equal","LEFT","RIGHT","j","1","false","","","",""
"","html-keyboard-response","12","78963","0.0-18.0","mggwh2ro","1205","753","","","","","","","","","","","null","+","Fixation - short","","null","","","","","","","","","","","","","","","","",""
"","html-keyboard-response","13","79576","0.0-19.0","mggwh2ro","","","","","","","","","","","","","612","gfm","Diagnostic practice","","j","","Diagnostic practice","3","-84","true","false","true","prac equal","RIGHT","RIGHT","j","1","true","","","",""
"","html-keyboard-response","14","80329","0.0-22.0","mggwh2ro","1205","753","","","","","","","","","","","null","+","Fixation - short","","null","","","","","","","","","","","","","","","","",""
"","html-keyboard-response","15","80699","0.0-23.0","mggwh2ro","","","","","","","","","","","","","369","gfm","Diagnostic practice","","j","","Diagnostic practice","4","-84","true","false","false","prac equal","RIGHT","LEFT","f","0","false","","","",""
"","call-function","16","80701","0.0-25.0-0.0","mggwh2ro","","","","","","","","","","","","","","","","","","","","","","","","","","","","","","","","","",""
"","html-keyboard-response","17","81002","0.0-25.0-1.0","mggwh2ro","1205","753","","","","","","","","","","","null","Wrong","Feedback","","null","","","","","","","","","","","","","","","","",""
"","call-function","18","81003","0.0-25.0-2.0","mggwh2ro","","","","","","","","","","","","","","","","","","","","","","","","","","","","","","","","","",""
"","html-keyboard-response","19","81756","0.0-26.0","mggwh2ro","1205","753","","","","","","","","","","","null","+","Fixation - short","","null","","","","","","","","","","","","","","","","",""
"","html-keyboard-response","20","82608","0.0-27.0","mggwh2ro","","","","","","","","","","","","","851","drk","Diagnostic practice","","j","","Diagnostic practice","5","-84","true","false","false","prac equal","LEFT","LEFT","f","0","true","","","",""
"","call-function","21","82609","0.0-29.0-0.0","mggwh2ro","","","","","","","","","","","","","","","","","","","","","","","","","","","","","","","","","",""
"","html-keyboard-response","22","82911","0.0-29.0-1.0","mggwh2ro","1205","753","","","","","","","","","","","null","Wrong","Feedback","","null","","","","","","","","","","","","","","","","",""
"","call-function","23","82912","0.0-29.0-2.0","mggwh2ro","","","","","","","","","","","","","","","","","","","","","","","","","","","","","","","","","",""
"","html-keyboard-response","24","83666","0.0-30.0","mggwh2ro","1205","753","","","","","","","","","","","null","+","Fixation - short","","null","","","","","","","","","","","","","","","","",""
"","html-keyboard-response","25","84488","0.0-31.0","mggwh2ro","","","","","","","","","","","","","820","drk","Diagnostic practice","","j","","Diagnostic practice","6","-84","true","false","true","prac equal","LEFT","RIGHT","j","1","false","","","",""
"","html-keyboard-response","26","85242","0.0-34.0","mggwh2ro","1205","753","","","","","","","","","","","null","+","Fixation - short","","null","","","","","","","","","","","","","","","","",""
"","html-keyboard-response","27","85891","0.0-35.0","mggwh2ro","","","","","","","","","","","","","647","drk","Diagnostic practice","","f","","Diagnostic practice","7","-84","true","false","false","prac equal","LEFT","LEFT","f","1","true","","","",""
"","html-keyboard-response","28","86643","0.0-38.0","mggwh2ro","1205","753","","","","","","","","","","","null","+","Fixation - short","","null","","","","","","","","","","","","","","","","",""
"","html-keyboard-response","29","87465","0.0-39.0","mggwh2ro","","","","","","","","","","","","","819","drk","Diagnostic practice","","j","","Diagnostic practice","8","-84","true","false","true","prac equal","LEFT","RIGHT","j","1","false","","","",""
"","html-keyboard-response","30","88217","0.0-42.0","mggwh2ro","1205","753","","","","","","","","","","","null","+","Fixation - short","","null","","","","","","","","","","","","","","","","",""
"","html-keyboard-response","31","88875","0.0-43.0","mggwh2ro","","","","","","","","","","","","","655","drk","Diagnostic practice","","f","","Diagnostic practice","9","-84","true","false","false","prac equal","LEFT","LEFT","f","1","true","","","",""
"","html-keyboard-response","32","89628","0.0-46.0","mggwh2ro","1205","753","","","","","","","","","","","null","+","Fixation - short","","null","","","","","","","","","","","","","","","","",""
"","html-keyboard-response","33","90127","0.0-47.0","mggwh2ro","","","","","","","","","","","","","498","gfm","Diagnostic practice","","f","","Diagnostic practice","10","-84","true","false","false","prac equal","RIGHT","LEFT","f","1","false","","","",""
"","html-keyboard-response","34","90880","0.0-50.0","mggwh2ro","1205","753","","","","","","","","","","","null","+","Fixation - short","","null","","","","","","","","","","","","","","","","",""
"","html-keyboard-response","35","91351","0.0-51.0","mggwh2ro","","","","","","","","","","","","","469","drk","Diagnostic practice","","f","","Diagnostic practice","11","-84","true","false","false","prac equal","LEFT","LEFT","f","1","true","","","",""
"","html-keyboard-response","36","92103","0.0-54.0","mggwh2ro","1205","753","","","","","","","","","","","null","+","Fixation - short","","null","","","","","","","","","","","","","","","","",""
"","html-keyboard-response","37","92493","0.0-55.0","mggwh2ro","","","","","","","","","","","","","387","gfm","Diagnostic practice","","f","","Diagnostic practice","12","-84","true","false","false","prac equal","RIGHT","LEFT","f","1","false","","","",""
"","html-keyboard-response","38","93246","0.0-58.0","mggwh2ro","1205","753","","","","","","","","","","","null","+","Fixation - short","","null","","","","","","","","","","","","","","","","",""
"","html-keyboard-response","39","93651","0.0-59.0","mggwh2ro","","","","","","","","","","","","","404","drk","Diagnostic practice","","f","","Diagnostic practice","13","-84","true","false","true","prac equal","LEFT","RIGHT","j","0","false","","","",""
"","call-function","40","93652","0.0-61.0-0.0","mggwh2ro","","","","","","","","","","","","","","","","","","","","","","","","","","","","","","","","","",""
"","html-keyboard-response","41","93954","0.0-61.0-1.0","mggwh2ro","1205","753","","","","","","","","","","","null","Wrong","Feedback","","null","","","","","","","","","","","","","","","","",""
"","call-function","42","93955","0.0-61.0-2.0","mggwh2ro","","","","","","","","","","","","","","","","","","","","","","","","","","","","","","","","","",""
"","html-keyboard-response","43","94707","0.0-62.0","mggwh2ro","1205","753","","","","","","","","","","","null","+","Fixation - short","","null","","","","","","","","","","","","","","","","",""
"","html-keyboard-response","44","95221","0.0-63.0","mggwh2ro","","","","","","","","","","","","","512","gfm","Diagnostic practice","","j","","Diagnostic practice","14","-84","true","false","true","prac equal","RIGHT","RIGHT","j","1","true","","","",""
"","html-keyboard-response","45","95973","0.0-66.0","mggwh2ro","1205","753","","","","","","","","","","","null","+","Fixation - short","","null","","","","","","","","","","","","","","","","",""
"","html-keyboard-response","46","96480","0.0-67.0","mggwh2ro","","","","","","","","","","","","","505","drk","Diagnostic practice","","j","","Diagnostic practice","15","-84","true","false","true","prac equal","LEFT","RIGHT","j","1","false","","","",""
"","html-keyboard-response","47","97233","0.0-70.0","mggwh2ro","1205","753","","","","","","","","","","","null","+","Fixation - short","","null","","","","","","","","","","","","","","","","",""
"","instructions","48","101109","0.0-71.0","mggwh2ro","","","","","","","","","","","","[{""page_index"":0,""viewing_time"":3873}]","3874","Instructions","Final experiment explanation","","","","","","","","","","","","","","","","","","",""
"","html-keyboard-response","49","109946","0.0-72.0","mggwh2ro","","","","","","","","","","","","","7334","If ufc press RIGHT | If tkb press LEFT","Inducer practice",""," ","","Practice","","","","","","","","","","","","","","",""
"","html-keyboard-response","50","110698","0.0-73.0","mggwh2ro","1205","753","","","","","","","","","","","null","+","Fixation - short","","null","","","","","","","","","","","","","","","","",""
"","html-keyboard-response","51","111417","0.0-74.0","mggwh2ro","","","","","","","","","","","","","717","tkb","Inducer practice","","f","","Practice","","","","true","","","","","f","1","","true","LEFT","",""
"","html-keyboard-response","52","112170","0.0-77.0","mggwh2ro","1205","753","","","","","","","","","","","null","+","Fixation - short","","null","","","","","","","","","","","","","","","","",""
"","html-keyboard-response","53","118001","0.0-78.0","mggwh2ro","","","","","","","","","","","","","5830","If ydi press RIGHT | If ori press LEFT","Inducer practice",""," ","","Practice","","","","","","","","","","","","","","",""
"","html-keyboard-response","54","118753","0.0-79.0","mggwh2ro","1205","753","","","","","","","","","","","null","+","Fixation - short","","null","","","","","","","","","","","","","","","","",""
"","html-keyboard-response","55","119446","0.0-80.0","mggwh2ro","","","","","","","","","","","","","691","ori","Inducer practice","","f","","Practice","","","","true","","","","","f","1","","true","LEFT","",""
"","html-keyboard-response","56","120198","0.0-83.0","mggwh2ro","1205","753","","","","","","","","","","","null","+","Fixation - short","","null","","","","","","","","","","","","","","","","",""
"","html-keyboard-response","57","123223","0.0-84.0","mggwh2ro","","","","","","","","","","","","","3023","If eht press RIGHT | If fja press LEFT","Inducer practice",""," ","","Practice","","","","","","","","","","","","","","",""
"","html-keyboard-response","58","123976","0.0-85.0","mggwh2ro","1205","753","","","","","","","","","","","null","+","Fixation - short","","null","","","","","","","","","","","","","","","","",""
"","html-keyboard-response","59","124840","0.0-86.0","mggwh2ro","","","","","","","","","","","","","862","eht","Inducer practice","","j","","Practice","","","","true","","","","","j","1","","true","RIGHT","",""
"","html-keyboard-response","60","125592","0.0-89.0","mggwh2ro","1205","753","","","","","","","","","","","null","+","Fixation - short","","null","","","","","","","","","","","","","","","","",""
"","html-keyboard-response","61","126820","0.0-90.0","mggwh2ro","","","","","","","","","","","","","1226","If adj press RIGHT | If swr press LEFT","Inducer practice",""," ","","Practice","","","","","","","","","","","","","","",""
"","html-keyboard-response","62","127573","0.0-91.0","mggwh2ro","1205","753","","","","","","","","","","","null","+","Fixation - short","","null","","","","","","","","","","","","","","","","",""
"","html-keyboard-response","63","128157","0.0-92.0","mggwh2ro","","","","","","","","","","","","","582","swr","Inducer practice","","f","","Practice","","","","true","","","","","f","1","","true","LEFT","",""
"","html-keyboard-response","64","128909","0.0-95.0","mggwh2ro","1205","753","","","","","","","","","","","null","+","Fixation - short","","null","","","","","","","","","","","","","","","","",""
"","html-keyboard-response","65","130902","0.0-96.0","mggwh2ro","","","","","","","","","","","","","1991","If jsf press RIGHT | If glp press LEFT","Inducer practice",""," ","","Practice","","","","","","","","","","","","","","",""
"","html-keyboard-response","66","131654","0.0-97.0","mggwh2ro","1205","753","","","","","","","","","","","null","+","Fixation - short","","null","","","","","","","","","","","","","","","","",""
"","html-keyboard-response","67","132271","0.0-98.0","mggwh2ro","","","","","","","","","","","","","614","jsf","Inducer practice","","j","","Practice","","","","true","","","","","j","1","","true","RIGHT","",""
"","html-keyboard-response","68","133024","0.0-101.0","mggwh2ro","1205","753","","","","","","","","","","","null","+","Fixation - short","","null","","","","","","","","","","","","","","","","",""
"","html-keyboard-response","69","135089","0.0-102.0","mggwh2ro","","","","","","","","","","","","","2063","If yna press RIGHT | If hrc press LEFT","Inducer practice",""," ","","Practice","","","","","","","","","","","","","","",""
"","html-keyboard-response","70","135841","0.0-103.0","mggwh2ro","1205","753","","","","","","","","","","","null","+","Fixation - short","","null","","","","","","","","","","","","","","","","",""
"","html-keyboard-response","71","136351","0.0-104.0","mggwh2ro","","","","","","","","","","","","","509","yna","Inducer practice","","j","","Practice","","","","true","","","","","j","1","","true","RIGHT","",""
"","html-keyboard-response","72","137103","0.0-107.0","mggwh2ro","1205","753","","","","","","","","","","","null","+","Fixation - short","","null","","","","","","","","","","","","","","","","",""
"","instructions","73","154951","0.0-108.0","mggwh2ro","","","","","","","","","","","","[{""page_index"":0,""viewing_time"":17846}]","17846","Instructions","Final experiment explanation","","","","","","","","","","","","","","","","","","",""
"","html-keyboard-response","74","158523","0.0-109.0","mggwh2ro","","","","","","","","","","","","","2068","If faq press RIGHT | If byy press LEFT","Cue practice",""," ","","Practice","","","","","","","","","","","","","","",""
"","html-keyboard-response","75","159274","0.0-110.0","mggwh2ro","1205","753","","","","","","","","","","","null","+","Fixation - short","","null","","","","","","","","","","","","","","","","",""
"","html-keyboard-response","76","159876","0.0-111.0","mggwh2ro","","","","","","","","","","","","","600","faq","Cue practice","","j","","Practice","0","13","false","false","false","both pre & post","RIGHT","LEFT","f","0","false","","","",""
"","call-function","77","159876","0.0-113.0-0.0","mggwh2ro","","","","","","","","","","","","","","","","","","","","","","","","","","","","","","","","","",""
"","html-keyboard-response","78","160179","0.0-113.0-1.0","mggwh2ro","1205","753","","","","","","","","","","","null","Wrong","Feedback","","null","","","","","","","","","","","","","","","","",""
"","call-function","79","160180","0.0-113.0-2.0","mggwh2ro","","","","","","","","","","","","","","","","","","","","","","","","","","","","","","","","","",""
"","html-keyboard-response","80","160934","0.0-114.0","mggwh2ro","1205","753","","","","","","","","","","","null","+","Fixation - short","","null","","","","","","","","","","","","","","","","",""
"","html-keyboard-response","81","161970","0.0-115.0","mggwh2ro","","","","","","","","","","","","","1035","faq","Cue practice","","f","","Practice","1","13","false","false","false","both pre & post","RIGHT","LEFT","f","1","false","","","",""
"","html-keyboard-response","82","162723","0.0-118.0","mggwh2ro","1205","753","","","","","","","","","","","null","+","Fixation - short","","null","","","","","","","","","","","","","","","","",""
"","html-keyboard-response","83","164135","0.0-119.0","mggwh2ro","","","","","","","","","","","","","1411","byy","Cue practice","","f","","Practice","2","13","false","false","true","both pre & post","LEFT","RIGHT","j","0","false","","","",""
"","call-function","84","164135","0.0-121.0-0.0","mggwh2ro","","","","","","","","","","","","","","","","","","","","","","","","","","","","","","","","","",""
"","html-keyboard-response","85","164438","0.0-121.0-1.0","mggwh2ro","1205","753","","","","","","","","","","","null","Wrong","Feedback","","null","","","","","","","","","","","","","","","","",""
"","call-function","86","164439","0.0-121.0-2.0","mggwh2ro","","","","","","","","","","","","","","","","","","","","","","","","","","","","","","","","","",""
"","html-keyboard-response","87","165192","0.0-122.0","mggwh2ro","1205","753","","","","","","","","","","","null","+","Fixation - short","","null","","","","","","","","","","","","","","","","",""
"","html-keyboard-response","88","166045","0.0-123.0","mggwh2ro","","","","","","","","","","","","","852","faq","Cue practice","","f","","Practice","3","13","false","false","false","both pre & post","RIGHT","LEFT","f","1","false","","","",""
"","html-keyboard-response","89","166797","0.0-126.0","mggwh2ro","1205","753","","","","","","","","","","","null","+","Fixation - short","","null","","","","","","","","","","","","","","","","",""
"","html-keyboard-response","90","167583","0.0-127.0","mggwh2ro","","","","","","","","","","","","","784","byy","Cue practice","","j","","Practice","4","13","false","false","false","both pre & post","LEFT","LEFT","f","0","true","","","",""
"","call-function","91","167583","0.0-129.0-0.0","mggwh2ro","","","","","","","","","","","","","","","","","","","","","","","","","","","","","","","","","",""
"","html-keyboard-response","92","167884","0.0-129.0-1.0","mggwh2ro","1205","753","","","","","","","","","","","null","Wrong","Feedback","","null","","","","","","","","","","","","","","","","",""
"","call-function","93","167885","0.0-129.0-2.0","mggwh2ro","","","","","","","","","","","","","","","","","","","","","","","","","","","","","","","","","",""
"","html-keyboard-response","94","168638","0.0-130.0","mggwh2ro","1205","753","","","","","","","","","","","null","+","Fixation - short","","null","","","","","","","","","","","","","","","","",""
"","html-keyboard-response","95","169442","0.0-131.0","mggwh2ro","","","","","","","","","","","","","802","faq","Cue practice","","f","","Practice","5","13","false","false","false","both pre & post","RIGHT","LEFT","f","1","false","","","",""
"","html-keyboard-response","96","170195","0.0-134.0","mggwh2ro","1205","753","","","","","","","","","","","null","+","Fixation - short","","null","","","","","","","","","","","","","","","","",""
"","html-keyboard-response","97","170969","0.0-135.0","mggwh2ro","","","","","","","","","","","","","773","faq","Cue practice","","f","","Practice","6","13","false","false","false","both pre & post","RIGHT","LEFT","f","1","false","","","",""
"","html-keyboard-response","98","171722","0.0-138.0","mggwh2ro","1205","753","","","","","","","","","","","null","+","Fixation - short","","null","","","","","","","","","","","","","","","","",""
"","html-keyboard-response","99","173980","0.0-139.0","mggwh2ro","","","","","","","","","","","","","2257","byy","Cue practice","","j","","Practice","7","13","false","false","true","both pre & post","LEFT","RIGHT","j","1","false","","","",""
"","html-keyboard-response","100","174733","0.0-142.0","mggwh2ro","1205","753","","","","","","","","","","","null","+","Fixation - short","","null","","","","","","","","","","","","","","","","",""
"","html-keyboard-response","101","175564","0.0-143.0","mggwh2ro","","","","","","","","","","","","","830","byy","Cue practice","","j","","Practice","8","13","false","false","true","both pre & post","LEFT","RIGHT","j","1","false","","","",""
"","html-keyboard-response","102","176318","0.0-146.0","mggwh2ro","1205","753","","","","","","","","","","","null","+","Fixation - short","","null","","","","","","","","","","","","","","","","",""
"","html-keyboard-response","103","176845","0.0-147.0","mggwh2ro","","","","","","","","","","","","","526","byy","Cue practice","","j","","Practice","9","13","false","false","true","both pre & post","LEFT","RIGHT","j","1","false","","","",""
"","html-keyboard-response","104","177596","0.0-150.0","mggwh2ro","1205","753","","","","","","","","","","","null","+","Fixation - short","","null","","","","","","","","","","","","","","","","",""
"","html-keyboard-response","105","178207","0.0-151.0","mggwh2ro","","","","","","","","","","","","","610","byy","Cue practice","","j","","Practice","10","13","false","false","true","both pre & post","LEFT","RIGHT","j","1","false","","","",""
"","html-keyboard-response","106","178960","0.0-154.0","mggwh2ro","1205","753","","","","","","","","","","","null","+","Fixation - short","","null","","","","","","","","","","","","","","","","",""
"","html-keyboard-response","107","179643","0.0-155.0","mggwh2ro","","","","","","","","","","","","","682","faq","Cue practice","","f","","Practice","11","13","false","false","true","both pre & post","RIGHT","RIGHT","j","0","true","","","",""
"","call-function","108","179644","0.0-157.0-0.0","mggwh2ro","","","","","","","","","","","","","","","","","","","","","","","","","","","","","","","","","",""
"","html-keyboard-response","109","179947","0.0-157.0-1.0","mggwh2ro","1205","753","","","","","","","","","","","null","Wrong","Feedback","","null","","","","","","","","","","","","","","","","",""
"","call-function","110","179948","0.0-157.0-2.0","mggwh2ro","","","","","","","","","","","","","","","","","","","","","","","","","","","","","","","","","",""
"","html-keyboard-response","111","180701","0.0-158.0","mggwh2ro","1205","753","","","","","","","","","","","null","+","Fixation - short","","null","","","","","","","","","","","","","","","","",""
"","html-keyboard-response","112","181724","0.0-159.0","mggwh2ro","","","","","","","","","","","","","1022","faq","Cue practice","","j","","Practice","12","13","false","false","true","both pre & post","RIGHT","RIGHT","j","1","true","","","",""
"","html-keyboard-response","113","182478","0.0-162.0","mggwh2ro","1205","753","","","","","","","","","","","null","+","Fixation - short","","null","","","","","","","","","","","","","","","","",""
"","canvas-keyboard-response","114","183738","0.0-163.0","mggwh2ro","","","","","","","","","","","","","null","Cue","Cue","","null","","Practice","12","","","false","","","","","","","","","","",""
"","html-keyboard-response","115","184491","0.0-164.0","mggwh2ro","1205","753","","","","","","","","","","","null","+","Fixation - short","","null","","","","","","","","","","","","","","","","",""
"","html-keyboard-response","116","185317","0.0-165.0","mggwh2ro","","","","","","","","","","","","","825","byy","Cue practice","","f","","Practice","13","13","true","false","false","both pre & post","LEFT","LEFT","f","1","true","","","",""
"","html-keyboard-response","117","186068","0.0-168.0","mggwh2ro","1205","753","","","","","","","","","","","null","+","Fixation - short","","null","","","","","","","","","","","","","","","","",""
"","html-keyboard-response","118","186952","0.0-169.0","mggwh2ro","","","","","","","","","","","","","882","faq","Cue practice","","j","","Practice","14","13","true","false","true","both pre & post","RIGHT","RIGHT","j","1","true","","","",""
"","html-keyboard-response","119","187705","0.0-172.0","mggwh2ro","1205","753","","","","","","","","","","","null","+","Fixation - short","","null","","","","","","","","","","","","","","","","",""
"","html-keyboard-response","120","188311","0.0-173.0","mggwh2ro","","","","","","","","","","","","","604","faq","Cue practice","","j","","Practice","15","13","true","false","true","both pre & post","RIGHT","RIGHT","j","1","true","","","",""
"","html-keyboard-response","121","189063","0.0-176.0","mggwh2ro","1205","753","","","","","","","","","","","null","+","Fixation - short","","null","","","","","","","","","","","","","","","","",""
"","html-keyboard-response","122","189793","0.0-177.0","mggwh2ro","","","","","","","","","","","","","728","byy","Inducer practice","","f","","Practice","","","","true","","","","","f","1","","false","LEFT","",""
"","html-keyboard-response","123","190545","0.0-180.0","mggwh2ro","1205","753","","","","","","","","","","","null","+","Fixation - short","","null","","","","","","","","","","","","","","","","",""
"","instructions","124","195857","0.0-181.0","mggwh2ro","","","","","","","","","","","","[{""page_index"":0,""viewing_time"":5309}]","5310","End practice","End of practice","","","","","","","","","","","","","","","","","","",""
"","html-keyboard-response","125","198862","0.0-182.0","mggwh2ro","1205","753","","","","","","","","","","","null","+","Fixation - long","","null","","","","","","","","","","","","","","","","",""
"","html-keyboard-response","126","202970","0.0-183.0","mggwh2ro","","","","","","","","","","","","","4105","If ois press RIGHT | If vbt press LEFT","Inducer instructions",""," ","","0","","","","","","","","","","","","","","",""
"","html-keyboard-response","127","203723","0.0-184.0","mggwh2ro","1205","753","","","","","","","","","","","null","+","Fixation - short","","null","","","","","","","","","","","","","","","","",""
"","html-keyboard-response","128","204250","0.0-185.0","mggwh2ro","","","","","","","","","","","","","525","ois","Diagnostic trial","","j","","0","0","9","false","false","true","both pre & post","RIGHT","RIGHT","j","1","true","","","",""
"","html-keyboard-response","129","205004","0.0-188.0","mggwh2ro","1205","753","","","","","","","","","","","null","+","Fixation - short","","null","","","","","","","","","","","","","","","","",""
"","html-keyboard-response","130","205509","0.0-189.0","mggwh2ro","","","","","","","","","","","","","503","vbt","Diagnostic trial","","f","","0","1","9","false","false","true","both pre & post","LEFT","RIGHT","j","0","false","","","",""
"","call-function","131","205509","0.0-191.0-0.0","mggwh2ro","","","","","","","","","","","","","","","","","","","","","","","","","","","","","","","","","",""
"","html-keyboard-response","132","205812","0.0-191.0-1.0","mggwh2ro","1205","753","","","","","","","","","","","null","Wrong","Feedback","","null","","","","","","","","","","","","","","","","",""
"","call-function","133","205813","0.0-191.0-2.0","mggwh2ro","","","","","","","","","","","","","","","","","","","","","","","","","","","","","","","","","",""
"","html-keyboard-response","134","206566","0.0-192.0","mggwh2ro","1205","753","","","","","","","","","","","null","+","Fixation - short","","null","","","","","","","","","","","","","","","","",""
"","html-keyboard-response","135","207211","0.0-193.0","mggwh2ro","","","","","","","","","","","","","644","ois","Diagnostic trial","","j","","0","2","9","false","false","false","both pre & post","RIGHT","LEFT","f","0","false","","","",""
"","call-function","136","207212","0.0-195.0-0.0","mggwh2ro","","","","","","","","","","","","","","","","","","","","","","","","","","","","","","","","","",""
"","html-keyboard-response","137","207514","0.0-195.0-1.0","mggwh2ro","1205","753","","","","","","","","","","","null","Wrong","Feedback","","null","","","","","","","","","","","","","","","","",""
"","call-function","138","207515","0.0-195.0-2.0","mggwh2ro","","","","","","","","","","","","","","","","","","","","","","","","","","","","","","","","","",""
"","html-keyboard-response","139","208267","0.0-196.0","mggwh2ro","1205","753","","","","","","","","","","","null","+","Fixation - short","","null","","","","","","","","","","","","","","","","",""
"","html-keyboard-response","140","210270","0.0-197.0","mggwh2ro","","","","","","","","","","","","","null","vbt","Diagnostic trial","","null","","0","3","9","false","false","false","both pre & post","LEFT","LEFT","f","NaN","true","","","",""
"","call-function","141","210271","0.0-198.0-0.0","mggwh2ro","","","","","","","","","","","","","","","","","","","","","","","","","","","","","","","","","",""
"","html-keyboard-response","142","210574","0.0-198.0-1.0","mggwh2ro","1205","753","","","","","","","","","","","null","Slow","Feedback","","null","","","","","","","","","","","","","","","","",""
"","call-function","143","210576","0.0-198.0-2.0","mggwh2ro","","","","","","","","","","","","","","","","","","","","","","","","","","","","","","","","","",""
"","html-keyboard-response","144","211329","0.0-200.0","mggwh2ro","1205","753","","","","","","","","","","","null","+","Fixation - short","","null","","","","","","","","","","","","","","","","",""
"","html-keyboard-response","145","212253","0.0-201.0","mggwh2ro","","","","","","","","","","","","","922","vbt","Diagnostic trial","","j","","0","4","9","false","false","true","both pre & post","LEFT","RIGHT","j","1","false","","","",""
"","html-keyboard-response","146","213005","0.0-204.0","mggwh2ro","1205","753","","","","","","","","","","","null","+","Fixation - short","","null","","","","","","","","","","","","","","","","",""
"","html-keyboard-response","147","213841","0.0-205.0","mggwh2ro","","","","","","","","","","","","","835","vbt","Diagnostic trial","","f","","0","5","9","false","false","false","both pre & post","LEFT","LEFT","f","1","true","","","",""
"","html-keyboard-response","148","214595","0.0-208.0","mggwh2ro","1205","753","","","","","","","","","","","null","+","Fixation - short","","null","","","","","","","","","","","","","","","","",""
"","html-keyboard-response","149","215484","0.0-209.0","mggwh2ro","","","","","","","","","","","","","888","ois","Diagnostic trial","","j","","0","6","9","false","false","true","both pre & post","RIGHT","RIGHT","j","1","true","","","",""
"","html-keyboard-response","150","216236","0.0-212.0","mggwh2ro","1205","753","","","","","","","","","","","null","+","Fixation - short","","null","","","","","","","","","","","","","","","","",""
"","html-keyboard-response","151","216721","0.0-213.0","mggwh2ro","","","","","","","","","","","","","482","ois","Diagnostic trial","","j","","0","7","9","false","false","true","both pre & post","RIGHT","RIGHT","j","1","true","","","",""
"","html-keyboard-response","152","217473","0.0-216.0","mggwh2ro","1205","753","","","","","","","","","","","null","+","Fixation - short","","null","","","","","","","","","","","","","","","","",""
"","html-keyboard-response","153","217936","0.0-217.0","mggwh2ro","","","","","","","","","","","","","461","ois","Diagnostic trial","","j","","0","8","9","false","false","true","both pre & post","RIGHT","RIGHT","j","1","true","","","",""
"","html-keyboard-response","154","218689","0.0-220.0","mggwh2ro","1205","753","","","","","","","","","","","null","+","Fixation - short","","null","","","","","","","","","","","","","","","","",""
"","canvas-keyboard-response","155","219943","0.0-221.0","mggwh2ro","","","","","","","","","","","","","null","Cue","Cue","","null","","0","8","","","false","","","","","","","","","","",""
"","html-keyboard-response","156","220696","0.0-222.0","mggwh2ro","1205","753","","","","","","","","","","","null","+","Fixation - short","","null","","","","","","","","","","","","","","","","",""
"","html-keyboard-response","157","221797","0.0-223.0","mggwh2ro","","","","","","","","","","","","","1100","vbt","Inducer trial","","f","","0","","","","true","","","","","f","1","","false","LEFT","",""
"","html-keyboard-response","158","222550","0.0-226.0","mggwh2ro","1205","753","","","","","","","","","","","null","+","Fixation - short","","null","","","","","","","","","","","","","","","","",""
"","html-keyboard-response","159","226784","0.0-227.0","mggwh2ro","","","","","","","","","","","","","4232","If aor press RIGHT | If prg press LEFT","Inducer instructions",""," ","","1","","","","","","","","","","","","","","",""
"","html-keyboard-response","160","227536","0.0-228.0","mggwh2ro","1205","753","","","","","","","","","","","null","+","Fixation - short","","null","","","","","","","","","","","","","","","","",""
"","html-keyboard-response","161","228598","0.0-229.0","mggwh2ro","","","","","","","","","","","","","1061","prg","Diagnostic trial","","f","","1","0","5","false","false","false","both pre & post","LEFT","LEFT","f","1","true","","","",""
"","html-keyboard-response","162","229351","0.0-232.0","mggwh2ro","1205","753","","","","","","","","","","","null","+","Fixation - short","","null","","","","","","","","","","","","","","","","",""
"","html-keyboard-response","163","229913","0.0-233.0","mggwh2ro","","","","","","","","","","","","","561","aor","Diagnostic trial","","j","","1","1","5","false","false","true","both pre & post","RIGHT","RIGHT","j","1","true","","","",""
"","html-keyboard-response","164","230666","0.0-236.0","mggwh2ro","1205","753","","","","","","","","","","","null","+","Fixation - short","","null","","","","","","","","","","","","","","","","",""
"","html-keyboard-response","165","231369","0.0-237.0","mggwh2ro","","","","","","","","","","","","","700","prg","Diagnostic trial","","f","","1","2","5","false","false","false","both pre & post","LEFT","LEFT","f","1","true","","","",""
"","html-keyboard-response","166","232120","0.0-240.0","mggwh2ro","1205","753","","","","","","","","","","","null","+","Fixation - short","","null","","","","","","","","","","","","","","","","",""
"","html-keyboard-response","167","232535","0.0-241.0","mggwh2ro","","","","","","","","","","","","","413","prg","Diagnostic trial","","j","","1","3","5","false","false","true","both pre & post","LEFT","RIGHT","j","1","false","","","",""
"","html-keyboard-response","168","233289","0.0-244.0","mggwh2ro","1205","753","","","","","","","","","","","null","+","Fixation - short","","null","","","","","","","","","","","","","","","","",""
"","html-keyboard-response","169","233933","0.0-245.0","mggwh2ro","","","","","","","","","","","","","642","prg","Diagnostic trial","","f","","1","4","5","false","false","false","both pre & post","LEFT","LEFT","f","1","true","","","",""
"","html-keyboard-response","170","234686","0.0-248.0","mggwh2ro","1205","753","","","","","","","","","","","null","+","Fixation - short","","null","","","","","","","","","","","","","","","","",""
"","canvas-keyboard-response","171","235941","0.0-249.0","mggwh2ro","","","","","","","","","","","","","null","Cue","Cue","","null","","1","4","","","false","","","","","","","","","","",""
"","html-keyboard-response","172","236693","0.0-250.0","mggwh2ro","1205","753","","","","","","","","","","","null","+","Fixation - short","","null","","","","","","","","","","","","","","","","",""
"","html-keyboard-response","173","237676","0.0-251.0","mggwh2ro","","","","","","","","","","","","","980","prg","Diagnostic trial","","j","","1","5","5","true","false","true","both pre & post","LEFT","RIGHT","j","1","false","","","",""
"","html-keyboard-response","174","238428","0.0-254.0","mggwh2ro","1205","753","","","","","","","","","","","null","+","Fixation - short","","null","","","","","","","","","","","","","","","","",""
"","html-keyboard-response","175","239085","0.0-255.0","mggwh2ro","","","","","","","","","","","","","656","aor","Diagnostic trial","","j","","1","6","5","true","false","true","both pre & post","RIGHT","RIGHT","j","1","true","","","",""
"","html-keyboard-response","176","239839","0.0-258.0","mggwh2ro","1205","753","","","","","","","","","","","null","+","Fixation - short","","null","","","","","","","","","","","","","","","","",""
"","html-keyboard-response","177","240253","0.0-259.0","mggwh2ro","","","","","","","","","","","","","413","aor","Diagnostic trial","","j","","1","7","5","true","false","true","both pre & post","RIGHT","RIGHT","j","1","true","","","",""
"","html-keyboard-response","178","241006","0.0-262.0","mggwh2ro","1205","753","","","","","","","","","","","null","+","Fixation - short","","null","","","","","","","","","","","","","","","","",""
"","html-keyboard-response","179","241629","0.0-263.0","mggwh2ro","","","","","","","","","","","","","621","prg","Inducer trial","","f","","1","","","","true","","","","","f","1","","false","LEFT","",""
"","html-keyboard-response","180","242382","0.0-266.0","mggwh2ro","1205","753","","","","","","","","","","","null","+","Fixation - short","","null","","","","","","","","","","","","","","","","",""
"","html-keyboard-response","181","244305","0.0-267.0","mggwh2ro","","","","","","","","","","","","","1921","If cui press RIGHT | If ecl press LEFT","Inducer instructions",""," ","","2","","","","","","","","","","","","","","",""
"","html-keyboard-response","182","245058","0.0-268.0","mggwh2ro","1205","753","","","","","","","","","","","null","+","Fixation - short","","null","","","","","","","","","","","","","","","","",""
"","html-keyboard-response","183","246116","0.0-269.0","mggwh2ro","","","","","","","","","","","","","1057","cui","Diagnostic trial","","j","","2","0","5","false","false","false","both pre & post","RIGHT","LEFT","f","0","false","","","",""
"","call-function","184","246117","0.0-271.0-0.0","mggwh2ro","","","","","","","","","","","","","","","","","","","","","","","","","","","","","","","","","",""
"","html-keyboard-response","185","246420","0.0-271.0-1.0","mggwh2ro","1205","753","","","","","","","","","","","null","Wrong","Feedback","","null","","","","","","","","","","","","","","","","",""
"","call-function","186","246421","0.0-271.0-2.0","mggwh2ro","","","","","","","","","","","","","","","","","","","","","","","","","","","","","","","","","",""
"","html-keyboard-response","187","247173","0.0-272.0","mggwh2ro","1205","753","","","","","","","","","","","null","+","Fixation - short","","null","","","","","","","","","","","","","","","","",""
"","html-keyboard-response","188","248326","0.0-273.0","mggwh2ro","","","","","","","","","","","","","1151","ecl","Diagnostic trial","","f","","2","1","5","false","false","false","both pre & post","LEFT","LEFT","f","1","true","","","",""
"","html-keyboard-response","189","249078","0.0-276.0","mggwh2ro","1205","753","","","","","","","","","","","null","+","Fixation - short","","null","","","","","","","","","","","","","","","","",""
"","html-keyboard-response","190","249554","0.0-277.0","mggwh2ro","","","","","","","","","","","","","474","ecl","Diagnostic trial","","f","","2","2","5","false","false","false","both pre & post","LEFT","LEFT","f","1","true","","","",""
"","html-keyboard-response","191","250306","0.0-280.0","mggwh2ro","1205","753","","","","","","","","","","","null","+","Fixation - short","","null","","","","","","","","","","","","","","","","",""
"","html-keyboard-response","192","250699","0.0-281.0","mggwh2ro","","","","","","","","","","","","","391","ecl","Diagnostic trial","","f","","2","3","5","false","false","false","both pre & post","LEFT","LEFT","f","1","true","","","",""
"","html-keyboard-response","193","251452","0.0-284.0","mggwh2ro","1205","753","","","","","","","","","","","null","+","Fixation - short","","null","","","","","","","","","","","","","","","","",""
"","html-keyboard-response","194","251874","0.0-285.0","mggwh2ro","","","","","","","","","","","","","421","cui","Diagnostic trial","","j","","2","4","5","false","false","true","both pre & post","RIGHT","RIGHT","j","1","true","","","",""
"","html-keyboard-response","195","252627","0.0-288.0","mggwh2ro","1205","753","","","","","","","","","","","null","+","Fixation - short","","null","","","","","","","","","","","","","","","","",""
"","canvas-keyboard-response","196","253881","0.0-289.0","mggwh2ro","","","","","","","","","","","","","null","Cue","Cue","","null","","2","4","","","false","","","","","","","","","","",""
"","html-keyboard-response","197","254634","0.0-290.0","mggwh2ro","1205","753","","","","","","","","","","","null","+","Fixation - short","","null","","","","","","","","","","","","","","","","",""
"","html-keyboard-response","198","255423","0.0-291.0","mggwh2ro","","","","","","","","","","","","","788","cui","Diagnostic trial","","j","","2","5","5","true","false","true","both pre & post","RIGHT","RIGHT","j","1","true","","","",""
"","html-keyboard-response","199","256176","0.0-294.0","mggwh2ro","1205","753","","","","","","","","","","","null","+","Fixation - short","","null","","","","","","","","","","","","","","","","",""
"","html-keyboard-response","200","256805","0.0-295.0","mggwh2ro","","","","","","","","","","","","","627","ecl","Diagnostic trial","","f","","2","6","5","true","false","false","both pre & post","LEFT","LEFT","f","1","true","","","",""
"","html-keyboard-response","201","257557","0.0-298.0","mggwh2ro","1205","753","","","","","","","","","","","null","+","Fixation - short","","null","","","","","","","","","","","","","","","","",""
"","html-keyboard-response","202","257950","0.0-299.0","mggwh2ro","","","","","","","","","","","","","392","cui","Diagnostic trial","","j","","2","7","5","true","false","true","both pre & post","RIGHT","RIGHT","j","1","true","","","",""
"","html-keyboard-response","203","258703","0.0-302.0","mggwh2ro","1205","753","","","","","","","","","","","null","+","Fixation - short","","null","","","","","","","","","","","","","","","","",""
"","html-keyboard-response","204","259499","0.0-303.0","mggwh2ro","","","","","","","","","","","","","795","ecl","Inducer trial","","f","","2","","","","true","","","","","f","1","","false","LEFT","",""
"","html-keyboard-response","205","260252","0.0-306.0","mggwh2ro","1205","753","","","","","","","","","","","null","+","Fixation - short","","null","","","","","","","","","","","","","","","","",""
"","html-keyboard-response","206","261982","0.0-307.0","mggwh2ro","","","","","","","","","","","","","1729","If fuc press RIGHT | If dij press LEFT","Inducer instructions",""," ","","3","","","","","","","","","","","","","","",""
"","html-keyboard-response","207","262736","0.0-308.0","mggwh2ro","1205","753","","","","","","","","","","","null","+","Fixation - short","","null","","","","","","","","","","","","","","","","",""
"","html-keyboard-response","208","263767","0.0-309.0","mggwh2ro","","","","","","","","","","","","","1029","fuc","Diagnostic trial","","j","","3","0","9","false","false","false","both pre & post","RIGHT","LEFT","f","0","false","","","",""
"","call-function","209","263767","0.0-311.0-0.0","mggwh2ro","","","","","","","","","","","","","","","","","","","","","","","","","","","","","","","","","",""
"","html-keyboard-response","210","264069","0.0-311.0-1.0","mggwh2ro","1205","753","","","","","","","","","","","null","Wrong","Feedback","","null","","","","","","","","","","","","","","","","",""
"","call-function","211","264070","0.0-311.0-2.0","mggwh2ro","","","","","","","","","","","","","","","","","","","","","","","","","","","","","","","","","",""
"","html-keyboard-response","212","264823","0.0-312.0","mggwh2ro","1205","753","","","","","","","","","","","null","+","Fixation - short","","null","","","","","","","","","","","","","","","","",""
"","html-keyboard-response","213","265875","0.0-313.0","mggwh2ro","","","","","","","","","","","","","1050","fuc","Diagnostic trial","","f","","3","1","9","false","false","false","both pre & post","RIGHT","LEFT","f","1","false","","","",""
"","html-keyboard-response","214","266628","0.0-316.0","mggwh2ro","1205","753","","","","","","","","","","","null","+","Fixation - short","","null","","","","","","","","","","","","","","","","",""
"","html-keyboard-response","215","267230","0.0-317.0","mggwh2ro","","","","","","","","","","","","","601","fuc","Diagnostic trial","","j","","3","2","9","false","false","true","both pre & post","RIGHT","RIGHT","j","1","true","","","",""
"","html-keyboard-response","216","267983","0.0-320.0","mggwh2ro","1205","753","","","","","","","","","","","null","+","Fixation - short","","null","","","","","","","","","","","","","","","","",""
"","html-keyboard-response","217","268888","0.0-321.0","mggwh2ro","","","","","","","","","","","","","903","dij","Diagnostic trial","","f","","3","3","9","false","false","false","both pre & post","LEFT","LEFT","f","1","true","","","",""
"","html-keyboard-response","218","269641","0.0-324.0","mggwh2ro","1205","753","","","","","","","","","","","null","+","Fixation - short","","null","","","","","","","","","","","","","","","","",""
"","html-keyboard-response","219","270117","0.0-325.0","mggwh2ro","","","","","","","","","","","","","474","dij","Diagnostic trial","","f","","3","4","9","false","false","false","both pre & post","LEFT","LEFT","f","1","true","","","",""
"","html-keyboard-response","220","270869","0.0-328.0","mggwh2ro","1205","753","","","","","","","","","","","null","+","Fixation - short","","null","","","","","","","","","","","","","","","","",""
"","html-keyboard-response","221","271746","0.0-329.0","mggwh2ro","","","","","","","","","","","","","874","fuc","Diagnostic trial","","j","","3","5","9","false","false","false","both pre & post","RIGHT","LEFT","f","0","false","","","",""
"","call-function","222","271746","0.0-331.0-0.0","mggwh2ro","","","","","","","","","","","","","","","","","","","","","","","","","","","","","","","","","",""
"","html-keyboard-response","223","272050","0.0-331.0-1.0","mggwh2ro","1205","753","","","","","","","","","","","null","Wrong","Feedback","","null","","","","","","","","","","","","","","","","",""
"","call-function","224","272051","0.0-331.0-2.0","mggwh2ro","","","","","","","","","","","","","","","","","","","","","","","","","","","","","","","","","",""
"","html-keyboard-response","225","272803","0.0-332.0","mggwh2ro","1205","753","","","","","","","","","","","null","+","Fixation - short","","null","","","","","","","","","","","","","","","","",""
"","html-keyboard-response","226","273840","0.0-333.0","mggwh2ro","","","","","","","","","","","","","1035","fuc","Diagnostic trial","","j","","3","6","9","false","false","true","both pre & post","RIGHT","RIGHT","j","1","true","","","",""
"","html-keyboard-response","227","274593","0.0-336.0","mggwh2ro","1205","753","","","","","","","","","","","null","+","Fixation - short","","null","","","","","","","","","","","","","","","","",""
"","html-keyboard-response","228","275152","0.0-337.0","mggwh2ro","","","","","","","","","","","","","557","fuc","Diagnostic trial","","f","","3","7","9","false","false","false","both pre & post","RIGHT","LEFT","f","1","false","","","",""
"","html-keyboard-response","229","275904","0.0-340.0","mggwh2ro","1205","753","","","","","","","","","","","null","+","Fixation - short","","null","","","","","","","","","","","","","","","","",""
"","html-keyboard-response","230","276621","0.0-341.0","mggwh2ro","","","","","","","","","","","","","716","dij","Diagnostic trial","","f","","3","8","9","false","false","true","both pre & post","LEFT","RIGHT","j","0","false","","","",""
"","call-function","231","276622","0.0-343.0-0.0","mggwh2ro","","","","","","","","","","","","","","","","","","","","","","","","","","","","","","","","","",""
"","html-keyboard-response","232","276924","0.0-343.0-1.0","mggwh2ro","1205","753","","","","","","","","","","","null","Wrong","Feedback","","null","","","","","","","","","","","","","","","","",""
"","call-function","233","276925","0.0-343.0-2.0","mggwh2ro","","","","","","","","","","","","","","","","","","","","","","","","","","","","","","","","","",""
"","html-keyboard-response","234","277679","0.0-344.0","mggwh2ro","1205","753","","","","","","","","","","","null","+","Fixation - short","","null","","","","","","","","","","","","","","","","",""
"","canvas-keyboard-response","235","278933","0.0-345.0","mggwh2ro","","","","","","","","","","","","","null","Cue","Cue","","null","","3","8","","","false","","","","","","","","","","",""
"","html-keyboard-response","236","279686","0.0-346.0","mggwh2ro","1205","753","","","","","","","","","","","null","+","Fixation - short","","null","","","","","","","","","","","","","","","","",""
"","html-keyboard-response","237","280518","0.0-347.0","mggwh2ro","","","","","","","","","","","","","830","dij","Diagnostic trial","","j","","3","9","9","true","false","true","both pre & post","LEFT","RIGHT","j","1","false","","","",""
"","html-keyboard-response","238","281272","0.0-350.0","mggwh2ro","1205","753","","","","","","","","","","","null","+","Fixation - short","","null","","","","","","","","","","","","","","","","",""
"","html-keyboard-response","239","281941","0.0-351.0","mggwh2ro","","","","","","","","","","","","","667","fuc","Diagnostic trial","","j","","3","10","9","true","false","true","both pre & post","RIGHT","RIGHT","j","1","true","","","",""
"","html-keyboard-response","240","282694","0.0-354.0","mggwh2ro","1205","753","","","","","","","","","","","null","+","Fixation - short","","null","","","","","","","","","","","","","","","","",""
"","html-keyboard-response","241","283120","0.0-355.0","mggwh2ro","","","","","","","","","","","","","425","dij","Diagnostic trial","","j","","3","11","9","true","false","true","both pre & post","LEFT","RIGHT","j","1","false","","","",""
"","html-keyboard-response","242","283873","0.0-358.0","mggwh2ro","1205","753","","","","","","","","","","","null","+","Fixation - short","","null","","","","","","","","","","","","","","","","",""
"","html-keyboard-response","243","284387","0.0-359.0","mggwh2ro","","","","","","","","","","","","","513","dij","Inducer trial","","f","","3","","","","true","","","","","f","1","","false","LEFT","",""
"","html-keyboard-response","244","285140","0.0-362.0","mggwh2ro","1205","753","","","","","","","","","","","null","+","Fixation - short","","null","","","","","","","","","","","","","","","","",""
"","html-keyboard-response","245","286132","0.0-363.0","mggwh2ro","","","","","","","","","","","","","990","If hlb press RIGHT | If dpa press LEFT","Inducer instructions",""," ","","4","","","","","","","","","","","","","","",""
"","html-keyboard-response","246","286886","0.0-364.0","mggwh2ro","1205","753","","","","","","","","","","","null","+","Fixation - short","","null","","","","","","","","","","","","","","","","",""
"","html-keyboard-response","247","287591","0.0-365.0","mggwh2ro","","","","","","","","","","","","","703","hlb","Diagnostic trial","","f","","4","0","10","false","false","false","both pre & post","RIGHT","LEFT","f","1","false","","","",""
"","html-keyboard-response","248","288344","0.0-368.0","mggwh2ro","1205","753","","","","","","","","","","","null","+","Fixation - short","","null","","","","","","","","","","","","","","","","",""
"","html-keyboard-response","249","288979","0.0-369.0","mggwh2ro","","","","","","","","","","","","","633","hlb","Diagnostic trial","","j","","4","1","10","false","false","true","both pre & post","RIGHT","RIGHT","j","1","true","","","",""
"","html-keyboard-response","250","289731","0.0-372.0","mggwh2ro","1205","753","","","","","","","","","","","null","+","Fixation - short","","null","","","","","","","","","","","","","","","","",""
"","html-keyboard-response","251","290217","0.0-373.0","mggwh2ro","","","","","","","","","","","","","483","hlb","Diagnostic trial","","j","","4","2","10","false","false","true","both pre & post","RIGHT","RIGHT","j","1","true","","","",""
"","html-keyboard-response","252","290969","0.0-376.0","mggwh2ro","1205","753","","","","","","","","","","","null","+","Fixation - short","","null","","","","","","","","","","","","","","","","",""
"","html-keyboard-response","253","291463","0.0-377.0","mggwh2ro","","","","","","","","","","","","","492","dpa","Diagnostic trial","","f","","4","3","10","false","false","true","both pre & post","LEFT","RIGHT","j","0","false","","","",""
"","call-function","254","291464","0.0-379.0-0.0","mggwh2ro","","","","","","","","","","","","","","","","","","","","","","","","","","","","","","","","","",""
"","html-keyboard-response","255","291767","0.0-379.0-1.0","mggwh2ro","1205","753","","","","","","","","","","","null","Wrong","Feedback","","null","","","","","","","","","","","","","","","","",""
"","call-function","256","291768","0.0-379.0-2.0","mggwh2ro","","","","","","","","","","","","","","","","","","","","","","","","","","","","","","","","","",""
"","html-keyboard-response","257","292520","0.0-380.0","mggwh2ro","1205","753","","","","","","","","","","","null","+","Fixation - short","","null","","","","","","","","","","","","","","","","",""
"","html-keyboard-response","258","293218","0.0-381.0","mggwh2ro","","","","","","","","","","","","","697","hlb","Diagnostic trial","","f","","4","4","10","false","false","false","both pre & post","RIGHT","LEFT","f","1","false","","","",""
"","html-keyboard-response","259","293971","0.0-384.0","mggwh2ro","1205","753","","","","","","","","","","","null","+","Fixation - short","","null","","","","","","","","","","","","","","","","",""
"","html-keyboard-response","260","294855","0.0-385.0","mggwh2ro","","","","","","","","","","","","","883","dpa","Diagnostic trial","","f","","4","5","10","false","false","false","both pre & post","LEFT","LEFT","f","1","true","","","",""
"","html-keyboard-response","261","295608","0.0-388.0","mggwh2ro","1205","753","","","","","","","","","","","null","+","Fixation - short","","null","","","","","","","","","","","","","","","","",""
"","html-keyboard-response","262","295978","0.0-389.0","mggwh2ro","","","","","","","","","","","","","368","hlb","Diagnostic trial","","j","","4","6","10","false","false","false","both pre & post","RIGHT","LEFT","f","0","false","","","",""
"","call-function","263","295979","0.0-391.0-0.0","mggwh2ro","","","","","","","","","","","","","","","","","","","","","","","","","","","","","","","","","",""
"","html-keyboard-response","264","296281","0.0-391.0-1.0","mggwh2ro","1205","753","","","","","","","","","","","null","Wrong","Feedback","","null","","","","","","","","","","","","","","","","",""
"","call-function","265","296282","0.0-391.0-2.0","mggwh2ro","","","","","","","","","","","","","","","","","","","","","","","","","","","","","","","","","",""
"","html-keyboard-response","266","297035","0.0-392.0","mggwh2ro","1205","753","","","","","","","","","","","null","+","Fixation - short","","null","","","","","","","","","","","","","","","","",""
"","html-keyboard-response","267","297737","0.0-393.0","mggwh2ro","","","","","","","","","","","","","701","hlb","Diagnostic trial","","f","","4","7","10","false","false","false","both pre & post","RIGHT","LEFT","f","1","false","","","",""
"","html-keyboard-response","268","298490","0.0-396.0","mggwh2ro","1205","753","","","","","","","","","","","null","+","Fixation - short","","null","","","","","","","","","","","","","","","","",""
"","html-keyboard-response","269","298927","0.0-397.0","mggwh2ro","","","","","","","","","","","","","435","dpa","Diagnostic trial","","f","","4","8","10","false","false","false","both pre & post","LEFT","LEFT","f","1","true","","","",""
"","html-keyboard-response","270","299680","0.0-400.0","mggwh2ro","1205","753","","","","","","","","","","","null","+","Fixation - short","","null","","","","","","","","","","","","","","","","",""
"","html-keyboard-response","271","300111","0.0-401.0","mggwh2ro","","","","","","","","","","","","","430","dpa","Diagnostic trial","","f","","4","9","10","false","false","false","both pre & post","LEFT","LEFT","f","1","true","","","",""
"","html-keyboard-response","272","300864","0.0-404.0","mggwh2ro","1205","753","","","","","","","","","","","null","+","Fixation - short","","null","","","","","","","","","","","","","","","","",""
"","canvas-keyboard-response","273","302117","0.0-405.0","mggwh2ro","","","","","","","","","","","","","null","Cue","Cue","","null","","4","9","","","false","","","","","","","","","","",""
"","html-keyboard-response","274","302870","0.0-406.0","mggwh2ro","1205","753","","","","","","","","","","","null","+","Fixation - short","","null","","","","","","","","","","","","","","","","",""
"","html-keyboard-response","275","303694","0.0-407.0","mggwh2ro","","","","","","","","","","","","","823","dpa","Diagnostic trial","","f","","4","10","10","true","false","false","both pre & post","LEFT","LEFT","f","1","true","","","",""
"","html-keyboard-response","276","304447","0.0-410.0","mggwh2ro","1205","753","","","","","","","","","","","null","+","Fixation - short","","null","","","","","","","","","","","","","","","","",""
"","html-keyboard-response","277","305040","0.0-411.0","mggwh2ro","","","","","","","","","","","","","591","dpa","Diagnostic trial","","f","","4","11","10","true","false","false","both pre & post","LEFT","LEFT","f","1","true","","","",""
"","html-keyboard-response","278","305793","0.0-414.0","mggwh2ro","1205","753","","","","","","","","","","","null","+","Fixation - short","","null","","","","","","","","","","","","","","","","",""
"","html-keyboard-response","279","306402","0.0-415.0","mggwh2ro","","","","","","","","","","","","","608","hlb","Diagnostic trial","","f","","4","12","10","true","false","false","both pre & post","RIGHT","LEFT","f","1","false","","","",""
"","html-keyboard-response","280","307154","0.0-418.0","mggwh2ro","1205","753","","","","","","","","","","","null","+","Fixation - short","","null","","","","","","","","","","","","","","","","",""
"","html-keyboard-response","281","307612","0.0-419.0","mggwh2ro","","","","","","","","","","","","","456","hlb","Diagnostic trial","","f","","4","13","10","true","false","false","both pre & post","RIGHT","LEFT","f","1","false","","","",""
"","html-keyboard-response","282","308365","0.0-422.0","mggwh2ro","1205","753","","","","","","","","","","","null","+","Fixation - short","","null","","","","","","","","","","","","","","","","",""
"","html-keyboard-response","283","308896","0.0-423.0","mggwh2ro","","","","","","","","","","","","","529","hlb","Inducer trial","","j","","4","","","","true","","","","","j","1","","false","RIGHT","",""
"","html-keyboard-response","284","309648","0.0-426.0","mggwh2ro","1205","753","","","","","","","","","","","null","+","Fixation - short","","null","","","","","","","","","","","","","","","","",""
"","html-keyboard-response","285","311508","0.0-427.0","mggwh2ro","","","","","","","","","","","","","1858","If asn press RIGHT | If ndm press LEFT","Inducer instructions",""," ","","5","","","","","","","","","","","","","","",""
"","html-keyboard-response","286","312262","0.0-428.0","mggwh2ro","1205","753","","","","","","","","","","","null","+","Fixation - short","","null","","","","","","","","","","","","","","","","",""
"","html-keyboard-response","287","313305","0.0-429.0","mggwh2ro","","","","","","","","","","","","","1042","asn","Diagnostic trial","","j","","5","0","4","false","false","true","both pre & post","RIGHT","RIGHT","j","1","true","","","",""
"","html-keyboard-response","288","314059","0.0-432.0","mggwh2ro","1205","753","","","","","","","","","","","null","+","Fixation - short","","null","","","","","","","","","","","","","","","","",""
"","html-keyboard-response","289","314673","0.0-433.0","mggwh2ro","","","","","","","","","","","","","613","asn","Diagnostic trial","","j","","5","1","4","false","false","true","both pre & post","RIGHT","RIGHT","j","1","true","","","",""
"","html-keyboard-response","290","315427","0.0-436.0","mggwh2ro","1205","753","","","","","","","","","","","null","+","Fixation - short","","null","","","","","","","","","","","","","","","","",""
"","html-keyboard-response","291","316009","0.0-437.0","mggwh2ro","","","","","","","","","","","","","580","ndm","Diagnostic trial","","j","","5","2","4","false","false","true","both pre & post","LEFT","RIGHT","j","1","false","","","",""
"","html-keyboard-response","292","316762","0.0-440.0","mggwh2ro","1205","753","","","","","","","","","","","null","+","Fixation - short","","null","","","","","","","","","","","","","","","","",""
"","html-keyboard-response","293","317521","0.0-441.0","mggwh2ro","","","","","","","","","","","","","758","ndm","Diagnostic trial","","f","","5","3","4","false","false","false","both pre & post","LEFT","LEFT","f","1","true","","","",""
"","html-keyboard-response","294","318274","0.0-444.0","mggwh2ro","1205","753","","","","","","","","","","","null","+","Fixation - short","","null","","","","","","","","","","","","","","","","",""
"","canvas-keyboard-response","295","319527","0.0-445.0","mggwh2ro","","","","","","","","","","","","","null","Cue","Cue","","null","","5","3","","","false","","","","","","","","","","",""
"","html-keyboard-response","296","320280","0.0-446.0","mggwh2ro","1205","753","","","","","","","","","","","null","+","Fixation - short","","null","","","","","","","","","","","","","","","","",""
"","html-keyboard-response","297","321056","0.0-447.0","mggwh2ro","","","","","","","","","","","","","775","ndm","Diagnostic trial","","f","","5","4","4","true","false","false","both pre & post","LEFT","LEFT","f","1","true","","","",""
"","html-keyboard-response","298","321809","0.0-450.0","mggwh2ro","1205","753","","","","","","","","","","","null","+","Fixation - short","","null","","","","","","","","","","","","","","","","",""
"","html-keyboard-response","299","322691","0.0-451.0","mggwh2ro","","","","","","","","","","","","","881","asn","Diagnostic trial","","j","","5","5","4","true","false","true","both pre & post","RIGHT","RIGHT","j","1","true","","","",""
"","html-keyboard-response","300","323444","0.0-454.0","mggwh2ro","1205","753","","","","","","","","","","","null","+","Fixation - short","","null","","","","","","","","","","","","","","","","",""
"","html-keyboard-response","301","324268","0.0-455.0","mggwh2ro","","","","","","","","","","","","","823","asn","Diagnostic trial","","j","","5","6","4","true","false","true","both pre & post","RIGHT","RIGHT","j","1","true","","","",""
"","html-keyboard-response","302","325021","0.0-458.0","mggwh2ro","1205","753","","","","","","","","","","","null","+","Fixation - short","","null","","","","","","","","","","","","","","","","",""
"","html-keyboard-response","303","325830","0.0-459.0","mggwh2ro","","","","","","","","","","","","","807","ndm","Diagnostic trial","","j","","5","7","4","true","false","true","both pre & post","LEFT","RIGHT","j","1","false","","","",""
"","html-keyboard-response","304","326583","0.0-462.0","mggwh2ro","1205","753","","","","","","","","","","","null","+","Fixation - short","","null","","","","","","","","","","","","","","","","",""
"","html-keyboard-response","305","327717","0.0-463.0","mggwh2ro","","","","","","","","","","","","","1132","ndm","Inducer trial","","f","","5","","","","true","","","","","f","1","","false","LEFT","",""
"","html-keyboard-response","306","328471","0.0-466.0","mggwh2ro","1205","753","","","","","","","","","","","null","+","Fixation - short","","null","","","","","","","","","","","","","","","","",""
"","html-keyboard-response","307","329770","0.0-467.0","mggwh2ro","","","","","","","","","","","","","1298","If hhd press RIGHT | If gdn press LEFT","Inducer instructions",""," ","","6","","","","","","","","","","","","","","",""
"","html-keyboard-response","308","330522","0.0-468.0","mggwh2ro","1205","753","","","","","","","","","","","null","+","Fixation - short","","null","","","","","","","","","","","","","","","","",""
"","html-keyboard-response","309","331417","0.0-469.0","mggwh2ro","","","","","","","","","","","","","893","hhd","Diagnostic trial","","f","","6","0","11","false","false","false","both pre & post","RIGHT","LEFT","f","1","false","","","",""
"","html-keyboard-response","310","332171","0.0-472.0","mggwh2ro","1205","753","","","","","","","","","","","null","+","Fixation - short","","null","","","","","","","","","","","","","","","","",""
"","html-keyboard-response","311","333101","0.0-473.0","mggwh2ro","","","","","","","","","","","","","928","hhd","Diagnostic trial","","j","","6","1","11","false","false","true","both pre & post","RIGHT","RIGHT","j","1","true","","","",""
"","html-keyboard-response","312","333854","0.0-476.0","mggwh2ro","1205","753","","","","","","","","","","","null","+","Fixation - short","","null","","","","","","","","","","","","","","","","",""
"","html-keyboard-response","313","334598","0.0-477.0","mggwh2ro","","","","","","","","","","","","","742","gdn","Diagnostic trial","","f","","6","2","11","false","false","false","both pre & post","LEFT","LEFT","f","1","true","","","",""
"","html-keyboard-response","314","335351","0.0-480.0","mggwh2ro","1205","753","","","","","","","","","","","null","+","Fixation - short","","null","","","","","","","","","","","","","","","","",""
"","html-keyboard-response","315","335862","0.0-481.0","mggwh2ro","","","","","","","","","","","","","509","hhd","Diagnostic trial","","f","","6","3","11","false","false","false","both pre & post","RIGHT","LEFT","f","1","false","","","",""
"","html-keyboard-response","316","336616","0.0-484.0","mggwh2ro","1205","753","","","","","","","","","","","null","+","Fixation - short","","null","","","","","","","","","","","","","","","","",""
"","html-keyboard-response","317","337119","0.0-485.0","mggwh2ro","","","","","","","","","","","","","501","hhd","Diagnostic trial","","f","","6","4","11","false","false","false","both pre & post","RIGHT","LEFT","f","1","false","","","",""
"","html-keyboard-response","318","337872","0.0-488.0","mggwh2ro","1205","753","","","","","","","","","","","null","+","Fixation - short","","null","","","","","","","","","","","","","","","","",""
"","html-keyboard-response","319","338305","0.0-489.0","mggwh2ro","","","","","","","","","","","","","431","gdn","Diagnostic trial","","j","","6","5","11","false","false","true","both pre & post","LEFT","RIGHT","j","1","false","","","",""
"","html-keyboard-response","320","339058","0.0-492.0","mggwh2ro","1205","753","","","","","","","","","","","null","+","Fixation - short","","null","","","","","","","","","","","","","","","","",""
"","html-keyboard-response","321","339518","0.0-493.0","mggwh2ro","","","","","","","","","","","","","459","hhd","Diagnostic trial","","j","","6","6","11","false","false","true","both pre & post","RIGHT","RIGHT","j","1","true","","","",""
"","html-keyboard-response","322","340271","0.0-496.0","mggwh2ro","1205","753","","","","","","","","","","","null","+","Fixation - short","","null","","","","","","","","","","","","","","","","",""
"","html-keyboard-response","323","340935","0.0-497.0","mggwh2ro","","","","","","","","","","","","","662","gdn","Diagnostic trial","","j","","6","7","11","false","false","true","both pre & post","LEFT","RIGHT","j","1","false","","","",""
"","html-keyboard-response","324","341689","0.0-500.0","mggwh2ro","1205","753","","","","","","","","","","","null","+","Fixation - short","","null","","","","","","","","","","","","","","","","",""
"","html-keyboard-response","325","342206","0.0-501.0","mggwh2ro","","","","","","","","","","","","","515","gdn","Diagnostic trial","","f","","6","8","11","false","false","false","both pre & post","LEFT","LEFT","f","1","true","","","",""
"","html-keyboard-response","326","342960","0.0-504.0","mggwh2ro","1205","753","","","","","","","","","","","null","+","Fixation - short","","null","","","","","","","","","","","","","","","","",""
"","html-keyboard-response","327","343556","0.0-505.0","mggwh2ro","","","","","","","","","","","","","595","hhd","Diagnostic trial","","j","","6","9","11","false","false","true","both pre & post","RIGHT","RIGHT","j","1","true","","","",""
"","html-keyboard-response","328","344309","0.0-508.0","mggwh2ro","1205","753","","","","","","","","","","","null","+","Fixation - short","","null","","","","","","","","","","","","","","","","",""
"","html-keyboard-response","329","345127","0.0-509.0","mggwh2ro","","","","","","","","","","","","","816","gdn","Diagnostic trial","","j","","6","10","11","false","false","true","both pre & post","LEFT","RIGHT","j","1","false","","","",""
"","html-keyboard-response","330","345879","0.0-512.0","mggwh2ro","1205","753","","","","","","","","","","","null","+","Fixation - short","","null","","","","","","","","","","","","","","","","",""
"","canvas-keyboard-response","331","347132","0.0-513.0","mggwh2ro","","","","","","","","","","","","","null","Cue","Cue","","null","","6","10","","","false","","","","","","","","","","",""
"","html-keyboard-response","332","347886","0.0-514.0","mggwh2ro","1205","753","","","","","","","","","","","null","+","Fixation - short","","null","","","","","","","","","","","","","","","","",""
"","html-keyboard-response","333","348496","0.0-515.0","mggwh2ro","","","","","","","","","","","","","609","hhd","Diagnostic trial","","j","","6","11","11","true","false","true","both pre & post","RIGHT","RIGHT","j","1","true","","","",""
"","html-keyboard-response","334","349250","0.0-518.0","mggwh2ro","1205","753","","","","","","","","","","","null","+","Fixation - short","","null","","","","","","","","","","","","","","","","",""
"","html-keyboard-response","335","350373","0.0-519.0","mggwh2ro","","","","","","","","","","","","","1122","gdn","Diagnostic trial","","j","","6","12","11","true","false","true","both pre & post","LEFT","RIGHT","j","1","false","","","",""
"","html-keyboard-response","336","351126","0.0-522.0","mggwh2ro","1205","753","","","","","","","","","","","null","+","Fixation - short","","null","","","","","","","","","","","","","","","","",""
"","html-keyboard-response","337","351827","0.0-523.0","mggwh2ro","","","","","","","","","","","","","699","hhd","Diagnostic trial","","f","","6","13","11","true","false","true","both pre & post","RIGHT","RIGHT","j","0","true","","","",""
"","call-function","338","351827","0.0-525.0-0.0","mggwh2ro","","","","","","","","","","","","","","","","","","","","","","","","","","","","","","","","","",""
"","html-keyboard-response","339","352131","0.0-525.0-1.0","mggwh2ro","1205","753","","","","","","","","","","","null","Wrong","Feedback","","null","","","","","","","","","","","","","","","","",""
"","call-function","340","352132","0.0-525.0-2.0","mggwh2ro","","","","","","","","","","","","","","","","","","","","","","","","","","","","","","","","","",""
"","html-keyboard-response","341","352885","0.0-526.0","mggwh2ro","1205","753","","","","","","","","","","","null","+","Fixation - short","","null","","","","","","","","","","","","","","","","",""
"","html-keyboard-response","342","353815","0.0-527.0","mggwh2ro","","","","","","","","","","","","","928","gdn","Inducer trial","","f","","6","","","","true","","","","","f","1","","false","LEFT","",""
"","html-keyboard-response","343","354569","0.0-530.0","mggwh2ro","1205","753","","","","","","","","","","","null","+","Fixation - short","","null","","","","","","","","","","","","","","","","",""
"","html-keyboard-response","344","355858","0.0-531.0","mggwh2ro","","","","","","","","","","","","","1287","If uus press RIGHT | If mts press LEFT","Inducer instructions",""," ","","7","","","","","","","","","","","","","","",""
"","html-keyboard-response","345","356611","0.0-532.0","mggwh2ro","1205","753","","","","","","","","","","","null","+","Fixation - short","","null","","","","","","","","","","","","","","","","",""
"","html-keyboard-response","346","357298","0.0-533.0","mggwh2ro","","","","","","","","","","","","","685","mts","Diagnostic trial","","j","","7","0","6","false","false","true","both pre & post","LEFT","RIGHT","j","1","false","","","",""
"","html-keyboard-response","347","358052","0.0-536.0","mggwh2ro","1205","753","","","","","","","","","","","null","+","Fixation - short","","null","","","","","","","","","","","","","","","","",""
"","html-keyboard-response","348","358581","0.0-537.0","mggwh2ro","","","","","","","","","","","","","528","mts","Diagnostic trial","","j","","7","1","6","false","false","true","both pre & post","LEFT","RIGHT","j","1","false","","","",""
"","html-keyboard-response","349","359334","0.0-540.0","mggwh2ro","1205","753","","","","","","","","","","","null","+","Fixation - short","","null","","","","","","","","","","","","","","","","",""
"","html-keyboard-response","350","359766","0.0-541.0","mggwh2ro","","","","","","","","","","","","","430","mts","Diagnostic trial","","j","","7","2","6","false","false","true","both pre & post","LEFT","RIGHT","j","1","false","","","",""
"","html-keyboard-response","351","360520","0.0-544.0","mggwh2ro","1205","753","","","","","","","","","","","null","+","Fixation - short","","null","","","","","","","","","","","","","","","","",""
"","html-keyboard-response","352","361120","0.0-545.0","mggwh2ro","","","","","","","","","","","","","599","mts","Diagnostic trial","","f","","7","3","6","false","false","false","both pre & post","LEFT","LEFT","f","1","true","","","",""
"","html-keyboard-response","353","361874","0.0-548.0","mggwh2ro","1205","753","","","","","","","","","","","null","+","Fixation - short","","null","","","","","","","","","","","","","","","","",""
"","html-keyboard-response","354","363386","0.0-549.0","mggwh2ro","","","","","","","","","","","","","1510","uus","Diagnostic trial","","f","","7","4","6","false","false","false","both pre & post","RIGHT","LEFT","f","1","false","","","",""
"","html-keyboard-response","355","364139","0.0-552.0","mggwh2ro","1205","753","","","","","","","","","","","null","+","Fixation - short","","null","","","","","","","","","","","","","","","","",""
"","html-keyboard-response","356","364741","0.0-553.0","mggwh2ro","","","","","","","","","","","","","600","uus","Diagnostic trial","","j","","7","5","6","false","false","true","both pre & post","RIGHT","RIGHT","j","1","true","","","",""
"","html-keyboard-response","357","365494","0.0-556.0","mggwh2ro","1205","753","","","","","","","","","","","null","+","Fixation - short","","null","","","","","","","","","","","","","","","","",""
"","canvas-keyboard-response","358","366747","0.0-557.0","mggwh2ro","","","","","","","","","","","","","null","Cue","Cue","","null","","7","5","","","false","","","","","","","","","","",""
"","html-keyboard-response","359","367501","0.0-558.0","mggwh2ro","1205","753","","","","","","","","","","","null","+","Fixation - short","","null","","","","","","","","","","","","","","","","",""
"","html-keyboard-response","360","368065","0.0-559.0","mggwh2ro","","","","","","","","","","","","","563","mts","Diagnostic trial","","f","","7","6","6","true","false","false","both pre & post","LEFT","LEFT","f","1","true","","","",""
"","html-keyboard-response","361","368818","0.0-562.0","mggwh2ro","1205","753","","","","","","","","","","","null","+","Fixation - short","","null","","","","","","","","","","","","","","","","",""
"","html-keyboard-response","362","369882","0.0-563.0","mggwh2ro","","","","","","","","","","","","","1062","mts","Diagnostic trial","","j","","7","7","6","true","false","true","both pre & post","LEFT","RIGHT","j","1","false","","","",""
"","html-keyboard-response","363","370635","0.0-566.0","mggwh2ro","1205","753","","","","","","","","","","","null","+","Fixation - short","","null","","","","","","","","","","","","","","","","",""
"","html-keyboard-response","364","371114","0.0-567.0","mggwh2ro","","","","","","","","","","","","","477","mts","Diagnostic trial","","j","","7","8","6","true","false","true","both pre & post","LEFT","RIGHT","j","1","false","","","",""
"","html-keyboard-response","365","371866","0.0-570.0","mggwh2ro","1205","753","","","","","","","","","","","null","+","Fixation - short","","null","","","","","","","","","","","","","","","","",""
"","html-keyboard-response","366","372772","0.0-571.0","mggwh2ro","","","","","","","","","","","","","905","mts","Inducer trial","","f","","7","","","","true","","","","","f","1","","false","LEFT","",""
"","html-keyboard-response","367","373526","0.0-574.0","mggwh2ro","1205","753","","","","","","","","","","","null","+","Fixation - short","","null","","","","","","","","","","","","","","","","",""
"","html-keyboard-response","368","375807","0.0-575.0","mggwh2ro","","","","","","","","","","","","","2279","If sdw press RIGHT | If jcr press LEFT","Inducer instructions",""," ","","8","","","","","","","","","","","","","","",""
"","html-keyboard-response","369","376560","0.0-576.0","mggwh2ro","1205","753","","","","","","","","","","","null","+","Fixation - short","","null","","","","","","","","","","","","","","","","",""
"","html-keyboard-response","370","377319","0.0-577.0","mggwh2ro","","","","","","","","","","","","","758","jcr","Diagnostic trial","","j","","8","0","4","false","false","true","both pre & post","LEFT","RIGHT","j","1","false","","","",""
"","html-keyboard-response","371","378072","0.0-580.0","mggwh2ro","1205","753","","","","","","","","","","","null","+","Fixation - short","","null","","","","","","","","","","","","","","","","",""
"","html-keyboard-response","372","378543","0.0-581.0","mggwh2ro","","","","","","","","","","","","","469","jcr","Diagnostic trial","","j","","8","1","4","false","false","true","both pre & post","LEFT","RIGHT","j","1","false","","","",""
"","html-keyboard-response","373","379297","0.0-584.0","mggwh2ro","1205","753","","","","","","","","","","","null","+","Fixation - short","","null","","","","","","","","","","","","","","","","",""
"","html-keyboard-response","374","379895","0.0-585.0","mggwh2ro","","","","","","","","","","","","","597","sdw","Diagnostic trial","","j","","8","2","4","false","false","true","both pre & post","RIGHT","RIGHT","j","1","true","","","",""
"","html-keyboard-response","375","380648","0.0-588.0","mggwh2ro","1205","753","","","","","","","","","","","null","+","Fixation - short","","null","","","","","","","","","","","","","","","","",""
"","html-keyboard-response","376","381221","0.0-589.0","mggwh2ro","","","","","","","","","","","","","571","jcr","Diagnostic trial","","f","","8","3","4","false","false","false","both pre & post","LEFT","LEFT","f","1","true","","","",""
"","html-keyboard-response","377","381975","0.0-592.0","mggwh2ro","1205","753","","","","","","","","","","","null","+","Fixation - short","","null","","","","","","","","","","","","","","","","",""
"","canvas-keyboard-response","378","383228","0.0-593.0","mggwh2ro","","","","","","","","","","","","","null","Cue","Cue","","null","","8","3","","","false","","","","","","","","","","",""
"","html-keyboard-response","379","383982","0.0-594.0","mggwh2ro","1205","753","","","","","","","","","","","null","+","Fixation - short","","null","","","","","","","","","","","","","","","","",""
"","html-keyboard-response","380","384751","0.0-595.0","mggwh2ro","","","","","","","","","","","","","768","jcr","Diagnostic trial","","f","","8","4","4","true","false","false","both pre & post","LEFT","LEFT","f","1","true","","","",""
"","html-keyboard-response","381","385504","0.0-598.0","mggwh2ro","1205","753","","","","","","","","","","","null","+","Fixation - short","","null","","","","","","","","","","","","","","","","",""
"","html-keyboard-response","382","386190","0.0-599.0","mggwh2ro","","","","","","","","","","","","","684","sdw","Diagnostic trial","","j","","8","5","4","true","false","true","both pre & post","RIGHT","RIGHT","j","1","true","","","",""
"","html-keyboard-response","383","386943","0.0-602.0","mggwh2ro","1205","753","","","","","","","","","","","null","+","Fixation - short","","null","","","","","","","","","","","","","","","","",""
"","html-keyboard-response","384","387536","0.0-603.0","mggwh2ro","","","","","","","","","","","","","591","jcr","Diagnostic trial","","f","","8","6","4","true","false","false","both pre & post","LEFT","LEFT","f","1","true","","","",""
"","html-keyboard-response","385","388289","0.0-606.0","mggwh2ro","1205","753","","","","","","","","","","","null","+","Fixation - short","","null","","","","","","","","","","","","","","","","",""
"","html-keyboard-response","386","389014","0.0-607.0","mggwh2ro","","","","","","","","","","","","","723","sdw","Diagnostic trial","","f","","8","7","4","true","false","false","both pre & post","RIGHT","LEFT","f","1","false","","","",""
"","html-keyboard-response","387","389767","0.0-610.0","mggwh2ro","1205","753","","","","","","","","","","","null","+","Fixation - short","","null","","","","","","","","","","","","","","","","",""
"","html-keyboard-response","388","390757","0.0-611.0","mggwh2ro","","","","","","","","","","","","","988","jcr","Inducer trial","","f","","8","","","","true","","","","","f","1","","false","LEFT","",""
"","html-keyboard-response","389","391511","0.0-614.0","mggwh2ro","1205","753","","","","","","","","","","","null","+","Fixation - short","","null","","","","","","","","","","","","","","","","",""
"","html-keyboard-response","390","392803","0.0-615.0","mggwh2ro","","","","","","","","","","","","","1290","If vrm press RIGHT | If lct press LEFT","Inducer instructions",""," ","","9","","","","","","","","","","","","","","",""
"","html-keyboard-response","391","393556","0.0-616.0","mggwh2ro","1205","753","","","","","","","","","","","null","+","Fixation - short","","null","","","","","","","","","","","","","","","","",""
"","html-keyboard-response","392","394270","0.0-617.0","mggwh2ro","","","","","","","","","","","","","713","lct","Diagnostic trial","","f","","9","0","7","false","false","true","both pre & post","LEFT","RIGHT","j","0","false","","","",""
"","call-function","393","394271","0.0-619.0-0.0","mggwh2ro","","","","","","","","","","","","","","","","","","","","","","","","","","","","","","","","","",""
"","html-keyboard-response","394","394574","0.0-619.0-1.0","mggwh2ro","1205","753","","","","","","","","","","","null","Wrong","Feedback","","null","","","","","","","","","","","","","","","","",""
"","call-function","395","394574","0.0-619.0-2.0","mggwh2ro","","","","","","","","","","","","","","","","","","","","","","","","","","","","","","","","","",""
"","html-keyboard-response","396","395327","0.0-620.0","mggwh2ro","1205","753","","","","","","","","","","","null","+","Fixation - short","","null","","","","","","","","","","","","","","","","",""
"","html-keyboard-response","397","396076","0.0-621.0","mggwh2ro","","","","","","","","","","","","","747","lct","Diagnostic trial","","f","","9","1","7","false","false","false","both pre & post","LEFT","LEFT","f","1","true","","","",""
"","html-keyboard-response","398","396829","0.0-624.0","mggwh2ro","1205","753","","","","","","","","","","","null","+","Fixation - short","","null","","","","","","","","","","","","","","","","",""
"","html-keyboard-response","399","397431","0.0-625.0","mggwh2ro","","","","","","","","","","","","","600","vrm","Diagnostic trial","","f","","9","2","7","false","false","false","both pre & post","RIGHT","LEFT","f","1","false","","","",""
"","html-keyboard-response","400","398183","0.0-628.0","mggwh2ro","1205","753","","","","","","","","","","","null","+","Fixation - short","","null","","","","","","","","","","","","","","","","",""
"","html-keyboard-response","401","398666","0.0-629.0","mggwh2ro","","","","","","","","","","","","","481","vrm","Diagnostic trial","","j","","9","3","7","false","false","true","both pre & post","RIGHT","RIGHT","j","1","true","","","",""
"","html-keyboard-response","402","399419","0.0-632.0","mggwh2ro","1205","753","","","","","","","","","","","null","+","Fixation - short","","null","","","","","","","","","","","","","","","","",""
"","html-keyboard-response","403","400225","0.0-633.0","mggwh2ro","","","","","","","","","","","","","804","lct","Diagnostic trial","","j","","9","4","7","false","false","true","both pre & post","LEFT","RIGHT","j","1","false","","","",""
"","html-keyboard-response","404","400977","0.0-636.0","mggwh2ro","1205","753","","","","","","","","","","","null","+","Fixation - short","","null","","","","","","","","","","","","","","","","",""
"","html-keyboard-response","405","401535","0.0-637.0","mggwh2ro","","","","","","","","","","","","","556","lct","Diagnostic trial","","f","","9","5","7","false","false","false","both pre & post","LEFT","LEFT","f","1","true","","","",""
"","html-keyboard-response","406","402287","0.0-640.0","mggwh2ro","1205","753","","","","","","","","","","","null","+","Fixation - short","","null","","","","","","","","","","","","","","","","",""
"","html-keyboard-response","407","402939","0.0-641.0","mggwh2ro","","","","","","","","","","","","","650","vrm","Diagnostic trial","","f","","9","6","7","false","false","false","both pre & post","RIGHT","LEFT","f","1","false","","","",""
"","html-keyboard-response","408","403692","0.0-644.0","mggwh2ro","1205","753","","","","","","","","","","","null","+","Fixation - short","","null","","","","","","","","","","","","","","","","",""
"","canvas-keyboard-response","409","404947","0.0-645.0","mggwh2ro","","","","","","","","","","","","","null","Cue","Cue","","null","","9","6","","","false","","","","","","","","","","",""
"","html-keyboard-response","410","405701","0.0-646.0","mggwh2ro","1205","753","","","","","","","","","","","null","+","Fixation - short","","null","","","","","","","","","","","","","","","","",""
"","html-keyboard-response","411","406415","0.0-647.0","mggwh2ro","","","","","","","","","","","","","712","lct","Diagnostic trial","","f","","9","7","7","true","false","false","both pre & post","LEFT","LEFT","f","1","true","","","",""
"","html-keyboard-response","412","407168","0.0-650.0","mggwh2ro","1205","753","","","","","","","","","","","null","+","Fixation - short","","null","","","","","","","","","","","","","","","","",""
"","html-keyboard-response","413","407886","0.0-651.0","mggwh2ro","","","","","","","","","","","","","716","lct","Inducer trial","","f","","9","","","","true","","","","","f","1","","false","LEFT","",""
"","html-keyboard-response","414","408640","0.0-654.0","mggwh2ro","1205","753","","","","","","","","","","","null","+","Fixation - short","","null","","","","","","","","","","","","","","","","",""
"","html-keyboard-response","415","409696","0.0-655.0","mggwh2ro","","","","","","","","","","","","","1054","If edc press RIGHT | If goj press LEFT","Inducer instructions",""," ","","10","","","","","","","","","","","","","","",""
"","html-keyboard-response","416","410449","0.0-656.0","mggwh2ro","1205","753","","","","","","","","","","","null","+","Fixation - short","","null","","","","","","","","","","","","","","","","",""
"","html-keyboard-response","417","411298","0.0-657.0","mggwh2ro","","","","","","","","","","","","","847","edc","Diagnostic trial","","f","","10","0","9","false","false","false","both pre & post","RIGHT","LEFT","f","1","false","","","",""
"","html-keyboard-response","418","412051","0.0-660.0","mggwh2ro","1205","753","","","","","","","","","","","null","+","Fixation - short","","null","","","","","","","","","","","","","","","","",""
"","html-keyboard-response","419","412624","0.0-661.0","mggwh2ro","","","","","","","","","","","","","571","goj","Diagnostic trial","","j","","10","1","9","false","false","true","both pre & post","LEFT","RIGHT","j","1","false","","","",""
"","html-keyboard-response","420","413376","0.0-664.0","mggwh2ro","1205","753","","","","","","","","","","","null","+","Fixation - short","","null","","","","","","","","","","","","","","","","",""
"","html-keyboard-response","421","413817","0.0-665.0","mggwh2ro","","","","","","","","","","","","","439","goj","Diagnostic trial","","j","","10","2","9","false","false","true","both pre & post","LEFT","RIGHT","j","1","false","","","",""
"","html-keyboard-response","422","414570","0.0-668.0","mggwh2ro","1205","753","","","","","","","","","","","null","+","Fixation - short","","null","","","","","","","","","","","","","","","","",""
"","html-keyboard-response","423","415040","0.0-669.0","mggwh2ro","","","","","","","","","","","","","468","goj","Diagnostic trial","","j","","10","3","9","false","false","true","both pre & post","LEFT","RIGHT","j","1","false","","","",""
"","html-keyboard-response","424","415793","0.0-672.0","mggwh2ro","1205","753","","","","","","","","","","","null","+","Fixation - short","","null","","","","","","","","","","","","","","","","",""
"","html-keyboard-response","425","416270","0.0-673.0","mggwh2ro","","","","","","","","","","","","","475","edc","Diagnostic trial","","j","","10","4","9","false","false","true","both pre & post","RIGHT","RIGHT","j","1","true","","","",""
"","html-keyboard-response","426","417023","0.0-676.0","mggwh2ro","1205","753","","","","","","","","","","","null","+","Fixation - short","","null","","","","","","","","","","","","","","","","",""
"","html-keyboard-response","427","417545","0.0-677.0","mggwh2ro","","","","","","","","","","","","","520","goj","Diagnostic trial","","j","","10","5","9","false","false","true","both pre & post","LEFT","RIGHT","j","1","false","","","",""
"","html-keyboard-response","428","418297","0.0-680.0","mggwh2ro","1205","753","","","","","","","","","","","null","+","Fixation - short","","null","","","","","","","","","","","","","","","","",""
"","html-keyboard-response","429","419185","0.0-681.0","mggwh2ro","","","","","","","","","","","","","886","edc","Diagnostic trial","","f","","10","6","9","false","false","false","both pre & post","RIGHT","LEFT","f","1","false","","","",""
"","html-keyboard-response","430","419936","0.0-684.0","mggwh2ro","1205","753","","","","","","","","","","","null","+","Fixation - short","","null","","","","","","","","","","","","","","","","",""
"","html-keyboard-response","431","420332","0.0-685.0","mggwh2ro","","","","","","","","","","","","","395","edc","Diagnostic trial","","f","","10","7","9","false","false","true","both pre & post","RIGHT","RIGHT","j","0","true","","","",""
"","call-function","432","420333","0.0-687.0-0.0","mggwh2ro","","","","","","","","","","","","","","","","","","","","","","","","","","","","","","","","","",""
"","html-keyboard-response","433","420635","0.0-687.0-1.0","mggwh2ro","1205","753","","","","","","","","","","","null","Wrong","Feedback","","null","","","","","","","","","","","","","","","","",""
"","call-function","434","420636","0.0-687.0-2.0","mggwh2ro","","","","","","","","","","","","","","","","","","","","","","","","","","","","","","","","","",""
"","html-keyboard-response","435","421388","0.0-688.0","mggwh2ro","1205","753","","","","","","","","","","","null","+","Fixation - short","","null","","","","","","","","","","","","","","","","",""
"","html-keyboard-response","436","422146","0.0-689.0","mggwh2ro","","","","","","","","","","","","","756","goj","Diagnostic trial","","f","","10","8","9","false","false","false","both pre & post","LEFT","LEFT","f","1","true","","","",""
"","html-keyboard-response","437","422900","0.0-692.0","mggwh2ro","1205","753","","","","","","","","","","","null","+","Fixation - short","","null","","","","","","","","","","","","","","","","",""
"","canvas-keyboard-response","438","424154","0.0-693.0","mggwh2ro","","","","","","","","","","","","","null","Cue","Cue","","null","","10","8","","","false","","","","","","","","","","",""
"","html-keyboard-response","439","424907","0.0-694.0","mggwh2ro","1205","753","","","","","","","","","","","null","+","Fixation - short","","null","","","","","","","","","","","","","","","","",""
"","html-keyboard-response","440","425488","0.0-695.0","mggwh2ro","","","","","","","","","","","","","579","goj","Diagnostic trial","","f","","10","9","9","true","false","false","both pre & post","LEFT","LEFT","f","1","true","","","",""
"","html-keyboard-response","441","426241","0.0-698.0","mggwh2ro","1205","753","","","","","","","","","","","null","+","Fixation - short","","null","","","","","","","","","","","","","","","","",""
"","html-keyboard-response","442","426686","0.0-699.0","mggwh2ro","","","","","","","","","","","","","443","edc","Inducer trial","","j","","10","","","","true","","","","","j","1","","false","RIGHT","",""
"","html-keyboard-response","443","427438","0.0-702.0","mggwh2ro","1205","753","","","","","","","","","","","null","+","Fixation - short","","null","","","","","","","","","","","","","","","","",""
"","html-keyboard-response","444","428394","0.0-703.0","mggwh2ro","","","","","","","","","","","","","954","If cer press RIGHT | If xlv press LEFT","Inducer instructions",""," ","","11","","","","","","","","","","","","","","",""
"","html-keyboard-response","445","429146","0.0-704.0","mggwh2ro","1205","753","","","","","","","","","","","null","+","Fixation - short","","null","","","","","","","","","","","","","","","","",""
"","html-keyboard-response","446","430111","0.0-705.0","mggwh2ro","","","","","","","","","","","","","963","cer","Diagnostic trial","","j","","11","0","11","false","false","true","both pre & post","RIGHT","RIGHT","j","1","true","","","",""
"","html-keyboard-response","447","430864","0.0-708.0","mggwh2ro","1205","753","","","","","","","","","","","null","+","Fixation - short","","null","","","","","","","","","","","","","","","","",""
"","html-keyboard-response","448","431493","0.0-709.0","mggwh2ro","","","","","","","","","","","","","628","xlv","Diagnostic trial","","f","","11","1","11","false","false","false","both pre & post","LEFT","LEFT","f","1","true","","","",""
"","html-keyboard-response","449","432245","0.0-712.0","mggwh2ro","1205","753","","","","","","","","","","","null","+","Fixation - short","","null","","","","","","","","","","","","","","","","",""
"","html-keyboard-response","450","432911","0.0-713.0","mggwh2ro","","","","","","","","","","","","","663","xlv","Diagnostic trial","","j","","11","2","11","false","false","true","both pre & post","LEFT","RIGHT","j","1","false","","","",""
"","html-keyboard-response","451","433664","0.0-716.0","mggwh2ro","1205","753","","","","","","","","","","","null","+","Fixation - short","","null","","","","","","","","","","","","","","","","",""
"","html-keyboard-response","452","434241","0.0-717.0","mggwh2ro","","","","","","","","","","","","","576","cer","Diagnostic trial","","j","","11","3","11","false","false","true","both pre & post","RIGHT","RIGHT","j","1","true","","","",""
"","html-keyboard-response","453","434995","0.0-720.0","mggwh2ro","1205","753","","","","","","","","","","","null","+","Fixation - short","","null","","","","","","","","","","","","","","","","",""
"","html-keyboard-response","454","435374","0.0-721.0","mggwh2ro","","","","","","","","","","","","","376","cer","Diagnostic trial","","j","","11","4","11","false","false","true","both pre & post","RIGHT","RIGHT","j","1","true","","","",""
"","html-keyboard-response","455","436127","0.0-724.0","mggwh2ro","1205","753","","","","","","","","","","","null","+","Fixation - short","","null","","","","","","","","","","","","","","","","",""
"","html-keyboard-response","456","436650","0.0-725.0","mggwh2ro","","","","","","","","","","","","","521","xlv","Diagnostic trial","","j","","11","5","11","false","false","true","both pre & post","LEFT","RIGHT","j","1","false","","","",""
"","html-keyboard-response","457","437403","0.0-728.0","mggwh2ro","1205","753","","","","","","","","","","","null","+","Fixation - short","","null","","","","","","","","","","","","","","","","",""
"","html-keyboard-response","458","437806","0.0-729.0","mggwh2ro","","","","","","","","","","","","","402","xlv","Diagnostic trial","","j","","11","6","11","false","false","false","both pre & post","LEFT","LEFT","f","0","true","","","",""
"","call-function","459","437807","0.0-731.0-0.0","mggwh2ro","","","","","","","","","","","","","","","","","","","","","","","","","","","","","","","","","",""
"","html-keyboard-response","460","438109","0.0-731.0-1.0","mggwh2ro","1205","753","","","","","","","","","","","null","Wrong","Feedback","","null","","","","","","","","","","","","","","","","",""
"","call-function","461","438110","0.0-731.0-2.0","mggwh2ro","","","","","","","","","","","","","","","","","","","","","","","","","","","","","","","","","",""
"","html-keyboard-response","462","438862","0.0-732.0","mggwh2ro","1205","753","","","","","","","","","","","null","+","Fixation - short","","null","","","","","","","","","","","","","","","","",""
"","html-keyboard-response","463","439609","0.0-733.0","mggwh2ro","","","","","","","","","","","","","745","xlv","Diagnostic trial","","f","","11","7","11","false","false","false","both pre & post","LEFT","LEFT","f","1","true","","","",""
"","html-keyboard-response","464","440363","0.0-736.0","mggwh2ro","1205","753","","","","","","","","","","","null","+","Fixation - short","","null","","","","","","","","","","","","","","","","",""
