"value","trial_type","trial_index","time_elapsed","internal_node_id","id","width","height","webaudio","browser","browser_version","mobile","os","fullscreen","vsync_rate","webcam","microphone","view_history","rt","stimulus","trial_info","success","response","exp_parameters","inducer_run","diagnostic_run","cue_num","post_cue","inducer_trial","italic","forced_equal_run","correct_inducer_response_side","correct_diag_response_side","correct_response_key","correct_response","congruent","force_equal","correct_indu_response_side","accuracy","interactive"
"","call-function","0","2","0.0-0.0","p2b9wnx1","","","","","","","","","","","","","","","","","","","","","","","","","","","","","","","","","",""
"","browser-check","1","2035","0.0-1.0","p2b9wnx1","1366","917","true","safari","16.5.2","false","Mac OS","true","29.7","true","true","","","","","","","","","","","","","","","","","","","","","","",""
"","instructions","2","17222","0.0-2.0","p2b9wnx1","","","","","","","","","","","","[{""page_index"":0,""viewing_time"":3307},{""page_index"":1,""viewing_time"":6099},{""page_index"":2,""viewing_time"":5778}]","15185","The experiment and consent","The experiment and consent","","","","","","","","","","","","","","","","","","",""
"","fullscreen","3","25173","0.0-3.0","p2b9wnx1","","","","","","","","","","","","","6945","","Full screen","true","","","","","","","","","","","","","","","","","",""
"","instructions","4","45865","0.0-4.0","p2b9wnx1","","","","","","","","","","","","[{""page_index"":0,""viewing_time"":14175},{""page_index"":1,""viewing_time"":6515}]","20690","Instructions","Basic overview explanation","","","","","","","","","","","","","","","","","","",""
"","html-keyboard-response","5","53164","0.0-5.0","p2b9wnx1","","","","","","","","","","","","","5793","If italic press RIGHT | If upright press LEFT","Diagnostic instructions",""," ","{""debug"":false,""skip_instructions"":false,""skip_practice"":false,""save_local_data"":false,""studu_name"":""exp2"",""default_background_colour"":""#cccccc"",""wrong_response_colour"":""#d22d2d"",""instruction_delay"":20000,""trial_duration"":2000,""short_fixation"":750,""long_fixation"":1500,""wrong_response_delay"":300,""too_slow_delay"":300,""instruction_font_size"":""24px"",""general_font_size"":""42px"",""fixation_size"":""48px"",""allowed_responses"":[""f"",""j""],""cue_min_length"":0,""cue_max_length"":4,""tot_post_cue_len"":72,""cue_colour"":""red"",""cue_shape"":""Triangle"",""cue_size"":70,""cue_duration"":1250,""avg_number_of_cues"":3,""inducer_colour"":""blue"",""number_of_inducers"":24,""pre_cue_italic_forced_equal"":true,""post_cue_italic_forced_equal"":true,""prac_diagnostic_rounds"":16,""prac_inducer_rounds"":6,""prac_cue_rounds"":16,""prac_post_cue_num"":3}","","","","","","","","","","","","","","","",""
"","html-keyboard-response","6","53918","0.0-6.0","p2b9wnx1","1366","1024","","","","","","","","","","","null","+","Fixation - short","","null","","","","","","","","","","","","","","","","",""
"","html-keyboard-response","7","67598","0.0-7.0","p2b9wnx1","","","","","","","","","","","","","13674","gfm","Diagnostic practice","","j","","Diagnostic practice","0","-84","true","false","false","prac equal","LEFT","LEFT","f","0","true","","","",""
"","call-function","8","67602","0.0-9.0-0.0","p2b9wnx1","","","","","","","","","","","","","","","","","","","","","","","","","","","","","","","","","",""
"","html-keyboard-response","9","67906","0.0-9.0-1.0","p2b9wnx1","1366","917","","","","","","","","","","","null","Wrong","Feedback","","null","","","","","","","","","","","","","","","","",""
"","call-function","10","67909","0.0-9.0-2.0","p2b9wnx1","","","","","","","","","","","","","","","","","","","","","","","","","","","","","","","","","",""
"","html-keyboard-response","11","68663","0.0-10.0","p2b9wnx1","1366","917","","","","","","","","","","","null","+","Fixation - short","","null","","","","","","","","","","","","","","","","",""
"","html-keyboard-response","12","69880","0.0-11.0","p2b9wnx1","","","","","","","","","","","","","1213","yna","Diagnostic practice","","j","","Diagnostic practice","1","-84","true","false","true","prac equal","RIGHT","RIGHT","j","1","true","","","",""
"","html-keyboard-response","13","70635","0.0-14.0","p2b9wnx1","1366","917","","","","","","","","","","","null","+","Fixation - short","","null","","","","","","","","","","","","","","","","",""
"","html-keyboard-response","14","71664","0.0-15.0","p2b9wnx1","","","","","","","","","","","","","1025","yna","Diagnostic practice","","j","","Diagnostic practice","2","-84","true","false","true","prac equal","RIGHT","RIGHT","j","1","true","","","",""
"","html-keyboard-response","15","72419","0.0-18.0","p2b9wnx1","1366","917","","","","","","","","","","","null","+","Fixation - short","","null","","","","","","","","","","","","","","","","",""
"","html-keyboard-response","16","73064","0.0-19.0","p2b9wnx1","","","","","","","","","","","","","642","gfm","Diagnostic practice","","j","","Diagnostic practice","3","-84","true","false","true","prac equal","LEFT","RIGHT","j","1","false","","","",""
"","html-keyboard-response","17","73819","0.0-22.0","p2b9wnx1","1366","917","","","","","","","","","","","null","+","Fixation - short","","null","","","","","","","","","","","","","","","","",""
"","html-keyboard-response","18","74495","0.0-23.0","p2b9wnx1","","","","","","","","","","","","","674","gfm","Diagnostic practice","","f","","Diagnostic practice","4","-84","true","false","false","prac equal","LEFT","LEFT","f","1","true","","","",""
"","html-keyboard-response","19","75249","0.0-26.0","p2b9wnx1","1366","917","","","","","","","","","","","null","+","Fixation - short","","null","","","","","","","","","","","","","","","","",""
"","html-keyboard-response","20","75806","0.0-27.0","p2b9wnx1","","","","","","","","","","","","","554","gfm","Diagnostic practice","","j","","Diagnostic practice","5","-84","true","false","true","prac equal","LEFT","RIGHT","j","1","false","","","",""
"","html-keyboard-response","21","76561","0.0-30.0","p2b9wnx1","1366","917","","","","","","","","","","","null","+","Fixation - short","","null","","","","","","","","","","","","","","","","",""
"","html-keyboard-response","22","77169","0.0-31.0","p2b9wnx1","","","","","","","","","","","","","604","gfm","Diagnostic practice","","f","","Diagnostic practice","6","-84","true","false","false","prac equal","LEFT","LEFT","f","1","true","","","",""
"","html-keyboard-response","23","77923","0.0-34.0","p2b9wnx1","1366","917","","","","","","","","","","","null","+","Fixation - short","","null","","","","","","","","","","","","","","","","",""
"","html-keyboard-response","24","78264","0.0-35.0","p2b9wnx1","","","","","","","","","","","","","337","gfm","Diagnostic practice","","j","","Diagnostic practice","7","-84","true","false","true","prac equal","LEFT","RIGHT","j","1","false","","","",""
"","html-keyboard-response","25","79018","0.0-38.0","p2b9wnx1","1366","917","","","","","","","","","","","null","+","Fixation - short","","null","","","","","","","","","","","","","","","","",""
"","html-keyboard-response","26","79594","0.0-39.0","p2b9wnx1","","","","","","","","","","","","","572","yna","Diagnostic practice","","f","","Diagnostic practice","8","-84","true","false","false","prac equal","RIGHT","LEFT","f","1","false","","","",""
"","html-keyboard-response","27","80347","0.0-42.0","p2b9wnx1","1366","917","","","","","","","","","","","null","+","Fixation - short","","null","","","","","","","","","","","","","","","","",""
"","html-keyboard-response","28","81124","0.0-43.0","p2b9wnx1","","","","","","","","","","","","","773","yna","Diagnostic practice","","f","","Diagnostic practice","9","-84","true","false","false","prac equal","RIGHT","LEFT","f","1","false","","","",""
"","html-keyboard-response","29","81878","0.0-46.0","p2b9wnx1","1366","917","","","","","","","","","","","null","+","Fixation - short","","null","","","","","","","","","","","","","","","","",""
"","html-keyboard-response","30","82502","0.0-47.0","p2b9wnx1","","","","","","","","","","","","","621","gfm","Diagnostic practice","","j","","Diagnostic practice","10","-84","true","false","true","prac equal","LEFT","RIGHT","j","1","false","","","",""
"","html-keyboard-response","31","83256","0.0-50.0","p2b9wnx1","1366","917","","","","","","","","","","","null","+","Fixation - short","","null","","","","","","","","","","","","","","","","",""
"","html-keyboard-response","32","83881","0.0-51.0","p2b9wnx1","","","","","","","","","","","","","622","gfm","Diagnostic practice","","f","","Diagnostic practice","11","-84","true","false","false","prac equal","LEFT","LEFT","f","1","true","","","",""
"","html-keyboard-response","33","84636","0.0-54.0","p2b9wnx1","1366","917","","","","","","","","","","","null","+","Fixation - short","","null","","","","","","","","","","","","","","","","",""
"","html-keyboard-response","34","85286","0.0-55.0","p2b9wnx1","","","","","","","","","","","","","646","gfm","Diagnostic practice","","j","","Diagnostic practice","12","-84","true","false","true","prac equal","LEFT","RIGHT","j","1","false","","","",""
"","html-keyboard-response","35","86041","0.0-58.0","p2b9wnx1","1366","917","","","","","","","","","","","null","+","Fixation - short","","null","","","","","","","","","","","","","","","","",""
"","html-keyboard-response","36","86631","0.0-59.0","p2b9wnx1","","","","","","","","","","","","","587","yna","Diagnostic practice","","f","","Diagnostic practice","13","-84","true","false","false","prac equal","RIGHT","LEFT","f","1","false","","","",""
"","html-keyboard-response","37","87385","0.0-62.0","p2b9wnx1","1366","917","","","","","","","","","","","null","+","Fixation - short","","null","","","","","","","","","","","","","","","","",""
"","html-keyboard-response","38","87927","0.0-63.0","p2b9wnx1","","","","","","","","","","","","","539","yna","Diagnostic practice","","j","","Diagnostic practice","14","-84","true","false","true","prac equal","RIGHT","RIGHT","j","1","true","","","",""
"","html-keyboard-response","39","88681","0.0-66.0","p2b9wnx1","1366","917","","","","","","","","","","","null","+","Fixation - short","","null","","","","","","","","","","","","","","","","",""
"","html-keyboard-response","40","89325","0.0-67.0","p2b9wnx1","","","","","","","","","","","","","640","gfm","Diagnostic practice","","f","","Diagnostic practice","15","-84","true","false","false","prac equal","LEFT","LEFT","f","1","true","","","",""
"","html-keyboard-response","41","90079","0.0-70.0","p2b9wnx1","1366","917","","","","","","","","","","","null","+","Fixation - short","","null","","","","","","","","","","","","","","","","",""
"","instructions","42","94107","0.0-71.0","p2b9wnx1","","","","","","","","","","","","[{""page_index"":0,""viewing_time"":4023}]","4024","Instructions","Final experiment explanation","","","","","","","","","","","","","","","","","","",""
"","html-keyboard-response","43","101112","0.0-72.0","p2b9wnx1","","","","","","","","","","","","","5499","If jlm press RIGHT | If hlb press LEFT","Inducer practice",""," ","","Practice","","","","","","","","","","","","","","",""
"","html-keyboard-response","44","101866","0.0-73.0","p2b9wnx1","1366","917","","","","","","","","","","","null","+","Fixation - short","","null","","","","","","","","","","","","","","","","",""
"","html-keyboard-response","45","102480","0.0-74.0","p2b9wnx1","","","","","","","","","","","","","609","hlb","Inducer practice","","f","","Practice","","","","true","","","","","f","1","","true","LEFT","",""
"","html-keyboard-response","46","103235","0.0-77.0","p2b9wnx1","1366","917","","","","","","","","","","","null","+","Fixation - short","","null","","","","","","","","","","","","","","","","",""
"","html-keyboard-response","47","105464","0.0-78.0","p2b9wnx1","","","","","","","","","","","","","2226","If csp press RIGHT | If vsc press LEFT","Inducer practice",""," ","","Practice","","","","","","","","","","","","","","",""
"","html-keyboard-response","48","106218","0.0-79.0","p2b9wnx1","1366","917","","","","","","","","","","","null","+","Fixation - short","","null","","","","","","","","","","","","","","","","",""
"","html-keyboard-response","49","106661","0.0-80.0","p2b9wnx1","","","","","","","","","","","","","440","csp","Inducer practice","","f","","Practice","","","","true","","","","","j","0","","true","RIGHT","",""
"","call-function","50","106663","0.0-82.0-0.0","p2b9wnx1","","","","","","","","","","","","","","","","","","","","","","","","","","","","","","","","","",""
"","html-keyboard-response","51","106967","0.0-82.0-1.0","p2b9wnx1","1366","917","","","","","","","","","","","null","Wrong","Feedback","","null","","","","","","","","","","","","","","","","",""
"","call-function","52","106969","0.0-82.0-2.0","p2b9wnx1","","","","","","","","","","","","","","","","","","","","","","","","","","","","","","","","","",""
"","html-keyboard-response","53","107723","0.0-83.0","p2b9wnx1","1366","917","","","","","","","","","","","null","+","Fixation - short","","null","","","","","","","","","","","","","","","","",""
"","html-keyboard-response","54","111149","0.0-84.0","p2b9wnx1","","","","","","","","","","","","","3422","If aor press RIGHT | If feg press LEFT","Inducer practice",""," ","","Practice","","","","","","","","","","","","","","",""
"","html-keyboard-response","55","111903","0.0-85.0","p2b9wnx1","1366","917","","","","","","","","","","","null","+","Fixation - short","","null","","","","","","","","","","","","","","","","",""
"","html-keyboard-response","56","112562","0.0-86.0","p2b9wnx1","","","","","","","","","","","","","656","aor","Inducer practice","","j","","Practice","","","","true","","","","","j","1","","true","RIGHT","",""
"","html-keyboard-response","57","113316","0.0-89.0","p2b9wnx1","1366","917","","","","","","","","","","","null","+","Fixation - short","","null","","","","","","","","","","","","","","","","",""
"","html-keyboard-response","58","115338","0.0-90.0","p2b9wnx1","","","","","","","","","","","","","2019","If ibg press RIGHT | If guf press LEFT","Inducer practice",""," ","","Practice","","","","","","","","","","","","","","",""
"","html-keyboard-response","59","116093","0.0-91.0","p2b9wnx1","1366","917","","","","","","","","","","","null","+","Fixation - short","","null","","","","","","","","","","","","","","","","",""
"","html-keyboard-response","60","117660","0.0-92.0","p2b9wnx1","","","","","","","","","","","","","1564","ibg","Inducer practice","","j","","Practice","","","","true","","","","","j","1","","true","RIGHT","",""
"","html-keyboard-response","61","118414","0.0-95.0","p2b9wnx1","1366","917","","","","","","","","","","","null","+","Fixation - short","","null","","","","","","","","","","","","","","","","",""
"","html-keyboard-response","62","121689","0.0-96.0","p2b9wnx1","","","","","","","","","","","","","3271","If ufc press RIGHT | If mda press LEFT","Inducer practice",""," ","","Practice","","","","","","","","","","","","","","",""
"","html-keyboard-response","63","122442","0.0-97.0","p2b9wnx1","1366","917","","","","","","","","","","","null","+","Fixation - short","","null","","","","","","","","","","","","","","","","",""
"","html-keyboard-response","64","123312","0.0-98.0","p2b9wnx1","","","","","","","","","","","","","867","mda","Inducer practice","","f","","Practice","","","","true","","","","","f","1","","true","LEFT","",""
"","html-keyboard-response","65","124066","0.0-101.0","p2b9wnx1","1366","917","","","","","","","","","","","null","+","Fixation - short","","null","","","","","","","","","","","","","","","","",""
"","html-keyboard-response","66","125897","0.0-102.0","p2b9wnx1","","","","","","","","","","","","","1827","If sdw press RIGHT | If ccx press LEFT","Inducer practice",""," ","","Practice","","","","","","","","","","","","","","",""
"","html-keyboard-response","67","126651","0.0-103.0","p2b9wnx1","1366","917","","","","","","","","","","","null","+","Fixation - short","","null","","","","","","","","","","","","","","","","",""
"","html-keyboard-response","68","127323","0.0-104.0","p2b9wnx1","","","","","","","","","","","","","669","ccx","Inducer practice","","f","","Practice","","","","true","","","","","f","1","","true","LEFT","",""
"","html-keyboard-response","69","128077","0.0-107.0","p2b9wnx1","1366","917","","","","","","","","","","","null","+","Fixation - short","","null","","","","","","","","","","","","","","","","",""
"","instructions","70","130284","0.0-108.0","p2b9wnx1","","","","","","","","","","","","[{""page_index"":0,""viewing_time"":2203}]","2204","Instructions","Final experiment explanation","","","","","","","","","","","","","","","","","","",""
"","html-keyboard-response","71","134745","0.0-109.0","p2b9wnx1","","","","","","","","","","","","","2958","If jil press RIGHT | If drk press LEFT","Cue practice",""," ","","Practice","","","","","","","","","","","","","","",""
"","html-keyboard-response","72","135499","0.0-110.0","p2b9wnx1","1366","917","","","","","","","","","","","null","+","Fixation - short","","null","","","","","","","","","","","","","","","","",""
"","html-keyboard-response","73","137752","0.0-111.0","p2b9wnx1","","","","","","","","","","","","","2250","jil","Cue practice","","j","","Practice","0","13","false","false","true","both pre & post","RIGHT","RIGHT","j","1","true","","","",""
"","html-keyboard-response","74","138506","0.0-114.0","p2b9wnx1","1366","917","","","","","","","","","","","null","+","Fixation - short","","null","","","","","","","","","","","","","","","","",""
"","html-keyboard-response","75","139318","0.0-115.0","p2b9wnx1","","","","","","","","","","","","","810","jil","Cue practice","","j","","Practice","1","13","false","false","false","both pre & post","RIGHT","LEFT","f","0","false","","","",""
"","call-function","76","139320","0.0-117.0-0.0","p2b9wnx1","","","","","","","","","","","","","","","","","","","","","","","","","","","","","","","","","",""
"","html-keyboard-response","77","139623","0.0-117.0-1.0","p2b9wnx1","1366","917","","","","","","","","","","","null","Wrong","Feedback","","null","","","","","","","","","","","","","","","","",""
"","call-function","78","139625","0.0-117.0-2.0","p2b9wnx1","","","","","","","","","","","","","","","","","","","","","","","","","","","","","","","","","",""
"","html-keyboard-response","79","140378","0.0-118.0","p2b9wnx1","1366","917","","","","","","","","","","","null","+","Fixation - short","","null","","","","","","","","","","","","","","","","",""
"","html-keyboard-response","80","142742","0.0-119.0","p2b9wnx1","","","","","","","","","","","","","2361","drk","Cue practice","","f","","Practice","2","13","false","false","true","both pre & post","LEFT","RIGHT","j","0","false","","","",""
"","call-function","81","142744","0.0-121.0-0.0","p2b9wnx1","","","","","","","","","","","","","","","","","","","","","","","","","","","","","","","","","",""
"","html-keyboard-response","82","143048","0.0-121.0-1.0","p2b9wnx1","1366","917","","","","","","","","","","","null","Wrong","Feedback","","null","","","","","","","","","","","","","","","","",""
"","call-function","83","143050","0.0-121.0-2.0","p2b9wnx1","","","","","","","","","","","","","","","","","","","","","","","","","","","","","","","","","",""
"","html-keyboard-response","84","143804","0.0-122.0","p2b9wnx1","1366","917","","","","","","","","","","","null","+","Fixation - short","","null","","","","","","","","","","","","","","","","",""
"","html-keyboard-response","85","145791","0.0-123.0","p2b9wnx1","","","","","","","","","","","","","1984","drk","Cue practice","","j","","Practice","3","13","false","false","true","both pre & post","LEFT","RIGHT","j","1","false","","","",""
"","html-keyboard-response","86","146545","0.0-126.0","p2b9wnx1","1366","917","","","","","","","","","","","null","+","Fixation - short","","null","","","","","","","","","","","","","","","","",""
"","html-keyboard-response","87","147334","0.0-127.0","p2b9wnx1","","","","","","","","","","","","","785","drk","Cue practice","","f","","Practice","4","13","false","false","false","both pre & post","LEFT","LEFT","f","1","true","","","",""
"","html-keyboard-response","88","148088","0.0-130.0","p2b9wnx1","1366","917","","","","","","","","","","","null","+","Fixation - short","","null","","","","","","","","","","","","","","","","",""
"","html-keyboard-response","89","149519","0.0-131.0","p2b9wnx1","","","","","","","","","","","","","1427","jil","Cue practice","","f","","Practice","5","13","false","false","false","both pre & post","RIGHT","LEFT","f","1","false","","","",""
"","html-keyboard-response","90","150273","0.0-134.0","p2b9wnx1","1366","917","","","","","","","","","","","null","+","Fixation - short","","null","","","","","","","","","","","","","","","","",""
"","html-keyboard-response","91","150933","0.0-135.0","p2b9wnx1","","","","","","","","","","","","","657","jil","Cue practice","","f","","Practice","6","13","false","false","false","both pre & post","RIGHT","LEFT","f","1","false","","","",""
"","html-keyboard-response","92","151687","0.0-138.0","p2b9wnx1","1366","917","","","","","","","","","","","null","+","Fixation - short","","null","","","","","","","","","","","","","","","","",""
"","html-keyboard-response","93","152180","0.0-139.0","p2b9wnx1","","","","","","","","","","","","","489","jil","Cue practice","","f","","Practice","7","13","false","false","false","both pre & post","RIGHT","LEFT","f","1","false","","","",""
"","html-keyboard-response","94","152934","0.0-142.0","p2b9wnx1","1366","917","","","","","","","","","","","null","+","Fixation - short","","null","","","","","","","","","","","","","","","","",""
"","html-keyboard-response","95","153533","0.0-143.0","p2b9wnx1","","","","","","","","","","","","","595","jil","Cue practice","","j","","Practice","8","13","false","false","true","both pre & post","RIGHT","RIGHT","j","1","true","","","",""
"","html-keyboard-response","96","154287","0.0-146.0","p2b9wnx1","1366","917","","","","","","","","","","","null","+","Fixation - short","","null","","","","","","","","","","","","","","","","",""
"","html-keyboard-response","97","154798","0.0-147.0","p2b9wnx1","","","","","","","","","","","","","509","jil","Cue practice","","j","","Practice","9","13","false","false","true","both pre & post","RIGHT","RIGHT","j","1","true","","","",""
"","html-keyboard-response","98","155552","0.0-150.0","p2b9wnx1","1366","917","","","","","","","","","","","null","+","Fixation - short","","null","","","","","","","","","","","","","","","","",""
"","html-keyboard-response","99","156069","0.0-151.0","p2b9wnx1","","","","","","","","","","","","","513","jil","Cue practice","","j","","Practice","10","13","false","false","true","both pre & post","RIGHT","RIGHT","j","1","true","","","",""
"","html-keyboard-response","100","156823","0.0-154.0","p2b9wnx1","1366","917","","","","","","","","","","","null","+","Fixation - short","","null","","","","","","","","","","","","","","","","",""
"","html-keyboard-response","101","157215","0.0-155.0","p2b9wnx1","","","","","","","","","","","","","389","drk","Cue practice","","j","","Practice","11","13","false","false","true","both pre & post","LEFT","RIGHT","j","1","false","","","",""
"","html-keyboard-response","102","157970","0.0-158.0","p2b9wnx1","1366","917","","","","","","","","","","","null","+","Fixation - short","","null","","","","","","","","","","","","","","","","",""
"","html-keyboard-response","103","158631","0.0-159.0","p2b9wnx1","","","","","","","","","","","","","657","jil","Cue practice","","f","","Practice","12","13","false","false","false","both pre & post","RIGHT","LEFT","f","1","false","","","",""
"","html-keyboard-response","104","159384","0.0-162.0","p2b9wnx1","1366","917","","","","","","","","","","","null","+","Fixation - short","","null","","","","","","","","","","","","","","","","",""
"","canvas-keyboard-response","105","160643","0.0-163.0","p2b9wnx1","","","","","","","","","","","","","null","Cue","Cue","","null","","Practice","12","","","false","","","","","","","","","","",""
"","html-keyboard-response","106","161397","0.0-164.0","p2b9wnx1","1366","917","","","","","","","","","","","null","+","Fixation - short","","null","","","","","","","","","","","","","","","","",""
"","html-keyboard-response","107","162217","0.0-165.0","p2b9wnx1","","","","","","","","","","","","","817","drk","Cue practice","","j","","Practice","13","13","true","false","false","both pre & post","LEFT","LEFT","f","0","true","","","",""
"","call-function","108","162219","0.0-167.0-0.0","p2b9wnx1","","","","","","","","","","","","","","","","","","","","","","","","","","","","","","","","","",""
"","html-keyboard-response","109","162523","0.0-167.0-1.0","p2b9wnx1","1366","917","","","","","","","","","","","null","Wrong","Feedback","","null","","","","","","","","","","","","","","","","",""
"","call-function","110","162525","0.0-167.0-2.0","p2b9wnx1","","","","","","","","","","","","","","","","","","","","","","","","","","","","","","","","","",""
"","html-keyboard-response","111","163279","0.0-168.0","p2b9wnx1","1366","917","","","","","","","","","","","null","+","Fixation - short","","null","","","","","","","","","","","","","","","","",""
"","html-keyboard-response","112","164344","0.0-169.0","p2b9wnx1","","","","","","","","","","","","","1061","jil","Cue practice","","j","","Practice","14","13","true","false","true","both pre & post","RIGHT","RIGHT","j","1","true","","","",""
"","html-keyboard-response","113","165098","0.0-172.0","p2b9wnx1","1366","917","","","","","","","","","","","null","+","Fixation - short","","null","","","","","","","","","","","","","","","","",""
"","html-keyboard-response","114","165718","0.0-173.0","p2b9wnx1","","","","","","","","","","","","","617","drk","Cue practice","","j","","Practice","15","13","true","false","true","both pre & post","LEFT","RIGHT","j","1","false","","","",""
"","html-keyboard-response","115","166473","0.0-176.0","p2b9wnx1","1366","917","","","","","","","","","","","null","+","Fixation - short","","null","","","","","","","","","","","","","","","","",""
"","html-keyboard-response","116","167122","0.0-177.0","p2b9wnx1","","","","","","","","","","","","","646","jil","Inducer practice","","f","","Practice","","","","true","","","","","j","0","","false","RIGHT","",""
"","call-function","117","167125","0.0-179.0-0.0","p2b9wnx1","","","","","","","","","","","","","","","","","","","","","","","","","","","","","","","","","",""
"","html-keyboard-response","118","167429","0.0-179.0-1.0","p2b9wnx1","1366","917","","","","","","","","","","","null","Wrong","Feedback","","null","","","","","","","","","","","","","","","","",""
"","call-function","119","167431","0.0-179.0-2.0","p2b9wnx1","","","","","","","","","","","","","","","","","","","","","","","","","","","","","","","","","",""
"","html-keyboard-response","120","168185","0.0-180.0","p2b9wnx1","1366","917","","","","","","","","","","","null","+","Fixation - short","","null","","","","","","","","","","","","","","","","",""
"","instructions","121","174171","0.0-181.0","p2b9wnx1","","","","","","","","","","","","[{""page_index"":0,""viewing_time"":5981}]","5982","End practice","End of practice","","","","","","","","","","","","","","","","","","",""
"","html-keyboard-response","122","177177","0.0-182.0","p2b9wnx1","1366","917","","","","","","","","","","","null","+","Fixation - long","","null","","","","","","","","","","","","","","","","",""
"","html-keyboard-response","123","179886","0.0-183.0","p2b9wnx1","","","","","","","","","","","","","2704","If mik press RIGHT | If rbc press LEFT","Inducer instructions",""," ","","0","","","","","","","","","","","","","","",""
"","html-keyboard-response","124","180641","0.0-184.0","p2b9wnx1","1366","917","","","","","","","","","","","null","+","Fixation - short","","null","","","","","","","","","","","","","","","","",""
"","html-keyboard-response","125","181154","0.0-185.0","p2b9wnx1","","","","","","","","","","","","","511","mik","Diagnostic trial","","j","","0","0","4","false","false","true","both pre & post","RIGHT","RIGHT","j","1","true","","","",""
"","html-keyboard-response","126","181908","0.0-188.0","p2b9wnx1","1366","917","","","","","","","","","","","null","+","Fixation - short","","null","","","","","","","","","","","","","","","","",""
"","html-keyboard-response","127","182293","0.0-189.0","p2b9wnx1","","","","","","","","","","","","","382","mik","Diagnostic trial","","j","","0","1","4","false","false","true","both pre & post","RIGHT","RIGHT","j","1","true","","","",""
"","html-keyboard-response","128","183047","0.0-192.0","p2b9wnx1","1366","917","","","","","","","","","","","null","+","Fixation - short","","null","","","","","","","","","","","","","","","","",""
"","html-keyboard-response","129","183400","0.0-193.0","p2b9wnx1","","","","","","","","","","","","","350","mik","Diagnostic trial","","j","","0","2","4","false","false","true","both pre & post","RIGHT","RIGHT","j","1","true","","","",""
"","html-keyboard-response","130","184154","0.0-196.0","p2b9wnx1","1366","917","","","","","","","","","","","null","+","Fixation - short","","null","","","","","","","","","","","","","","","","",""
"","html-keyboard-response","131","184537","0.0-197.0","p2b9wnx1","","","","","","","","","","","","","379","mik","Diagnostic trial","","j","","0","3","4","false","false","true","both pre & post","RIGHT","RIGHT","j","1","true","","","",""
"","html-keyboard-response","132","185291","0.0-200.0","p2b9wnx1","1366","917","","","","","","","","","","","null","+","Fixation - short","","null","","","","","","","","","","","","","","","","",""
"","canvas-keyboard-response","133","186545","0.0-201.0","p2b9wnx1","","","","","","","","","","","","","null","Cue","Cue","","null","","0","3","","","false","","","","","","","","","","",""
"","html-keyboard-response","134","187300","0.0-202.0","p2b9wnx1","1366","917","","","","","","","","","","","null","+","Fixation - short","","null","","","","","","","","","","","","","","","","",""
"","html-keyboard-response","135","187803","0.0-203.0","p2b9wnx1","","","","","","","","","","","","","501","mik","Diagnostic trial","","j","","0","4","4","true","false","false","both pre & post","RIGHT","LEFT","f","0","false","","","",""
"","call-function","136","187805","0.0-205.0-0.0","p2b9wnx1","","","","","","","","","","","","","","","","","","","","","","","","","","","","","","","","","",""
"","html-keyboard-response","137","188109","0.0-205.0-1.0","p2b9wnx1","1366","917","","","","","","","","","","","null","Wrong","Feedback","","null","","","","","","","","","","","","","","","","",""
"","call-function","138","188111","0.0-205.0-2.0","p2b9wnx1","","","","","","","","","","","","","","","","","","","","","","","","","","","","","","","","","",""
"","html-keyboard-response","139","188865","0.0-206.0","p2b9wnx1","1366","917","","","","","","","","","","","null","+","Fixation - short","","null","","","","","","","","","","","","","","","","",""
"","html-keyboard-response","140","189608","0.0-207.0","p2b9wnx1","","","","","","","","","","","","","739","rbc","Inducer trial","","f","","0","","","","true","","","","","f","1","","false","LEFT","",""
"","html-keyboard-response","141","190362","0.0-210.0","p2b9wnx1","1366","917","","","","","","","","","","","null","+","Fixation - short","","null","","","","","","","","","","","","","","","","",""
"","html-keyboard-response","142","193887","0.0-211.0","p2b9wnx1","","","","","","","","","","","","","3521","If cnl press RIGHT | If cpt press LEFT","Inducer instructions",""," ","","1","","","","","","","","","","","","","","",""
"","html-keyboard-response","143","194640","0.0-212.0","p2b9wnx1","1366","917","","","","","","","","","","","null","+","Fixation - short","","null","","","","","","","","","","","","","","","","",""
"","html-keyboard-response","144","195517","0.0-213.0","p2b9wnx1","","","","","","","","","","","","","874","cpt","Diagnostic trial","","f","","1","0","5","false","false","true","both pre & post","LEFT","RIGHT","j","0","false","","","",""
"","call-function","145","195519","0.0-215.0-0.0","p2b9wnx1","","","","","","","","","","","","","","","","","","","","","","","","","","","","","","","","","",""
"","html-keyboard-response","146","195822","0.0-215.0-1.0","p2b9wnx1","1366","917","","","","","","","","","","","null","Wrong","Feedback","","null","","","","","","","","","","","","","","","","",""
"","call-function","147","195825","0.0-215.0-2.0","p2b9wnx1","","","","","","","","","","","","","","","","","","","","","","","","","","","","","","","","","",""
"","html-keyboard-response","148","196578","0.0-216.0","p2b9wnx1","1366","917","","","","","","","","","","","null","+","Fixation - short","","null","","","","","","","","","","","","","","","","",""
"","html-keyboard-response","149","197735","0.0-217.0","p2b9wnx1","","","","","","","","","","","","","1153","cpt","Diagnostic trial","","j","","1","1","5","false","false","true","both pre & post","LEFT","RIGHT","j","1","false","","","",""
"","html-keyboard-response","150","198489","0.0-220.0","p2b9wnx1","1366","917","","","","","","","","","","","null","+","Fixation - short","","null","","","","","","","","","","","","","","","","",""
"","html-keyboard-response","151","199297","0.0-221.0","p2b9wnx1","","","","","","","","","","","","","805","cnl","Diagnostic trial","","f","","1","2","5","false","false","false","both pre & post","RIGHT","LEFT","f","1","false","","","",""
"","html-keyboard-response","152","200051","0.0-224.0","p2b9wnx1","1366","917","","","","","","","","","","","null","+","Fixation - short","","null","","","","","","","","","","","","","","","","",""
"","html-keyboard-response","153","200911","0.0-225.0","p2b9wnx1","","","","","","","","","","","","","857","cpt","Diagnostic trial","","j","","1","3","5","false","false","false","both pre & post","LEFT","LEFT","f","0","true","","","",""
"","call-function","154","200912","0.0-227.0-0.0","p2b9wnx1","","","","","","","","","","","","","","","","","","","","","","","","","","","","","","","","","",""
"","html-keyboard-response","155","201215","0.0-227.0-1.0","p2b9wnx1","1366","917","","","","","","","","","","","null","Wrong","Feedback","","null","","","","","","","","","","","","","","","","",""
"","call-function","156","201218","0.0-227.0-2.0","p2b9wnx1","","","","","","","","","","","","","","","","","","","","","","","","","","","","","","","","","",""
"","html-keyboard-response","157","201971","0.0-228.0","p2b9wnx1","1366","917","","","","","","","","","","","null","+","Fixation - short","","null","","","","","","","","","","","","","","","","",""
"","html-keyboard-response","158","202632","0.0-229.0","p2b9wnx1","","","","","","","","","","","","","658","cnl","Diagnostic trial","","j","","1","4","5","false","false","true","both pre & post","RIGHT","RIGHT","j","1","true","","","",""
"","html-keyboard-response","159","203386","0.0-232.0","p2b9wnx1","1366","917","","","","","","","","","","","null","+","Fixation - short","","null","","","","","","","","","","","","","","","","",""
"","canvas-keyboard-response","160","204641","0.0-233.0","p2b9wnx1","","","","","","","","","","","","","null","Cue","Cue","","null","","1","4","","","false","","","","","","","","","","",""
"","html-keyboard-response","161","205395","0.0-234.0","p2b9wnx1","1366","917","","","","","","","","","","","null","+","Fixation - short","","null","","","","","","","","","","","","","","","","",""
"","html-keyboard-response","162","206120","0.0-235.0","p2b9wnx1","","","","","","","","","","","","","722","cnl","Diagnostic trial","","j","","1","5","5","true","false","true","both pre & post","RIGHT","RIGHT","j","1","true","","","",""
"","html-keyboard-response","163","206874","0.0-238.0","p2b9wnx1","1366","917","","","","","","","","","","","null","+","Fixation - short","","null","","","","","","","","","","","","","","","","",""
"","html-keyboard-response","164","207550","0.0-239.0","p2b9wnx1","","","","","","","","","","","","","673","cpt","Diagnostic trial","","f","","1","6","5","true","false","false","both pre & post","LEFT","LEFT","f","1","true","","","",""
"","html-keyboard-response","165","208304","0.0-242.0","p2b9wnx1","1366","917","","","","","","","","","","","null","+","Fixation - short","","null","","","","","","","","","","","","","","","","",""
"","html-keyboard-response","166","209068","0.0-243.0","p2b9wnx1","","","","","","","","","","","","","762","cpt","Diagnostic trial","","f","","1","7","5","true","false","true","both pre & post","LEFT","RIGHT","j","0","false","","","",""
"","call-function","167","209070","0.0-245.0-0.0","p2b9wnx1","","","","","","","","","","","","","","","","","","","","","","","","","","","","","","","","","",""
"","html-keyboard-response","168","209374","0.0-245.0-1.0","p2b9wnx1","1366","917","","","","","","","","","","","null","Wrong","Feedback","","null","","","","","","","","","","","","","","","","",""
"","call-function","169","209377","0.0-245.0-2.0","p2b9wnx1","","","","","","","","","","","","","","","","","","","","","","","","","","","","","","","","","",""
"","html-keyboard-response","170","210129","0.0-246.0","p2b9wnx1","1366","917","","","","","","","","","","","null","+","Fixation - short","","null","","","","","","","","","","","","","","","","",""
"","html-keyboard-response","171","210607","0.0-247.0","p2b9wnx1","","","","","","","","","","","","","476","cpt","Inducer trial","","j","","1","","","","true","","","","","f","0","","false","LEFT","",""
"","call-function","172","210609","0.0-249.0-0.0","p2b9wnx1","","","","","","","","","","","","","","","","","","","","","","","","","","","","","","","","","",""
"","html-keyboard-response","173","210912","0.0-249.0-1.0","p2b9wnx1","1366","917","","","","","","","","","","","null","Wrong","Feedback","","null","","","","","","","","","","","","","","","","",""
"","call-function","174","210915","0.0-249.0-2.0","p2b9wnx1","","","","","","","","","","","","","","","","","","","","","","","","","","","","","","","","","",""
"","html-keyboard-response","175","211669","0.0-250.0","p2b9wnx1","1366","917","","","","","","","","","","","null","+","Fixation - short","","null","","","","","","","","","","","","","","","","",""
"","html-keyboard-response","176","215193","0.0-251.0","p2b9wnx1","","","","","","","","","","","","","3522","If pcm press RIGHT | If dul press LEFT","Inducer instructions",""," ","","2","","","","","","","","","","","","","","",""
"","html-keyboard-response","177","215948","0.0-252.0","p2b9wnx1","1366","917","","","","","","","","","","","null","+","Fixation - short","","null","","","","","","","","","","","","","","","","",""
"","html-keyboard-response","178","216555","0.0-253.0","p2b9wnx1","","","","","","","","","","","","","604","pcm","Diagnostic trial","","j","","2","0","4","false","false","false","both pre & post","RIGHT","LEFT","f","0","false","","","",""
"","call-function","179","216557","0.0-255.0-0.0","p2b9wnx1","","","","","","","","","","","","","","","","","","","","","","","","","","","","","","","","","",""
"","html-keyboard-response","180","216860","0.0-255.0-1.0","p2b9wnx1","1366","917","","","","","","","","","","","null","Wrong","Feedback","","null","","","","","","","","","","","","","","","","",""
"","call-function","181","216862","0.0-255.0-2.0","p2b9wnx1","","","","","","","","","","","","","","","","","","","","","","","","","","","","","","","","","",""
"","html-keyboard-response","182","217616","0.0-256.0","p2b9wnx1","1366","917","","","","","","","","","","","null","+","Fixation - short","","null","","","","","","","","","","","","","","","","",""
"","html-keyboard-response","183","219422","0.0-257.0","p2b9wnx1","","","","","","","","","","","","","1803","dul","Diagnostic trial","","f","","2","1","4","false","false","false","both pre & post","LEFT","LEFT","f","1","true","","","",""
"","html-keyboard-response","184","220176","0.0-260.0","p2b9wnx1","1366","917","","","","","","","","","","","null","+","Fixation - short","","null","","","","","","","","","","","","","","","","",""
"","html-keyboard-response","185","220771","0.0-261.0","p2b9wnx1","","","","","","","","","","","","","593","dul","Diagnostic trial","","f","","2","2","4","false","false","false","both pre & post","LEFT","LEFT","f","1","true","","","",""
"","html-keyboard-response","186","221525","0.0-264.0","p2b9wnx1","1366","917","","","","","","","","","","","null","+","Fixation - short","","null","","","","","","","","","","","","","","","","",""
"","html-keyboard-response","187","222009","0.0-265.0","p2b9wnx1","","","","","","","","","","","","","481","dul","Diagnostic trial","","f","","2","3","4","false","false","true","both pre & post","LEFT","RIGHT","j","0","false","","","",""
"","call-function","188","222011","0.0-267.0-0.0","p2b9wnx1","","","","","","","","","","","","","","","","","","","","","","","","","","","","","","","","","",""
"","html-keyboard-response","189","222314","0.0-267.0-1.0","p2b9wnx1","1366","917","","","","","","","","","","","null","Wrong","Feedback","","null","","","","","","","","","","","","","","","","",""
"","call-function","190","222317","0.0-267.0-2.0","p2b9wnx1","","","","","","","","","","","","","","","","","","","","","","","","","","","","","","","","","",""
"","html-keyboard-response","191","223070","0.0-268.0","p2b9wnx1","1366","917","","","","","","","","","","","null","+","Fixation - short","","null","","","","","","","","","","","","","","","","",""
"","canvas-keyboard-response","192","224326","0.0-269.0","p2b9wnx1","","","","","","","","","","","","","null","Cue","Cue","","null","","2","3","","","false","","","","","","","","","","",""
"","html-keyboard-response","193","225080","0.0-270.0","p2b9wnx1","1366","917","","","","","","","","","","","null","+","Fixation - short","","null","","","","","","","","","","","","","","","","",""
"","html-keyboard-response","194","225536","0.0-271.0","p2b9wnx1","","","","","","","","","","","","","453","dul","Diagnostic trial","","j","","2","4","4","true","false","true","both pre & post","LEFT","RIGHT","j","1","false","","","",""
"","html-keyboard-response","195","226291","0.0-274.0","p2b9wnx1","1366","917","","","","","","","","","","","null","+","Fixation - short","","null","","","","","","","","","","","","","","","","",""
"","html-keyboard-response","196","226991","0.0-275.0","p2b9wnx1","","","","","","","","","","","","","698","pcm","Diagnostic trial","","f","","2","5","4","true","false","false","both pre & post","RIGHT","LEFT","f","1","false","","","",""
"","html-keyboard-response","197","227745","0.0-278.0","p2b9wnx1","1366","917","","","","","","","","","","","null","+","Fixation - short","","null","","","","","","","","","","","","","","","","",""
"","html-keyboard-response","198","228563","0.0-279.0","p2b9wnx1","","","","","","","","","","","","","815","dul","Diagnostic trial","","j","","2","6","4","true","false","false","both pre & post","LEFT","LEFT","f","0","true","","","",""
"","call-function","199","228564","0.0-281.0-0.0","p2b9wnx1","","","","","","","","","","","","","","","","","","","","","","","","","","","","","","","","","",""
"","html-keyboard-response","200","228868","0.0-281.0-1.0","p2b9wnx1","1366","917","","","","","","","","","","","null","Wrong","Feedback","","null","","","","","","","","","","","","","","","","",""
"","call-function","201","228870","0.0-281.0-2.0","p2b9wnx1","","","","","","","","","","","","","","","","","","","","","","","","","","","","","","","","","",""
"","html-keyboard-response","202","229624","0.0-282.0","p2b9wnx1","1366","917","","","","","","","","","","","null","+","Fixation - short","","null","","","","","","","","","","","","","","","","",""
"","html-keyboard-response","203","230558","0.0-283.0","p2b9wnx1","","","","","","","","","","","","","931","pcm","Diagnostic trial","","f","","2","7","4","true","false","false","both pre & post","RIGHT","LEFT","f","1","false","","","",""
"","html-keyboard-response","204","231312","0.0-286.0","p2b9wnx1","1366","917","","","","","","","","","","","null","+","Fixation - short","","null","","","","","","","","","","","","","","","","",""
"","html-keyboard-response","205","231952","0.0-287.0","p2b9wnx1","","","","","","","","","","","","","637","pcm","Inducer trial","","f","","2","","","","true","","","","","j","0","","false","RIGHT","",""
"","call-function","206","231954","0.0-289.0-0.0","p2b9wnx1","","","","","","","","","","","","","","","","","","","","","","","","","","","","","","","","","",""
"","html-keyboard-response","207","232257","0.0-289.0-1.0","p2b9wnx1","1366","917","","","","","","","","","","","null","Wrong","Feedback","","null","","","","","","","","","","","","","","","","",""
"","call-function","208","232260","0.0-289.0-2.0","p2b9wnx1","","","","","","","","","","","","","","","","","","","","","","","","","","","","","","","","","",""
"","html-keyboard-response","209","233013","0.0-290.0","p2b9wnx1","1366","917","","","","","","","","","","","null","+","Fixation - short","","null","","","","","","","","","","","","","","","","",""
"","html-keyboard-response","210","234881","0.0-291.0","p2b9wnx1","","","","","","","","","","","","","1865","If fuc press RIGHT | If edc press LEFT","Inducer instructions",""," ","","3","","","","","","","","","","","","","","",""
"","html-keyboard-response","211","235635","0.0-292.0","p2b9wnx1","1366","917","","","","","","","","","","","null","+","Fixation - short","","null","","","","","","","","","","","","","","","","",""
"","html-keyboard-response","212","236437","0.0-293.0","p2b9wnx1","","","","","","","","","","","","","800","fuc","Diagnostic trial","","j","","3","0","10","false","false","false","both pre & post","RIGHT","LEFT","f","0","false","","","",""
"","call-function","213","236439","0.0-295.0-0.0","p2b9wnx1","","","","","","","","","","","","","","","","","","","","","","","","","","","","","","","","","",""
"","html-keyboard-response","214","236742","0.0-295.0-1.0","p2b9wnx1","1366","917","","","","","","","","","","","null","Wrong","Feedback","","null","","","","","","","","","","","","","","","","",""
"","call-function","215","236745","0.0-295.0-2.0","p2b9wnx1","","","","","","","","","","","","","","","","","","","","","","","","","","","","","","","","","",""
"","html-keyboard-response","216","237498","0.0-296.0","p2b9wnx1","1366","917","","","","","","","","","","","null","+","Fixation - short","","null","","","","","","","","","","","","","","","","",""
"","html-keyboard-response","217","239118","0.0-297.0","p2b9wnx1","","","","","","","","","","","","","1616","edc","Diagnostic trial","","f","","3","1","10","false","false","false","both pre & post","LEFT","LEFT","f","1","true","","","",""
"","html-keyboard-response","218","239872","0.0-300.0","p2b9wnx1","1366","917","","","","","","","","","","","null","+","Fixation - short","","null","","","","","","","","","","","","","","","","",""
"","html-keyboard-response","219","240609","0.0-301.0","p2b9wnx1","","","","","","","","","","","","","736","fuc","Diagnostic trial","","f","","3","2","10","false","false","false","both pre & post","RIGHT","LEFT","f","1","false","","","",""
"","html-keyboard-response","220","241363","0.0-304.0","p2b9wnx1","1366","917","","","","","","","","","","","null","+","Fixation - short","","null","","","","","","","","","","","","","","","","",""
"","html-keyboard-response","221","242150","0.0-305.0","p2b9wnx1","","","","","","","","","","","","","784","edc","Diagnostic trial","","f","","3","3","10","false","false","true","both pre & post","LEFT","RIGHT","j","0","false","","","",""
"","call-function","222","242152","0.0-307.0-0.0","p2b9wnx1","","","","","","","","","","","","","","","","","","","","","","","","","","","","","","","","","",""
"","html-keyboard-response","223","242455","0.0-307.0-1.0","p2b9wnx1","1366","917","","","","","","","","","","","null","Wrong","Feedback","","null","","","","","","","","","","","","","","","","",""
"","call-function","224","242458","0.0-307.0-2.0","p2b9wnx1","","","","","","","","","","","","","","","","","","","","","","","","","","","","","","","","","",""
"","html-keyboard-response","225","243211","0.0-308.0","p2b9wnx1","1366","917","","","","","","","","","","","null","+","Fixation - short","","null","","","","","","","","","","","","","","","","",""
"","html-keyboard-response","226","243805","0.0-309.0","p2b9wnx1","","","","","","","","","","","","","590","edc","Diagnostic trial","","j","","3","4","10","false","false","true","both pre & post","LEFT","RIGHT","j","1","false","","","",""
"","html-keyboard-response","227","244558","0.0-312.0","p2b9wnx1","1366","917","","","","","","","","","","","null","+","Fixation - short","","null","","","","","","","","","","","","","","","","",""
"","html-keyboard-response","228","244976","0.0-313.0","p2b9wnx1","","","","","","","","","","","","","416","edc","Diagnostic trial","","j","","3","5","10","false","false","true","both pre & post","LEFT","RIGHT","j","1","false","","","",""
"","html-keyboard-response","229","245730","0.0-316.0","p2b9wnx1","1366","917","","","","","","","","","","","null","+","Fixation - short","","null","","","","","","","","","","","","","","","","",""
"","html-keyboard-response","230","246460","0.0-317.0","p2b9wnx1","","","","","","","","","","","","","728","edc","Diagnostic trial","","f","","3","6","10","false","false","false","both pre & post","LEFT","LEFT","f","1","true","","","",""
"","html-keyboard-response","231","247214","0.0-320.0","p2b9wnx1","1366","917","","","","","","","","","","","null","+","Fixation - short","","null","","","","","","","","","","","","","","","","",""
"","html-keyboard-response","232","247931","0.0-321.0","p2b9wnx1","","","","","","","","","","","","","715","edc","Diagnostic trial","","j","","3","7","10","false","false","true","both pre & post","LEFT","RIGHT","j","1","false","","","",""
"","html-keyboard-response","233","248685","0.0-324.0","p2b9wnx1","1366","917","","","","","","","","","","","null","+","Fixation - short","","null","","","","","","","","","","","","","","","","",""
"","html-keyboard-response","234","249410","0.0-325.0","p2b9wnx1","","","","","","","","","","","","","722","edc","Diagnostic trial","","f","","3","8","10","false","false","false","both pre & post","LEFT","LEFT","f","1","true","","","",""
"","html-keyboard-response","235","250163","0.0-328.0","p2b9wnx1","1366","917","","","","","","","","","","","null","+","Fixation - short","","null","","","","","","","","","","","","","","","","",""
"","html-keyboard-response","236","250760","0.0-329.0","p2b9wnx1","","","","","","","","","","","","","594","edc","Diagnostic trial","","f","","3","9","10","false","false","false","both pre & post","LEFT","LEFT","f","1","true","","","",""
"","html-keyboard-response","237","251513","0.0-332.0","p2b9wnx1","1366","917","","","","","","","","","","","null","+","Fixation - short","","null","","","","","","","","","","","","","","","","",""
"","canvas-keyboard-response","238","252767","0.0-333.0","p2b9wnx1","","","","","","","","","","","","","null","Cue","Cue","","null","","3","9","","","false","","","","","","","","","","",""
"","html-keyboard-response","239","253521","0.0-334.0","p2b9wnx1","1366","917","","","","","","","","","","","null","+","Fixation - short","","null","","","","","","","","","","","","","","","","",""
"","html-keyboard-response","240","254202","0.0-335.0","p2b9wnx1","","","","","","","","","","","","","678","edc","Diagnostic trial","","j","","3","10","10","true","false","true","both pre & post","LEFT","RIGHT","j","1","false","","","",""
"","html-keyboard-response","241","254955","0.0-338.0","p2b9wnx1","1366","917","","","","","","","","","","","null","+","Fixation - short","","null","","","","","","","","","","","","","","","","",""
"","html-keyboard-response","242","255933","0.0-339.0","p2b9wnx1","","","","","","","","","","","","","975","fuc","Inducer trial","","j","","3","","","","true","","","","","j","1","","false","RIGHT","",""
"","html-keyboard-response","243","256687","0.0-342.0","p2b9wnx1","1366","917","","","","","","","","","","","null","+","Fixation - short","","null","","","","","","","","","","","","","","","","",""
"","html-keyboard-response","244","258576","0.0-343.0","p2b9wnx1","","","","","","","","","","","","","1886","If tgf press RIGHT | If ois press LEFT","Inducer instructions",""," ","","4","","","","","","","","","","","","","","",""
"","html-keyboard-response","245","259330","0.0-344.0","p2b9wnx1","1366","917","","","","","","","","","","","null","+","Fixation - short","","null","","","","","","","","","","","","","","","","",""
"","html-keyboard-response","246","260690","0.0-345.0","p2b9wnx1","","","","","","","","","","","","","1358","tgf","Diagnostic trial","","f","","4","0","5","false","false","false","both pre & post","RIGHT","LEFT","f","1","false","","","",""
"","html-keyboard-response","247","261445","0.0-348.0","p2b9wnx1","1366","917","","","","","","","","","","","null","+","Fixation - short","","null","","","","","","","","","","","","","","","","",""
"","html-keyboard-response","248","262192","0.0-349.0","p2b9wnx1","","","","","","","","","","","","","745","tgf","Diagnostic trial","","f","","4","1","5","false","false","false","both pre & post","RIGHT","LEFT","f","1","false","","","",""
"","html-keyboard-response","249","262946","0.0-352.0","p2b9wnx1","1366","917","","","","","","","","","","","null","+","Fixation - short","","null","","","","","","","","","","","","","","","","",""
"","html-keyboard-response","250","263718","0.0-353.0","p2b9wnx1","","","","","","","","","","","","","769","ois","Diagnostic trial","","j","","4","2","5","false","false","true","both pre & post","LEFT","RIGHT","j","1","false","","","",""
"","html-keyboard-response","251","264472","0.0-356.0","p2b9wnx1","1366","917","","","","","","","","","","","null","+","Fixation - short","","null","","","","","","","","","","","","","","","","",""
"","html-keyboard-response","252","266007","0.0-357.0","p2b9wnx1","","","","","","","","","","","","","1532","ois","Diagnostic trial","","f","","4","3","5","false","false","false","both pre & post","LEFT","LEFT","f","1","true","","","",""
"","html-keyboard-response","253","266761","0.0-360.0","p2b9wnx1","1366","917","","","","","","","","","","","null","+","Fixation - short","","null","","","","","","","","","","","","","","","","",""
"","html-keyboard-response","254","267299","0.0-361.0","p2b9wnx1","","","","","","","","","","","","","536","ois","Diagnostic trial","","f","","4","4","5","false","false","false","both pre & post","LEFT","LEFT","f","1","true","","","",""
"","html-keyboard-response","255","268054","0.0-364.0","p2b9wnx1","1366","917","","","","","","","","","","","null","+","Fixation - short","","null","","","","","","","","","","","","","","","","",""
"","canvas-keyboard-response","256","269309","0.0-365.0","p2b9wnx1","","","","","","","","","","","","","null","Cue","Cue","","null","","4","4","","","false","","","","","","","","","","",""
"","html-keyboard-response","257","270063","0.0-366.0","p2b9wnx1","1366","917","","","","","","","","","","","null","+","Fixation - short","","null","","","","","","","","","","","","","","","","",""
"","html-keyboard-response","258","271305","0.0-367.0","p2b9wnx1","","","","","","","","","","","","","1239","tgf","Diagnostic trial","","j","","4","5","5","true","false","true","both pre & post","RIGHT","RIGHT","j","1","true","","","",""
"","html-keyboard-response","259","272059","0.0-370.0","p2b9wnx1","1366","917","","","","","","","","","","","null","+","Fixation - short","","null","","","","","","","","","","","","","","","","",""
"","html-keyboard-response","260","273011","0.0-371.0","p2b9wnx1","","","","","","","","","","","","","950","ois","Diagnostic trial","","f","","4","6","5","true","false","false","both pre & post","LEFT","LEFT","f","1","true","","","",""
"","html-keyboard-response","261","273765","0.0-374.0","p2b9wnx1","1366","917","","","","","","","","","","","null","+","Fixation - short","","null","","","","","","","","","","","","","","","","",""
"","html-keyboard-response","262","274330","0.0-375.0","p2b9wnx1","","","","","","","","","","","","","562","ois","Diagnostic trial","","f","","4","7","5","true","false","false","both pre & post","LEFT","LEFT","f","1","true","","","",""
"","html-keyboard-response","263","275084","0.0-378.0","p2b9wnx1","1366","917","","","","","","","","","","","null","+","Fixation - short","","null","","","","","","","","","","","","","","","","",""
"","html-keyboard-response","264","275967","0.0-379.0","p2b9wnx1","","","","","","","","","","","","","879","ois","Diagnostic trial","","j","","4","8","5","true","false","true","both pre & post","LEFT","RIGHT","j","1","false","","","",""
"","html-keyboard-response","265","276721","0.0-382.0","p2b9wnx1","1366","917","","","","","","","","","","","null","+","Fixation - short","","null","","","","","","","","","","","","","","","","",""
"","html-keyboard-response","266","277425","0.0-383.0","p2b9wnx1","","","","","","","","","","","","","700","tgf","Inducer trial","","j","","4","","","","true","","","","","j","1","","false","RIGHT","",""
"","html-keyboard-response","267","278180","0.0-386.0","p2b9wnx1","1366","917","","","","","","","","","","","null","+","Fixation - short","","null","","","","","","","","","","","","","","","","",""
"","html-keyboard-response","268","279475","0.0-387.0","p2b9wnx1","","","","","","","","","","","","","1292","If yoy press RIGHT | If kue press LEFT","Inducer instructions",""," ","","5","","","","","","","","","","","","","","",""
"","html-keyboard-response","269","280229","0.0-388.0","p2b9wnx1","1366","917","","","","","","","","","","","null","+","Fixation - short","","null","","","","","","","","","","","","","","","","",""
"","html-keyboard-response","270","281424","0.0-389.0","p2b9wnx1","","","","","","","","","","","","","1192","yoy","Diagnostic trial","","f","","5","0","10","false","false","false","both pre & post","RIGHT","LEFT","f","1","false","","","",""
"","html-keyboard-response","271","282178","0.0-392.0","p2b9wnx1","1366","917","","","","","","","","","","","null","+","Fixation - short","","null","","","","","","","","","","","","","","","","",""
"","html-keyboard-response","272","282804","0.0-393.0","p2b9wnx1","","","","","","","","","","","","","623","yoy","Diagnostic trial","","j","","5","1","10","false","false","true","both pre & post","RIGHT","RIGHT","j","1","true","","","",""
"","html-keyboard-response","273","283558","0.0-396.0","p2b9wnx1","1366","917","","","","","","","","","","","null","+","Fixation - short","","null","","","","","","","","","","","","","","","","",""
"","html-keyboard-response","274","284908","0.0-397.0","p2b9wnx1","","","","","","","","","","","","","1348","kue","Diagnostic trial","","f","","5","2","10","false","false","false","both pre & post","LEFT","LEFT","f","1","true","","","",""
"","html-keyboard-response","275","285662","0.0-400.0","p2b9wnx1","1366","917","","","","","","","","","","","null","+","Fixation - short","","null","","","","","","","","","","","","","","","","",""
"","html-keyboard-response","276","286136","0.0-401.0","p2b9wnx1","","","","","","","","","","","","","471","kue","Diagnostic trial","","f","","5","3","10","false","false","false","both pre & post","LEFT","LEFT","f","1","true","","","",""
"","html-keyboard-response","277","286890","0.0-404.0","p2b9wnx1","1366","917","","","","","","","","","","","null","+","Fixation - short","","null","","","","","","","","","","","","","","","","",""
"","html-keyboard-response","278","287533","0.0-405.0","p2b9wnx1","","","","","","","","","","","","","641","kue","Diagnostic trial","","j","","5","4","10","false","false","true","both pre & post","LEFT","RIGHT","j","1","false","","","",""
"","html-keyboard-response","279","288287","0.0-408.0","p2b9wnx1","1366","917","","","","","","","","","","","null","+","Fixation - short","","null","","","","","","","","","","","","","","","","",""
"","html-keyboard-response","280","288813","0.0-409.0","p2b9wnx1","","","","","","","","","","","","","524","kue","Diagnostic trial","","j","","5","5","10","false","false","true","both pre & post","LEFT","RIGHT","j","1","false","","","",""
"","html-keyboard-response","281","289567","0.0-412.0","p2b9wnx1","1366","917","","","","","","","","","","","null","+","Fixation - short","","null","","","","","","","","","","","","","","","","",""
"","html-keyboard-response","282","290202","0.0-413.0","p2b9wnx1","","","","","","","","","","","","","632","yoy","Diagnostic trial","","j","","5","6","10","false","false","true","both pre & post","RIGHT","RIGHT","j","1","true","","","",""
"","html-keyboard-response","283","290956","0.0-416.0","p2b9wnx1","1366","917","","","","","","","","","","","null","+","Fixation - short","","null","","","","","","","","","","","","","","","","",""
"","html-keyboard-response","284","291779","0.0-417.0","p2b9wnx1","","","","","","","","","","","","","821","kue","Diagnostic trial","","f","","5","7","10","false","false","false","both pre & post","LEFT","LEFT","f","1","true","","","",""
"","html-keyboard-response","285","292534","0.0-420.0","p2b9wnx1","1366","917","","","","","","","","","","","null","+","Fixation - short","","null","","","","","","","","","","","","","","","","",""
"","html-keyboard-response","286","293049","0.0-421.0","p2b9wnx1","","","","","","","","","","","","","513","yoy","Diagnostic trial","","f","","5","8","10","false","false","true","both pre & post","RIGHT","RIGHT","j","0","true","","","",""
"","call-function","287","293050","0.0-423.0-0.0","p2b9wnx1","","","","","","","","","","","","","","","","","","","","","","","","","","","","","","","","","",""
"","html-keyboard-response","288","293353","0.0-423.0-1.0","p2b9wnx1","1366","917","","","","","","","","","","","null","Wrong","Feedback","","null","","","","","","","","","","","","","","","","",""
"","call-function","289","293356","0.0-423.0-2.0","p2b9wnx1","","","","","","","","","","","","","","","","","","","","","","","","","","","","","","","","","",""
"","html-keyboard-response","290","294109","0.0-424.0","p2b9wnx1","1366","917","","","","","","","","","","","null","+","Fixation - short","","null","","","","","","","","","","","","","","","","",""
"","html-keyboard-response","291","294734","0.0-425.0","p2b9wnx1","","","","","","","","","","","","","623","kue","Diagnostic trial","","j","","5","9","10","false","false","true","both pre & post","LEFT","RIGHT","j","1","false","","","",""
"","html-keyboard-response","292","295489","0.0-428.0","p2b9wnx1","1366","917","","","","","","","","","","","null","+","Fixation - short","","null","","","","","","","","","","","","","","","","",""
"","canvas-keyboard-response","293","296744","0.0-429.0","p2b9wnx1","","","","","","","","","","","","","null","Cue","Cue","","null","","5","9","","","false","","","","","","","","","","",""
"","html-keyboard-response","294","297498","0.0-430.0","p2b9wnx1","1366","917","","","","","","","","","","","null","+","Fixation - short","","null","","","","","","","","","","","","","","","","",""
"","html-keyboard-response","295","298351","0.0-431.0","p2b9wnx1","","","","","","","","","","","","","851","yoy","Diagnostic trial","","j","","5","10","10","true","false","true","both pre & post","RIGHT","RIGHT","j","1","true","","","",""
"","html-keyboard-response","296","299104","0.0-434.0","p2b9wnx1","1366","917","","","","","","","","","","","null","+","Fixation - short","","null","","","","","","","","","","","","","","","","",""
"","html-keyboard-response","297","300000","0.0-435.0","p2b9wnx1","","","","","","","","","","","","","893","kue","Diagnostic trial","","f","","5","11","10","true","false","false","both pre & post","LEFT","LEFT","f","1","true","","","",""
"","html-keyboard-response","298","300754","0.0-438.0","p2b9wnx1","1366","917","","","","","","","","","","","null","+","Fixation - short","","null","","","","","","","","","","","","","","","","",""
"","html-keyboard-response","299","301951","0.0-439.0","p2b9wnx1","","","","","","","","","","","","","1194","yoy","Inducer trial","","j","","5","","","","true","","","","","j","1","","false","RIGHT","",""
"","html-keyboard-response","300","302705","0.0-442.0","p2b9wnx1","1366","917","","","","","","","","","","","null","+","Fixation - short","","null","","","","","","","","","","","","","","","","",""
"","html-keyboard-response","301","303754","0.0-443.0","p2b9wnx1","","","","","","","","","","","","","1047","If zpl press RIGHT | If lff press LEFT","Inducer instructions",""," ","","6","","","","","","","","","","","","","","",""
"","html-keyboard-response","302","304507","0.0-444.0","p2b9wnx1","1366","917","","","","","","","","","","","null","+","Fixation - short","","null","","","","","","","","","","","","","","","","",""
"","html-keyboard-response","303","305424","0.0-445.0","p2b9wnx1","","","","","","","","","","","","","913","zpl","Diagnostic trial","","j","","6","0","4","false","false","false","both pre & post","RIGHT","LEFT","f","0","false","","","",""
"","call-function","304","305425","0.0-447.0-0.0","p2b9wnx1","","","","","","","","","","","","","","","","","","","","","","","","","","","","","","","","","",""
"","html-keyboard-response","305","305728","0.0-447.0-1.0","p2b9wnx1","1366","917","","","","","","","","","","","null","Wrong","Feedback","","null","","","","","","","","","","","","","","","","",""
"","call-function","306","305730","0.0-447.0-2.0","p2b9wnx1","","","","","","","","","","","","","","","","","","","","","","","","","","","","","","","","","",""
"","html-keyboard-response","307","306483","0.0-448.0","p2b9wnx1","1366","917","","","","","","","","","","","null","+","Fixation - short","","null","","","","","","","","","","","","","","","","",""
"","html-keyboard-response","308","307210","0.0-449.0","p2b9wnx1","","","","","","","","","","","","","723","zpl","Diagnostic trial","","j","","6","1","4","false","false","false","both pre & post","RIGHT","LEFT","f","0","false","","","",""
"","call-function","309","307211","0.0-451.0-0.0","p2b9wnx1","","","","","","","","","","","","","","","","","","","","","","","","","","","","","","","","","",""
"","html-keyboard-response","310","307515","0.0-451.0-1.0","p2b9wnx1","1366","917","","","","","","","","","","","null","Wrong","Feedback","","null","","","","","","","","","","","","","","","","",""
"","call-function","311","307517","0.0-451.0-2.0","p2b9wnx1","","","","","","","","","","","","","","","","","","","","","","","","","","","","","","","","","",""
"","html-keyboard-response","312","308271","0.0-452.0","p2b9wnx1","1366","917","","","","","","","","","","","null","+","Fixation - short","","null","","","","","","","","","","","","","","","","",""
"","html-keyboard-response","313","309039","0.0-453.0","p2b9wnx1","","","","","","","","","","","","","766","lff","Diagnostic trial","","j","","6","2","4","false","false","true","both pre & post","LEFT","RIGHT","j","1","false","","","",""
"","html-keyboard-response","314","309793","0.0-456.0","p2b9wnx1","1366","917","","","","","","","","","","","null","+","Fixation - short","","null","","","","","","","","","","","","","","","","",""
"","html-keyboard-response","315","310226","0.0-457.0","p2b9wnx1","","","","","","","","","","","","","430","lff","Diagnostic trial","","j","","6","3","4","false","false","false","both pre & post","LEFT","LEFT","f","0","true","","","",""
"","call-function","316","310228","0.0-459.0-0.0","p2b9wnx1","","","","","","","","","","","","","","","","","","","","","","","","","","","","","","","","","",""
"","html-keyboard-response","317","310531","0.0-459.0-1.0","p2b9wnx1","1366","917","","","","","","","","","","","null","Wrong","Feedback","","null","","","","","","","","","","","","","","","","",""
"","call-function","318","310534","0.0-459.0-2.0","p2b9wnx1","","","","","","","","","","","","","","","","","","","","","","","","","","","","","","","","","",""
"","html-keyboard-response","319","311288","0.0-460.0","p2b9wnx1","1366","917","","","","","","","","","","","null","+","Fixation - short","","null","","","","","","","","","","","","","","","","",""
"","canvas-keyboard-response","320","312542","0.0-461.0","p2b9wnx1","","","","","","","","","","","","","null","Cue","Cue","","null","","6","3","","","false","","","","","","","","","","",""
"","html-keyboard-response","321","313295","0.0-462.0","p2b9wnx1","1366","917","","","","","","","","","","","null","+","Fixation - short","","null","","","","","","","","","","","","","","","","",""
"","html-keyboard-response","322","314283","0.0-463.0","p2b9wnx1","","","","","","","","","","","","","985","zpl","Diagnostic trial","","j","","6","4","4","true","false","true","both pre & post","RIGHT","RIGHT","j","1","true","","","",""
"","html-keyboard-response","323","315037","0.0-466.0","p2b9wnx1","1366","917","","","","","","","","","","","null","+","Fixation - short","","null","","","","","","","","","","","","","","","","",""
"","html-keyboard-response","324","315463","0.0-467.0","p2b9wnx1","","","","","","","","","","","","","425","zpl","Diagnostic trial","","j","","6","5","4","true","false","true","both pre & post","RIGHT","RIGHT","j","1","true","","","",""
"","html-keyboard-response","325","316217","0.0-470.0","p2b9wnx1","1366","917","","","","","","","","","","","null","+","Fixation - short","","null","","","","","","","","","","","","","","","","",""
"","html-keyboard-response","326","316766","0.0-471.0","p2b9wnx1","","","","","","","","","","","","","546","lff","Diagnostic trial","","j","","6","6","4","true","false","true","both pre & post","LEFT","RIGHT","j","1","false","","","",""
"","html-keyboard-response","327","317520","0.0-474.0","p2b9wnx1","1366","917","","","","","","","","","","","null","+","Fixation - short","","null","","","","","","","","","","","","","","","","",""
"","html-keyboard-response","328","318062","0.0-475.0","p2b9wnx1","","","","","","","","","","","","","539","zpl","Diagnostic trial","","j","","6","7","4","true","false","true","both pre & post","RIGHT","RIGHT","j","1","true","","","",""
"","html-keyboard-response","329","318815","0.0-478.0","p2b9wnx1","1366","917","","","","","","","","","","","null","+","Fixation - short","","null","","","","","","","","","","","","","","","","",""
"","html-keyboard-response","330","319385","0.0-479.0","p2b9wnx1","","","","","","","","","","","","","567","lff","Inducer trial","","j","","6","","","","true","","","","","f","0","","false","LEFT","",""
"","call-function","331","319387","0.0-481.0-0.0","p2b9wnx1","","","","","","","","","","","","","","","","","","","","","","","","","","","","","","","","","",""
"","html-keyboard-response","332","319690","0.0-481.0-1.0","p2b9wnx1","1366","917","","","","","","","","","","","null","Wrong","Feedback","","null","","","","","","","","","","","","","","","","",""
"","call-function","333","319692","0.0-481.0-2.0","p2b9wnx1","","","","","","","","","","","","","","","","","","","","","","","","","","","","","","","","","",""
"","html-keyboard-response","334","320446","0.0-482.0","p2b9wnx1","1366","917","","","","","","","","","","","null","+","Fixation - short","","null","","","","","","","","","","","","","","","","",""
"","html-keyboard-response","335","324313","0.0-483.0","p2b9wnx1","","","","","","","","","","","","","3865","If pte press RIGHT | If vrm press LEFT","Inducer instructions",""," ","","7","","","","","","","","","","","","","","",""
"","html-keyboard-response","336","325067","0.0-484.0","p2b9wnx1","1366","917","","","","","","","","","","","null","+","Fixation - short","","null","","","","","","","","","","","","","","","","",""
"","html-keyboard-response","337","326377","0.0-485.0","p2b9wnx1","","","","","","","","","","","","","1308","vrm","Diagnostic trial","","j","","7","0","9","false","false","true","both pre & post","LEFT","RIGHT","j","1","false","","","",""
"","html-keyboard-response","338","327131","0.0-488.0","p2b9wnx1","1366","917","","","","","","","","","","","null","+","Fixation - short","","null","","","","","","","","","","","","","","","","",""
"","html-keyboard-response","339","327803","0.0-489.0","p2b9wnx1","","","","","","","","","","","","","670","pte","Diagnostic trial","","f","","7","1","9","false","false","false","both pre & post","RIGHT","LEFT","f","1","false","","","",""
"","html-keyboard-response","340","328557","0.0-492.0","p2b9wnx1","1366","917","","","","","","","","","","","null","+","Fixation - short","","null","","","","","","","","","","","","","","","","",""
"","html-keyboard-response","341","328957","0.0-493.0","p2b9wnx1","","","","","","","","","","","","","397","vrm","Diagnostic trial","","j","","7","2","9","false","false","false","both pre & post","LEFT","LEFT","f","0","true","","","",""
"","call-function","342","328959","0.0-495.0-0.0","p2b9wnx1","","","","","","","","","","","","","","","","","","","","","","","","","","","","","","","","","",""
"","html-keyboard-response","343","329262","0.0-495.0-1.0","p2b9wnx1","1366","917","","","","","","","","","","","null","Wrong","Feedback","","null","","","","","","","","","","","","","","","","",""
"","call-function","344","329264","0.0-495.0-2.0","p2b9wnx1","","","","","","","","","","","","","","","","","","","","","","","","","","","","","","","","","",""
"","html-keyboard-response","345","330018","0.0-496.0","p2b9wnx1","1366","917","","","","","","","","","","","null","+","Fixation - short","","null","","","","","","","","","","","","","","","","",""
"","html-keyboard-response","346","330585","0.0-497.0","p2b9wnx1","","","","","","","","","","","","","565","pte","Diagnostic trial","","j","","7","3","9","false","false","true","both pre & post","RIGHT","RIGHT","j","1","true","","","",""
"","html-keyboard-response","347","331338","0.0-500.0","p2b9wnx1","1366","917","","","","","","","","","","","null","+","Fixation - short","","null","","","","","","","","","","","","","","","","",""
"","html-keyboard-response","348","332014","0.0-501.0","p2b9wnx1","","","","","","","","","","","","","673","pte","Diagnostic trial","","f","","7","4","9","false","false","false","both pre & post","RIGHT","LEFT","f","1","false","","","",""
"","html-keyboard-response","349","332768","0.0-504.0","p2b9wnx1","1366","917","","","","","","","","","","","null","+","Fixation - short","","null","","","","","","","","","","","","","","","","",""
"","html-keyboard-response","350","333288","0.0-505.0","p2b9wnx1","","","","","","","","","","","","","517","pte","Diagnostic trial","","f","","7","5","9","false","false","false","both pre & post","RIGHT","LEFT","f","1","false","","","",""
"","html-keyboard-response","351","334042","0.0-508.0","p2b9wnx1","1366","917","","","","","","","","","","","null","+","Fixation - short","","null","","","","","","","","","","","","","","","","",""
"","html-keyboard-response","352","334562","0.0-509.0","p2b9wnx1","","","","","","","","","","","","","517","pte","Diagnostic trial","","f","","7","6","9","false","false","true","both pre & post","RIGHT","RIGHT","j","0","true","","","",""
"","call-function","353","334564","0.0-511.0-0.0","p2b9wnx1","","","","","","","","","","","","","","","","","","","","","","","","","","","","","","","","","",""
"","html-keyboard-response","354","334868","0.0-511.0-1.0","p2b9wnx1","1366","917","","","","","","","","","","","null","Wrong","Feedback","","null","","","","","","","","","","","","","","","","",""
"","call-function","355","334870","0.0-511.0-2.0","p2b9wnx1","","","","","","","","","","","","","","","","","","","","","","","","","","","","","","","","","",""
"","html-keyboard-response","356","335624","0.0-512.0","p2b9wnx1","1366","917","","","","","","","","","","","null","+","Fixation - short","","null","","","","","","","","","","","","","","","","",""
"","html-keyboard-response","357","336457","0.0-513.0","p2b9wnx1","","","","","","","","","","","","","830","pte","Diagnostic trial","","f","","7","7","9","false","false","false","both pre & post","RIGHT","LEFT","f","1","false","","","",""
"","html-keyboard-response","358","337212","0.0-516.0","p2b9wnx1","1366","917","","","","","","","","","","","null","+","Fixation - short","","null","","","","","","","","","","","","","","","","",""
"","html-keyboard-response","359","337755","0.0-517.0","p2b9wnx1","","","","","","","","","","","","","540","vrm","Diagnostic trial","","j","","7","8","9","false","false","true","both pre & post","LEFT","RIGHT","j","1","false","","","",""
"","html-keyboard-response","360","338509","0.0-520.0","p2b9wnx1","1366","917","","","","","","","","","","","null","+","Fixation - short","","null","","","","","","","","","","","","","","","","",""
"","canvas-keyboard-response","361","339764","0.0-521.0","p2b9wnx1","","","","","","","","","","","","","null","Cue","Cue","","null","","7","8","","","false","","","","","","","","","","",""
"","html-keyboard-response","362","340518","0.0-522.0","p2b9wnx1","1366","917","","","","","","","","","","","null","+","Fixation - short","","null","","","","","","","","","","","","","","","","",""
"","html-keyboard-response","363","341459","0.0-523.0","p2b9wnx1","","","","","","","","","","","","","938","pte","Diagnostic trial","","f","","7","9","9","true","false","false","both pre & post","RIGHT","LEFT","f","1","false","","","",""
"","html-keyboard-response","364","342213","0.0-526.0","p2b9wnx1","1366","917","","","","","","","","","","","null","+","Fixation - short","","null","","","","","","","","","","","","","","","","",""
"","html-keyboard-response","365","343334","0.0-527.0","p2b9wnx1","","","","","","","","","","","","","1119","vrm","Diagnostic trial","","j","","7","10","9","true","false","false","both pre & post","LEFT","LEFT","f","0","true","","","",""
"","call-function","366","343336","0.0-529.0-0.0","p2b9wnx1","","","","","","","","","","","","","","","","","","","","","","","","","","","","","","","","","",""
"","html-keyboard-response","367","343639","0.0-529.0-1.0","p2b9wnx1","1366","917","","","","","","","","","","","null","Wrong","Feedback","","null","","","","","","","","","","","","","","","","",""
"","call-function","368","343642","0.0-529.0-2.0","p2b9wnx1","","","","","","","","","","","","","","","","","","","","","","","","","","","","","","","","","",""
"","html-keyboard-response","369","344396","0.0-530.0","p2b9wnx1","1366","917","","","","","","","","","","","null","+","Fixation - short","","null","","","","","","","","","","","","","","","","",""
"","html-keyboard-response","370","345230","0.0-531.0","p2b9wnx1","","","","","","","","","","","","","831","vrm","Inducer trial","","j","","7","","","","true","","","","","f","0","","false","LEFT","",""
"","call-function","371","345232","0.0-533.0-0.0","p2b9wnx1","","","","","","","","","","","","","","","","","","","","","","","","","","","","","","","","","",""
"","html-keyboard-response","372","345535","0.0-533.0-1.0","p2b9wnx1","1366","917","","","","","","","","","","","null","Wrong","Feedback","","null","","","","","","","","","","","","","","","","",""
"","call-function","373","345537","0.0-533.0-2.0","p2b9wnx1","","","","","","","","","","","","","","","","","","","","","","","","","","","","","","","","","",""
"","html-keyboard-response","374","346291","0.0-534.0","p2b9wnx1","1366","917","","","","","","","","","","","null","+","Fixation - short","","null","","","","","","","","","","","","","","","","",""
"","html-keyboard-response","375","347177","0.0-535.0","p2b9wnx1","","","","","","","","","","","","","883","If snx press RIGHT | If gso press LEFT","Inducer instructions",""," ","","8","","","","","","","","","","","","","","",""
"","html-keyboard-response","376","347931","0.0-536.0","p2b9wnx1","1366","917","","","","","","","","","","","null","+","Fixation - short","","null","","","","","","","","","","","","","","","","",""
"","html-keyboard-response","377","348673","0.0-537.0","p2b9wnx1","","","","","","","","","","","","","740","snx","Diagnostic trial","","j","","8","0","10","false","false","false","both pre & post","RIGHT","LEFT","f","0","false","","","",""
"","call-function","378","348675","0.0-539.0-0.0","p2b9wnx1","","","","","","","","","","","","","","","","","","","","","","","","","","","","","","","","","",""
"","html-keyboard-response","379","348978","0.0-539.0-1.0","p2b9wnx1","1366","917","","","","","","","","","","","null","Wrong","Feedback","","null","","","","","","","","","","","","","","","","",""
"","call-function","380","348981","0.0-539.0-2.0","p2b9wnx1","","","","","","","","","","","","","","","","","","","","","","","","","","","","","","","","","",""
"","html-keyboard-response","381","349734","0.0-540.0","p2b9wnx1","1366","917","","","","","","","","","","","null","+","Fixation - short","","null","","","","","","","","","","","","","","","","",""
"","html-keyboard-response","382","350378","0.0-541.0","p2b9wnx1","","","","","","","","","","","","","641","gso","Diagnostic trial","","j","","8","1","10","false","false","true","both pre & post","LEFT","RIGHT","j","1","false","","","",""
"","html-keyboard-response","383","351132","0.0-544.0","p2b9wnx1","1366","917","","","","","","","","","","","null","+","Fixation - short","","null","","","","","","","","","","","","","","","","",""
"","html-keyboard-response","384","351826","0.0-545.0","p2b9wnx1","","","","","","","","","","","","","691","snx","Diagnostic trial","","j","","8","2","10","false","false","true","both pre & post","RIGHT","RIGHT","j","1","true","","","",""
"","html-keyboard-response","385","352580","0.0-548.0","p2b9wnx1","1366","917","","","","","","","","","","","null","+","Fixation - short","","null","","","","","","","","","","","","","","","","",""
"","html-keyboard-response","386","353306","0.0-549.0","p2b9wnx1","","","","","","","","","","","","","724","snx","Diagnostic trial","","f","","8","3","10","false","false","false","both pre & post","RIGHT","LEFT","f","1","false","","","",""
"","html-keyboard-response","387","354060","0.0-552.0","p2b9wnx1","1366","917","","","","","","","","","","","null","+","Fixation - short","","null","","","","","","","","","","","","","","","","",""
"","html-keyboard-response","388","355335","0.0-553.0","p2b9wnx1","","","","","","","","","","","","","1272","snx","Diagnostic trial","","j","","8","4","10","false","false","true","both pre & post","RIGHT","RIGHT","j","1","true","","","",""
"","html-keyboard-response","389","356089","0.0-556.0","p2b9wnx1","1366","917","","","","","","","","","","","null","+","Fixation - short","","null","","","","","","","","","","","","","","","","",""
"","html-keyboard-response","390","356722","0.0-557.0","p2b9wnx1","","","","","","","","","","","","","631","snx","Diagnostic trial","","j","","8","5","10","false","false","true","both pre & post","RIGHT","RIGHT","j","1","true","","","",""
"","html-keyboard-response","391","357476","0.0-560.0","p2b9wnx1","1366","917","","","","","","","","","","","null","+","Fixation - short","","null","","","","","","","","","","","","","","","","",""
"","html-keyboard-response","392","358171","0.0-561.0","p2b9wnx1","","","","","","","","","","","","","692","gso","Diagnostic trial","","f","","8","6","10","false","false","false","both pre & post","LEFT","LEFT","f","1","true","","","",""
"","html-keyboard-response","393","358926","0.0-564.0","p2b9wnx1","1366","917","","","","","","","","","","","null","+","Fixation - short","","null","","","","","","","","","","","","","","","","",""
"","html-keyboard-response","394","359631","0.0-565.0","p2b9wnx1","","","","","","","","","","","","","703","gso","Diagnostic trial","","j","","8","7","10","false","false","true","both pre & post","LEFT","RIGHT","j","1","false","","","",""
"","html-keyboard-response","395","360385","0.0-568.0","p2b9wnx1","1366","917","","","","","","","","","","","null","+","Fixation - short","","null","","","","","","","","","","","","","","","","",""
"","html-keyboard-response","396","361174","0.0-569.0","p2b9wnx1","","","","","","","","","","","","","787","snx","Diagnostic trial","","f","","8","8","10","false","false","false","both pre & post","RIGHT","LEFT","f","1","false","","","",""
"","html-keyboard-response","397","361928","0.0-572.0","p2b9wnx1","1366","917","","","","","","","","","","","null","+","Fixation - short","","null","","","","","","","","","","","","","","","","",""
"","html-keyboard-response","398","362661","0.0-573.0","p2b9wnx1","","","","","","","","","","","","","731","gso","Diagnostic trial","","f","","8","9","10","false","false","false","both pre & post","LEFT","LEFT","f","1","true","","","",""
"","html-keyboard-response","399","363415","0.0-576.0","p2b9wnx1","1366","917","","","","","","","","","","","null","+","Fixation - short","","null","","","","","","","","","","","","","","","","",""
"","canvas-keyboard-response","400","364670","0.0-577.0","p2b9wnx1","","","","","","","","","","","","","null","Cue","Cue","","null","","8","9","","","false","","","","","","","","","","",""
"","html-keyboard-response","401","365423","0.0-578.0","p2b9wnx1","1366","917","","","","","","","","","","","null","+","Fixation - short","","null","","","","","","","","","","","","","","","","",""
"","html-keyboard-response","402","367427","0.0-579.0","p2b9wnx1","","","","","","","","","","","","","null","gso","Diagnostic trial","","null","","8","10","10","true","false","false","both pre & post","LEFT","LEFT","f","NaN","true","","","",""
"","call-function","403","367430","0.0-580.0-0.0","p2b9wnx1","","","","","","","","","","","","","","","","","","","","","","","","","","","","","","","","","",""
"","html-keyboard-response","404","367735","0.0-580.0-1.0","p2b9wnx1","1366","917","","","","","","","","","","","null","Slow","Feedback","","null","","","","","","","","","","","","","","","","",""
"","call-function","405","367737","0.0-580.0-2.0","p2b9wnx1","","","","","","","","","","","","","","","","","","","","","","","","","","","","","","","","","",""
"","html-keyboard-response","406","368491","0.0-582.0","p2b9wnx1","1366","917","","","","","","","","","","","null","+","Fixation - short","","null","","","","","","","","","","","","","","","","",""
"","html-keyboard-response","407","369347","0.0-583.0","p2b9wnx1","","","","","","","","","","","","","854","gso","Diagnostic trial","","f","","8","11","10","true","false","true","both pre & post","LEFT","RIGHT","j","0","false","","","",""
"","call-function","408","369349","0.0-585.0-0.0","p2b9wnx1","","","","","","","","","","","","","","","","","","","","","","","","","","","","","","","","","",""
"","html-keyboard-response","409","369651","0.0-585.0-1.0","p2b9wnx1","1366","917","","","","","","","","","","","null","Wrong","Feedback","","null","","","","","","","","","","","","","","","","",""
"","call-function","410","369654","0.0-585.0-2.0","p2b9wnx1","","","","","","","","","","","","","","","","","","","","","","","","","","","","","","","","","",""
"","html-keyboard-response","411","370407","0.0-586.0","p2b9wnx1","1366","917","","","","","","","","","","","null","+","Fixation - short","","null","","","","","","","","","","","","","","","","",""
"","html-keyboard-response","412","370932","0.0-587.0","p2b9wnx1","","","","","","","","","","","","","522","snx","Diagnostic trial","","j","","8","12","10","true","false","true","both pre & post","RIGHT","RIGHT","j","1","true","","","",""
"","html-keyboard-response","413","371686","0.0-590.0","p2b9wnx1","1366","917","","","","","","","","","","","null","+","Fixation - short","","null","","","","","","","","","","","","","","","","",""
"","html-keyboard-response","414","372155","0.0-591.0","p2b9wnx1","","","","","","","","","","","","","466","gso","Diagnostic trial","","j","","8","13","10","true","false","true","both pre & post","LEFT","RIGHT","j","1","false","","","",""
"","html-keyboard-response","415","372909","0.0-594.0","p2b9wnx1","1366","917","","","","","","","","","","","null","+","Fixation - short","","null","","","","","","","","","","","","","","","","",""
"","html-keyboard-response","416","373987","0.0-595.0","p2b9wnx1","","","","","","","","","","","","","1075","gso","Inducer trial","","f","","8","","","","true","","","","","f","1","","false","LEFT","",""
"","html-keyboard-response","417","374741","0.0-598.0","p2b9wnx1","1366","917","","","","","","","","","","","null","+","Fixation - short","","null","","","","","","","","","","","","","","","","",""
"","html-keyboard-response","418","375596","0.0-599.0","p2b9wnx1","","","","","","","","","","","","","853","If pmf press RIGHT | If cmj press LEFT","Inducer instructions",""," ","","9","","","","","","","","","","","","","","",""
"","html-keyboard-response","419","376350","0.0-600.0","p2b9wnx1","1366","917","","","","","","","","","","","null","+","Fixation - short","","null","","","","","","","","","","","","","","","","",""
"","html-keyboard-response","420","378210","0.0-601.0","p2b9wnx1","","","","","","","","","","","","","1857","cmj","Diagnostic trial","","f","","9","0","6","false","false","false","both pre & post","LEFT","LEFT","f","1","true","","","",""
"","html-keyboard-response","421","378964","0.0-604.0","p2b9wnx1","1366","917","","","","","","","","","","","null","+","Fixation - short","","null","","","","","","","","","","","","","","","","",""
"","html-keyboard-response","422","379508","0.0-605.0","p2b9wnx1","","","","","","","","","","","","","541","pmf","Diagnostic trial","","f","","9","1","6","false","false","false","both pre & post","RIGHT","LEFT","f","1","false","","","",""
"","html-keyboard-response","423","380262","0.0-608.0","p2b9wnx1","1366","917","","","","","","","","","","","null","+","Fixation - short","","null","","","","","","","","","","","","","","","","",""
"","html-keyboard-response","424","382266","0.0-609.0","p2b9wnx1","","","","","","","","","","","","","null","cmj","Diagnostic trial","","null","","9","2","6","false","false","true","both pre & post","LEFT","RIGHT","j","NaN","false","","","",""
"","call-function","425","382268","0.0-610.0-0.0","p2b9wnx1","","","","","","","","","","","","","","","","","","","","","","","","","","","","","","","","","",""
"","html-keyboard-response","426","382572","0.0-610.0-1.0","p2b9wnx1","1366","917","","","","","","","","","","","null","Slow","Feedback","","null","","","","","","","","","","","","","","","","",""
"","call-function","427","382574","0.0-610.0-2.0","p2b9wnx1","","","","","","","","","","","","","","","","","","","","","","","","","","","","","","","","","",""
"","html-keyboard-response","428","383328","0.0-612.0","p2b9wnx1","1366","917","","","","","","","","","","","null","+","Fixation - short","","null","","","","","","","","","","","","","","","","",""
"","html-keyboard-response","429","384087","0.0-613.0","p2b9wnx1","","","","","","","","","","","","","757","pmf","Diagnostic trial","","f","","9","3","6","false","false","false","both pre & post","RIGHT","LEFT","f","1","false","","","",""
"","html-keyboard-response","430","384841","0.0-616.0","p2b9wnx1","1366","917","","","","","","","","","","","null","+","Fixation - short","","null","","","","","","","","","","","","","","","","",""
"","html-keyboard-response","431","385411","0.0-617.0","p2b9wnx1","","","","","","","","","","","","","567","pmf","Diagnostic trial","","j","","9","4","6","false","false","true","both pre & post","RIGHT","RIGHT","j","1","true","","","",""
"","html-keyboard-response","432","386165","0.0-620.0","p2b9wnx1","1366","917","","","","","","","","","","","null","+","Fixation - short","","null","","","","","","","","","","","","","","","","",""
"","html-keyboard-response","433","386634","0.0-621.0","p2b9wnx1","","","","","","","","","","","","","467","cmj","Diagnostic trial","","j","","9","5","6","false","false","false","both pre & post","LEFT","LEFT","f","0","true","","","",""
"","call-function","434","386636","0.0-623.0-0.0","p2b9wnx1","","","","","","","","","","","","","","","","","","","","","","","","","","","","","","","","","",""
"","html-keyboard-response","435","386940","0.0-623.0-1.0","p2b9wnx1","1366","917","","","","","","","","","","","null","Wrong","Feedback","","null","","","","","","","","","","","","","","","","",""
"","call-function","436","386942","0.0-623.0-2.0","p2b9wnx1","","","","","","","","","","","","","","","","","","","","","","","","","","","","","","","","","",""
"","html-keyboard-response","437","387696","0.0-624.0","p2b9wnx1","1366","917","","","","","","","","","","","null","+","Fixation - short","","null","","","","","","","","","","","","","","","","",""
"","canvas-keyboard-response","438","388951","0.0-625.0","p2b9wnx1","","","","","","","","","","","","","null","Cue","Cue","","null","","9","5","","","false","","","","","","","","","","",""
"","html-keyboard-response","439","389705","0.0-626.0","p2b9wnx1","1366","917","","","","","","","","","","","null","+","Fixation - short","","null","","","","","","","","","","","","","","","","",""
"","html-keyboard-response","440","390304","0.0-627.0","p2b9wnx1","","","","","","","","","","","","","596","cmj","Diagnostic trial","","j","","9","6","6","true","false","true","both pre & post","LEFT","RIGHT","j","1","false","","","",""
"","html-keyboard-response","441","391058","0.0-630.0","p2b9wnx1","1366","917","","","","","","","","","","","null","+","Fixation - short","","null","","","","","","","","","","","","","","","","",""
"","html-keyboard-response","442","391503","0.0-631.0","p2b9wnx1","","","","","","","","","","","","","442","cmj","Diagnostic trial","","j","","9","7","6","true","false","false","both pre & post","LEFT","LEFT","f","0","true","","","",""
"","call-function","443","391504","0.0-633.0-0.0","p2b9wnx1","","","","","","","","","","","","","","","","","","","","","","","","","","","","","","","","","",""
"","html-keyboard-response","444","391808","0.0-633.0-1.0","p2b9wnx1","1366","917","","","","","","","","","","","null","Wrong","Feedback","","null","","","","","","","","","","","","","","","","",""
"","call-function","445","391810","0.0-633.0-2.0","p2b9wnx1","","","","","","","","","","","","","","","","","","","","","","","","","","","","","","","","","",""
"","html-keyboard-response","446","392564","0.0-634.0","p2b9wnx1","1366","917","","","","","","","","","","","null","+","Fixation - short","","null","","","","","","","","","","","","","","","","",""
"","html-keyboard-response","447","393548","0.0-635.0","p2b9wnx1","","","","","","","","","","","","","982","pmf","Diagnostic trial","","f","","9","8","6","true","false","false","both pre & post","RIGHT","LEFT","f","1","false","","","",""
"","html-keyboard-response","448","394302","0.0-638.0","p2b9wnx1","1366","917","","","","","","","","","","","null","+","Fixation - short","","null","","","","","","","","","","","","","","","","",""
"","html-keyboard-response","449","395261","0.0-639.0","p2b9wnx1","","","","","","","","","","","","","956","cmj","Inducer trial","","j","","9","","","","true","","","","","f","0","","false","LEFT","",""
"","call-function","450","395263","0.0-641.0-0.0","p2b9wnx1","","","","","","","","","","","","","","","","","","","","","","","","","","","","","","","","","",""
"","html-keyboard-response","451","395566","0.0-641.0-1.0","p2b9wnx1","1366","917","","","","","","","","","","","null","Wrong","Feedback","","null","","","","","","","","","","","","","","","","",""
"","call-function","452","395568","0.0-641.0-2.0","p2b9wnx1","","","","","","","","","","","","","","","","","","","","","","","","","","","","","","","","","",""
"","html-keyboard-response","453","396322","0.0-642.0","p2b9wnx1","1366","917","","","","","","","","","","","null","+","Fixation - short","","null","","","","","","","","","","","","","","","","",""
"","html-keyboard-response","454","397508","0.0-643.0","p2b9wnx1","","","","","","","","","","","","","1183","If jey press RIGHT | If ydi press LEFT","Inducer instructions",""," ","","10","","","","","","","","","","","","","","",""
"","html-keyboard-response","455","398261","0.0-644.0","p2b9wnx1","1366","917","","","","","","","","","","","null","+","Fixation - short","","null","","","","","","","","","","","","","","","","",""
"","html-keyboard-response","456","399326","0.0-645.0","p2b9wnx1","","","","","","","","","","","","","1062","jey","Diagnostic trial","","j","","10","0","11","false","false","true","both pre & post","RIGHT","RIGHT","j","1","true","","","",""
"","html-keyboard-response","457","400080","0.0-648.0","p2b9wnx1","1366","917","","","","","","","","","","","null","+","Fixation - short","","null","","","","","","","","","","","","","","","","",""
"","html-keyboard-response","458","400576","0.0-649.0","p2b9wnx1","","","","","","","","","","","","","493","jey","Diagnostic trial","","j","","10","1","11","false","false","true","both pre & post","RIGHT","RIGHT","j","1","true","","","",""
"","html-keyboard-response","459","401330","0.0-652.0","p2b9wnx1","1366","917","","","","","","","","","","","null","+","Fixation - short","","null","","","","","","","","","","","","","","","","",""
"","html-keyboard-response","460","401718","0.0-653.0","p2b9wnx1","","","","","","","","","","","","","385","jey","Diagnostic trial","","j","","10","2","11","false","false","true","both pre & post","RIGHT","RIGHT","j","1","true","","","",""
"","html-keyboard-response","461","402472","0.0-656.0","p2b9wnx1","1366","917","","","","","","","","","","","null","+","Fixation - short","","null","","","","","","","","","","","","","","","","",""
"","html-keyboard-response","462","402935","0.0-657.0","p2b9wnx1","","","","","","","","","","","","","460","jey","Diagnostic trial","","j","","10","3","11","false","false","true","both pre & post","RIGHT","RIGHT","j","1","true","","","",""
"","html-keyboard-response","463","403689","0.0-660.0","p2b9wnx1","1366","917","","","","","","","","","","","null","+","Fixation - short","","null","","","","","","","","","","","","","","","","",""
"","html-keyboard-response","464","404119","0.0-661.0","p2b9wnx1","","","","","","","","","","","","","427","jey","Diagnostic trial","","j","","10","4","11","false","false","false","both pre & post","RIGHT","LEFT","f","0","false","","","",""
"","call-function","465","404121","0.0-663.0-0.0","p2b9wnx1","","","","","","","","","","","","","","","","","","","","","","","","","","","","","","","","","",""
"","html-keyboard-response","466","404423","0.0-663.0-1.0","p2b9wnx1","1366","917","","","","","","","","","","","null","Wrong","Feedback","","null","","","","","","","","","","","","","","","","",""
"","call-function","467","404425","0.0-663.0-2.0","p2b9wnx1","","","","","","","","","","","","","","","","","","","","","","","","","","","","","","","","","",""
"","html-keyboard-response","468","405178","0.0-664.0","p2b9wnx1","1366","917","","","","","","","","","","","null","+","Fixation - short","","null","","","","","","","","","","","","","","","","",""
"","html-keyboard-response","469","405914","0.0-665.0","p2b9wnx1","","","","","","","","","","","","","732","jey","Diagnostic trial","","j","","10","5","11","false","false","true","both pre & post","RIGHT","RIGHT","j","1","true","","","",""
"","html-keyboard-response","470","406668","0.0-668.0","p2b9wnx1","1366","917","","","","","","","","","","","null","+","Fixation - short","","null","","","","","","","","","","","","","","","","",""
"","html-keyboard-response","471","407430","0.0-669.0","p2b9wnx1","","","","","","","","","","","","","759","ydi","Diagnostic trial","","f","","10","6","11","false","false","false","both pre & post","LEFT","LEFT","f","1","true","","","",""
"","html-keyboard-response","472","408183","0.0-672.0","p2b9wnx1","1366","917","","","","","","","","","","","null","+","Fixation - short","","null","","","","","","","","","","","","","","","","",""
