"value","trial_type","trial_index","time_elapsed","internal_node_id","id","width","height","webaudio","browser","browser_version","mobile","os","fullscreen","vsync_rate","webcam","microphone","view_history","rt","stimulus","trial_info","success","response","exp_parameters","inducer_run","diagnostic_run","cue_num","post_cue","inducer_trial","italic","forced_equal_run","correct_inducer_response_side","correct_diag_response_side","correct_response_key","correct_response","congruent","force_equal","correct_indu_response_side","accuracy","interactive"
"","call-function","0","5","0.0-0.0","q92zz1jq","","","","","","","","","","","","","","","","","","","","","","","","","","","","","","","","","",""
"","browser-check","1","1105","0.0-1.0","q92zz1jq","1680","929","true","chrome","122.0.0","false","Mac OS","true","54.95","true","true","","","","","","","","","","","","","","","","","","","","","","",""
"","instructions","2","49179","0.0-2.0","q92zz1jq","","","","","","","","","","","","[{""page_index"":0,""viewing_time"":20758},{""page_index"":1,""viewing_time"":23640},{""page_index"":2,""viewing_time"":3674}]","48073","The experiment and consent","The experiment and consent","","","","","","","","","","","","","","","","","","",""
"","fullscreen","3","58992","0.0-3.0","q92zz1jq","","","","","","","","","","","","","8810","","Full screen","true","","","","","","","","","","","","","","","","","",""
"","instructions","4","134813","0.0-4.0","q92zz1jq","","","","","","","","","","","","[{""page_index"":0,""viewing_time"":34500},{""page_index"":1,""viewing_time"":15403},{""page_index"":0,""viewing_time"":10216},{""page_index"":1,""viewing_time"":15698}]","75817","Instructions","Basic overview explanation","","","","","","","","","","","","","","","","","","",""
"","html-keyboard-response","5","142202","0.0-5.0","q92zz1jq","","","","","","","","","","","","","5886","If italic press LEFT | If upright press RIGHT","Diagnostic instructions",""," ","{""debug"":false,""skip_instructions"":false,""skip_practice"":false,""save_local_data"":false,""studu_name"":""exp2"",""default_background_colour"":""#cccccc"",""wrong_response_colour"":""#d22d2d"",""instruction_delay"":20000,""trial_duration"":2000,""short_fixation"":750,""long_fixation"":1500,""wrong_response_delay"":300,""too_slow_delay"":300,""instruction_font_size"":""24px"",""general_font_size"":""42px"",""fixation_size"":""48px"",""allowed_responses"":[""f"",""j""],""cue_min_length"":0,""cue_max_length"":4,""tot_post_cue_len"":72,""cue_colour"":""red"",""cue_shape"":""Square"",""cue_size"":70,""cue_duration"":1250,""avg_number_of_cues"":3,""inducer_colour"":""blue"",""number_of_inducers"":24,""pre_cue_italic_forced_equal"":true,""post_cue_italic_forced_equal"":true,""prac_diagnostic_rounds"":16,""prac_inducer_rounds"":6,""prac_cue_rounds"":16,""prac_post_cue_num"":3}","","","","","","","","","","","","","","","",""
"","html-keyboard-response","6","142956","0.0-6.0","q92zz1jq","1680","1050","","","","","","","","","","","null","+","Fixation - short","","null","","","","","","","","","","","","","","","","",""
"","html-keyboard-response","7","143792","0.0-7.0","q92zz1jq","","","","","","","","","","","","","835","dof","Diagnostic practice","","j","","Diagnostic practice","0","-84","true","false","false","prac equal","LEFT","RIGHT","j","1","false","","","",""
"","html-keyboard-response","8","144546","0.0-10.0","q92zz1jq","1680","1050","","","","","","","","","","","null","+","Fixation - short","","null","","","","","","","","","","","","","","","","",""
"","html-keyboard-response","9","145035","0.0-11.0","q92zz1jq","","","","","","","","","","","","","489","dof","Diagnostic practice","","j","","Diagnostic practice","1","-84","true","false","false","prac equal","LEFT","RIGHT","j","1","false","","","",""
"","html-keyboard-response","10","145788","0.0-14.0","q92zz1jq","1680","1050","","","","","","","","","","","null","+","Fixation - short","","null","","","","","","","","","","","","","","","","",""
"","html-keyboard-response","11","146398","0.0-15.0","q92zz1jq","","","","","","","","","","","","","609","uen","Diagnostic practice","","f","","Diagnostic practice","2","-84","true","false","true","prac equal","RIGHT","LEFT","f","1","false","","","",""
"","html-keyboard-response","12","147149","0.0-18.0","q92zz1jq","1680","1050","","","","","","","","","","","null","+","Fixation - short","","null","","","","","","","","","","","","","","","","",""
"","html-keyboard-response","13","147618","0.0-19.0","q92zz1jq","","","","","","","","","","","","","468","uen","Diagnostic practice","","f","","Diagnostic practice","3","-84","true","false","true","prac equal","RIGHT","LEFT","f","1","false","","","",""
"","html-keyboard-response","14","148371","0.0-22.0","q92zz1jq","1680","1050","","","","","","","","","","","null","+","Fixation - short","","null","","","","","","","","","","","","","","","","",""
"","html-keyboard-response","15","148897","0.0-23.0","q92zz1jq","","","","","","","","","","","","","525","dof","Diagnostic practice","","f","","Diagnostic practice","4","-84","true","false","true","prac equal","LEFT","LEFT","f","1","true","","","",""
"","html-keyboard-response","16","149650","0.0-26.0","q92zz1jq","1680","1050","","","","","","","","","","","null","+","Fixation - short","","null","","","","","","","","","","","","","","","","",""
"","html-keyboard-response","17","150067","0.0-27.0","q92zz1jq","","","","","","","","","","","","","417","dof","Diagnostic practice","","f","","Diagnostic practice","5","-84","true","false","true","prac equal","LEFT","LEFT","f","1","true","","","",""
"","html-keyboard-response","18","150820","0.0-30.0","q92zz1jq","1680","1050","","","","","","","","","","","null","+","Fixation - short","","null","","","","","","","","","","","","","","","","",""
"","html-keyboard-response","19","151326","0.0-31.0","q92zz1jq","","","","","","","","","","","","","505","uen","Diagnostic practice","","f","","Diagnostic practice","6","-84","true","false","true","prac equal","RIGHT","LEFT","f","1","false","","","",""
"","html-keyboard-response","20","152079","0.0-34.0","q92zz1jq","1680","1050","","","","","","","","","","","null","+","Fixation - short","","null","","","","","","","","","","","","","","","","",""
"","html-keyboard-response","21","152584","0.0-35.0","q92zz1jq","","","","","","","","","","","","","504","dof","Diagnostic practice","","j","","Diagnostic practice","7","-84","true","false","false","prac equal","LEFT","RIGHT","j","1","false","","","",""
"","html-keyboard-response","22","153337","0.0-38.0","q92zz1jq","1680","1050","","","","","","","","","","","null","+","Fixation - short","","null","","","","","","","","","","","","","","","","",""
"","html-keyboard-response","23","153785","0.0-39.0","q92zz1jq","","","","","","","","","","","","","447","dof","Diagnostic practice","","j","","Diagnostic practice","8","-84","true","false","true","prac equal","LEFT","LEFT","f","0","true","","","",""
"","call-function","24","153785","0.0-41.0-0.0","q92zz1jq","","","","","","","","","","","","","","","","","","","","","","","","","","","","","","","","","",""
"","html-keyboard-response","25","154088","0.0-41.0-1.0","q92zz1jq","1680","1050","","","","","","","","","","","null","Wrong","Feedback","","null","","","","","","","","","","","","","","","","",""
"","call-function","26","154089","0.0-41.0-2.0","q92zz1jq","","","","","","","","","","","","","","","","","","","","","","","","","","","","","","","","","",""
"","html-keyboard-response","27","154841","0.0-42.0","q92zz1jq","1680","1050","","","","","","","","","","","null","+","Fixation - short","","null","","","","","","","","","","","","","","","","",""
"","html-keyboard-response","28","155413","0.0-43.0","q92zz1jq","","","","","","","","","","","","","572","uen","Diagnostic practice","","f","","Diagnostic practice","9","-84","true","false","false","prac equal","RIGHT","RIGHT","j","0","true","","","",""
"","call-function","29","155414","0.0-45.0-0.0","q92zz1jq","","","","","","","","","","","","","","","","","","","","","","","","","","","","","","","","","",""
"","html-keyboard-response","30","155716","0.0-45.0-1.0","q92zz1jq","1680","1050","","","","","","","","","","","null","Wrong","Feedback","","null","","","","","","","","","","","","","","","","",""
"","call-function","31","155717","0.0-45.0-2.0","q92zz1jq","","","","","","","","","","","","","","","","","","","","","","","","","","","","","","","","","",""
"","html-keyboard-response","32","156469","0.0-46.0","q92zz1jq","1680","1050","","","","","","","","","","","null","+","Fixation - short","","null","","","","","","","","","","","","","","","","",""
"","html-keyboard-response","33","157139","0.0-47.0","q92zz1jq","","","","","","","","","","","","","670","uen","Diagnostic practice","","j","","Diagnostic practice","10","-84","true","false","false","prac equal","RIGHT","RIGHT","j","1","true","","","",""
"","html-keyboard-response","34","157892","0.0-50.0","q92zz1jq","1680","1050","","","","","","","","","","","null","+","Fixation - short","","null","","","","","","","","","","","","","","","","",""
"","html-keyboard-response","35","158303","0.0-51.0","q92zz1jq","","","","","","","","","","","","","411","dof","Diagnostic practice","","f","","Diagnostic practice","11","-84","true","false","true","prac equal","LEFT","LEFT","f","1","true","","","",""
"","html-keyboard-response","36","159056","0.0-54.0","q92zz1jq","1680","1050","","","","","","","","","","","null","+","Fixation - short","","null","","","","","","","","","","","","","","","","",""
"","html-keyboard-response","37","159602","0.0-55.0","q92zz1jq","","","","","","","","","","","","","544","dof","Diagnostic practice","","f","","Diagnostic practice","12","-84","true","false","true","prac equal","LEFT","LEFT","f","1","true","","","",""
"","html-keyboard-response","38","160353","0.0-58.0","q92zz1jq","1680","1050","","","","","","","","","","","null","+","Fixation - short","","null","","","","","","","","","","","","","","","","",""
"","html-keyboard-response","39","160941","0.0-59.0","q92zz1jq","","","","","","","","","","","","","588","dof","Diagnostic practice","","j","","Diagnostic practice","13","-84","true","false","false","prac equal","LEFT","RIGHT","j","1","false","","","",""
"","html-keyboard-response","40","161694","0.0-62.0","q92zz1jq","1680","1050","","","","","","","","","","","null","+","Fixation - short","","null","","","","","","","","","","","","","","","","",""
"","html-keyboard-response","41","162145","0.0-63.0","q92zz1jq","","","","","","","","","","","","","450","dof","Diagnostic practice","","j","","Diagnostic practice","14","-84","true","false","false","prac equal","LEFT","RIGHT","j","1","false","","","",""
"","html-keyboard-response","42","162896","0.0-66.0","q92zz1jq","1680","1050","","","","","","","","","","","null","+","Fixation - short","","null","","","","","","","","","","","","","","","","",""
"","html-keyboard-response","43","163556","0.0-67.0","q92zz1jq","","","","","","","","","","","","","659","uen","Diagnostic practice","","j","","Diagnostic practice","15","-84","true","false","false","prac equal","RIGHT","RIGHT","j","1","true","","","",""
"","html-keyboard-response","44","164308","0.0-70.0","q92zz1jq","1680","1050","","","","","","","","","","","null","+","Fixation - short","","null","","","","","","","","","","","","","","","","",""
"","instructions","45","174166","0.0-71.0","q92zz1jq","","","","","","","","","","","","[{""page_index"":0,""viewing_time"":9856}]","9856","Instructions","Final experiment explanation","","","","","","","","","","","","","","","","","","",""
"","html-keyboard-response","46","189263","0.0-72.0","q92zz1jq","","","","","","","","","","","","","13594","If dlg press LEFT | If pte press RIGHT","Inducer practice",""," ","","Practice","","","","","","","","","","","","","","",""
"","html-keyboard-response","47","190015","0.0-73.0","q92zz1jq","1680","1050","","","","","","","","","","","null","+","Fixation - short","","null","","","","","","","","","","","","","","","","",""
"","html-keyboard-response","48","190571","0.0-74.0","q92zz1jq","","","","","","","","","","","","","555","pte","Inducer practice","","j","","Practice","","","","true","","","","","j","1","","true","RIGHT","",""
"","html-keyboard-response","49","191323","0.0-77.0","q92zz1jq","1680","1050","","","","","","","","","","","null","+","Fixation - short","","null","","","","","","","","","","","","","","","","",""
"","html-keyboard-response","50","198351","0.0-78.0","q92zz1jq","","","","","","","","","","","","","7026","If tgf press LEFT | If frn press RIGHT","Inducer practice",""," ","","Practice","","","","","","","","","","","","","","",""
"","html-keyboard-response","51","199103","0.0-79.0","q92zz1jq","1680","1050","","","","","","","","","","","null","+","Fixation - short","","null","","","","","","","","","","","","","","","","",""
"","html-keyboard-response","52","199640","0.0-80.0","q92zz1jq","","","","","","","","","","","","","536","frn","Inducer practice","","j","","Practice","","","","true","","","","","j","1","","true","RIGHT","",""
"","html-keyboard-response","53","200393","0.0-83.0","q92zz1jq","1680","1050","","","","","","","","","","","null","+","Fixation - short","","null","","","","","","","","","","","","","","","","",""
"","html-keyboard-response","54","205396","0.0-84.0","q92zz1jq","","","","","","","","","","","","","5003","If ois press LEFT | If jey press RIGHT","Inducer practice",""," ","","Practice","","","","","","","","","","","","","","",""
"","html-keyboard-response","55","206150","0.0-85.0","q92zz1jq","1680","1050","","","","","","","","","","","null","+","Fixation - short","","null","","","","","","","","","","","","","","","","",""
"","html-keyboard-response","56","206715","0.0-86.0","q92zz1jq","","","","","","","","","","","","","564","jey","Inducer practice","","j","","Practice","","","","true","","","","","j","1","","true","RIGHT","",""
"","html-keyboard-response","57","207468","0.0-89.0","q92zz1jq","1680","1050","","","","","","","","","","","null","+","Fixation - short","","null","","","","","","","","","","","","","","","","",""
"","html-keyboard-response","58","210692","0.0-90.0","q92zz1jq","","","","","","","","","","","","","3224","If pxv press LEFT | If swr press RIGHT","Inducer practice",""," ","","Practice","","","","","","","","","","","","","","",""
"","html-keyboard-response","59","211445","0.0-91.0","q92zz1jq","1680","1050","","","","","","","","","","","null","+","Fixation - short","","null","","","","","","","","","","","","","","","","",""
"","html-keyboard-response","60","212169","0.0-92.0","q92zz1jq","","","","","","","","","","","","","723","pxv","Inducer practice","","f","","Practice","","","","true","","","","","f","1","","true","LEFT","",""
"","html-keyboard-response","61","212922","0.0-95.0","q92zz1jq","1680","1050","","","","","","","","","","","null","+","Fixation - short","","null","","","","","","","","","","","","","","","","",""
"","html-keyboard-response","62","215899","0.0-96.0","q92zz1jq","","","","","","","","","","","","","2977","If saj press LEFT | If gdn press RIGHT","Inducer practice",""," ","","Practice","","","","","","","","","","","","","","",""
"","html-keyboard-response","63","216652","0.0-97.0","q92zz1jq","1680","1050","","","","","","","","","","","null","+","Fixation - short","","null","","","","","","","","","","","","","","","","",""
"","html-keyboard-response","64","217259","0.0-98.0","q92zz1jq","","","","","","","","","","","","","607","saj","Inducer practice","","f","","Practice","","","","true","","","","","f","1","","true","LEFT","",""
"","html-keyboard-response","65","218012","0.0-101.0","q92zz1jq","1680","1050","","","","","","","","","","","null","+","Fixation - short","","null","","","","","","","","","","","","","","","","",""
"","html-keyboard-response","66","221143","0.0-102.0","q92zz1jq","","","","","","","","","","","","","3130","If vle press LEFT | If edc press RIGHT","Inducer practice",""," ","","Practice","","","","","","","","","","","","","","",""
"","html-keyboard-response","67","221895","0.0-103.0","q92zz1jq","1680","1050","","","","","","","","","","","null","+","Fixation - short","","null","","","","","","","","","","","","","","","","",""
"","html-keyboard-response","68","222533","0.0-104.0","q92zz1jq","","","","","","","","","","","","","637","vle","Inducer practice","","f","","Practice","","","","true","","","","","f","1","","true","LEFT","",""
"","html-keyboard-response","69","223286","0.0-107.0","q92zz1jq","1680","1050","","","","","","","","","","","null","+","Fixation - short","","null","","","","","","","","","","","","","","","","",""
"","instructions","70","265710","0.0-108.0","q92zz1jq","","","","","","","","","","","","[{""page_index"":0,""viewing_time"":42422}]","42422","Instructions","Final experiment explanation","","","","","","","","","","","","","","","","","","",""
"","html-keyboard-response","71","271053","0.0-109.0","q92zz1jq","","","","","","","","","","","","","3839","If sdw press LEFT | If crf press RIGHT","Cue practice",""," ","","Practice","","","","","","","","","","","","","","",""
"","html-keyboard-response","72","271806","0.0-110.0","q92zz1jq","1680","1050","","","","","","","","","","","null","+","Fixation - short","","null","","","","","","","","","","","","","","","","",""
"","html-keyboard-response","73","272469","0.0-111.0","q92zz1jq","","","","","","","","","","","","","662","crf","Cue practice","","j","","Practice","0","13","false","false","true","both pre & post","RIGHT","LEFT","f","0","false","","","",""
"","call-function","74","272469","0.0-113.0-0.0","q92zz1jq","","","","","","","","","","","","","","","","","","","","","","","","","","","","","","","","","",""
"","html-keyboard-response","75","272772","0.0-113.0-1.0","q92zz1jq","1680","1050","","","","","","","","","","","null","Wrong","Feedback","","null","","","","","","","","","","","","","","","","",""
"","call-function","76","272773","0.0-113.0-2.0","q92zz1jq","","","","","","","","","","","","","","","","","","","","","","","","","","","","","","","","","",""
"","html-keyboard-response","77","273525","0.0-114.0","q92zz1jq","1680","1050","","","","","","","","","","","null","+","Fixation - short","","null","","","","","","","","","","","","","","","","",""
"","html-keyboard-response","78","274515","0.0-115.0","q92zz1jq","","","","","","","","","","","","","990","crf","Cue practice","","j","","Practice","1","13","false","false","false","both pre & post","RIGHT","RIGHT","j","1","true","","","",""
"","html-keyboard-response","79","275268","0.0-118.0","q92zz1jq","1680","1050","","","","","","","","","","","null","+","Fixation - short","","null","","","","","","","","","","","","","","","","",""
"","html-keyboard-response","80","276070","0.0-119.0","q92zz1jq","","","","","","","","","","","","","802","sdw","Cue practice","","f","","Practice","2","13","false","false","false","both pre & post","LEFT","RIGHT","j","0","false","","","",""
"","call-function","81","276071","0.0-121.0-0.0","q92zz1jq","","","","","","","","","","","","","","","","","","","","","","","","","","","","","","","","","",""
"","html-keyboard-response","82","276373","0.0-121.0-1.0","q92zz1jq","1680","1050","","","","","","","","","","","null","Wrong","Feedback","","null","","","","","","","","","","","","","","","","",""
"","call-function","83","276374","0.0-121.0-2.0","q92zz1jq","","","","","","","","","","","","","","","","","","","","","","","","","","","","","","","","","",""
"","html-keyboard-response","84","277126","0.0-122.0","q92zz1jq","1680","1050","","","","","","","","","","","null","+","Fixation - short","","null","","","","","","","","","","","","","","","","",""
"","html-keyboard-response","85","277700","0.0-123.0","q92zz1jq","","","","","","","","","","","","","574","sdw","Cue practice","","j","","Practice","3","13","false","false","false","both pre & post","LEFT","RIGHT","j","1","false","","","",""
"","html-keyboard-response","86","278453","0.0-126.0","q92zz1jq","1680","1050","","","","","","","","","","","null","+","Fixation - short","","null","","","","","","","","","","","","","","","","",""
"","html-keyboard-response","87","279084","0.0-127.0","q92zz1jq","","","","","","","","","","","","","630","sdw","Cue practice","","f","","Practice","4","13","false","false","true","both pre & post","LEFT","LEFT","f","1","true","","","",""
"","html-keyboard-response","88","279836","0.0-130.0","q92zz1jq","1680","1050","","","","","","","","","","","null","+","Fixation - short","","null","","","","","","","","","","","","","","","","",""
"","html-keyboard-response","89","280905","0.0-131.0","q92zz1jq","","","","","","","","","","","","","1068","crf","Cue practice","","j","","Practice","5","13","false","false","false","both pre & post","RIGHT","RIGHT","j","1","true","","","",""
"","html-keyboard-response","90","281656","0.0-134.0","q92zz1jq","1680","1050","","","","","","","","","","","null","+","Fixation - short","","null","","","","","","","","","","","","","","","","",""
"","html-keyboard-response","91","282240","0.0-135.0","q92zz1jq","","","","","","","","","","","","","583","sdw","Cue practice","","f","","Practice","6","13","false","false","true","both pre & post","LEFT","LEFT","f","1","true","","","",""
"","html-keyboard-response","92","282993","0.0-138.0","q92zz1jq","1680","1050","","","","","","","","","","","null","+","Fixation - short","","null","","","","","","","","","","","","","","","","",""
"","html-keyboard-response","93","283507","0.0-139.0","q92zz1jq","","","","","","","","","","","","","514","sdw","Cue practice","","f","","Practice","7","13","false","false","true","both pre & post","LEFT","LEFT","f","1","true","","","",""
"","html-keyboard-response","94","284260","0.0-142.0","q92zz1jq","1680","1050","","","","","","","","","","","null","+","Fixation - short","","null","","","","","","","","","","","","","","","","",""
"","html-keyboard-response","95","284769","0.0-143.0","q92zz1jq","","","","","","","","","","","","","508","crf","Cue practice","","j","","Practice","8","13","false","false","false","both pre & post","RIGHT","RIGHT","j","1","true","","","",""
"","html-keyboard-response","96","285521","0.0-146.0","q92zz1jq","1680","1050","","","","","","","","","","","null","+","Fixation - short","","null","","","","","","","","","","","","","","","","",""
"","html-keyboard-response","97","286175","0.0-147.0","q92zz1jq","","","","","","","","","","","","","653","crf","Cue practice","","f","","Practice","9","13","false","false","true","both pre & post","RIGHT","LEFT","f","1","false","","","",""
"","html-keyboard-response","98","286928","0.0-150.0","q92zz1jq","1680","1050","","","","","","","","","","","null","+","Fixation - short","","null","","","","","","","","","","","","","","","","",""
"","html-keyboard-response","99","287424","0.0-151.0","q92zz1jq","","","","","","","","","","","","","495","sdw","Cue practice","","f","","Practice","10","13","false","false","true","both pre & post","LEFT","LEFT","f","1","true","","","",""
"","html-keyboard-response","100","288175","0.0-154.0","q92zz1jq","1680","1050","","","","","","","","","","","null","+","Fixation - short","","null","","","","","","","","","","","","","","","","",""
"","html-keyboard-response","101","288741","0.0-155.0","q92zz1jq","","","","","","","","","","","","","565","sdw","Cue practice","","j","","Practice","11","13","false","false","false","both pre & post","LEFT","RIGHT","j","1","false","","","",""
"","html-keyboard-response","102","289493","0.0-158.0","q92zz1jq","1680","1050","","","","","","","","","","","null","+","Fixation - short","","null","","","","","","","","","","","","","","","","",""
"","html-keyboard-response","103","290089","0.0-159.0","q92zz1jq","","","","","","","","","","","","","595","sdw","Cue practice","","f","","Practice","12","13","false","false","true","both pre & post","LEFT","LEFT","f","1","true","","","",""
"","html-keyboard-response","104","290843","0.0-162.0","q92zz1jq","1680","1050","","","","","","","","","","","null","+","Fixation - short","","null","","","","","","","","","","","","","","","","",""
"","canvas-keyboard-response","105","292097","0.0-163.0","q92zz1jq","","","","","","","","","","","","","null","Cue","Cue","","null","","Practice","12","","","false","","","","","","","","","","",""
"","html-keyboard-response","106","292848","0.0-164.0","q92zz1jq","1680","1050","","","","","","","","","","","null","+","Fixation - short","","null","","","","","","","","","","","","","","","","",""
"","html-keyboard-response","107","293527","0.0-165.0","q92zz1jq","","","","","","","","","","","","","678","crf","Cue practice","","f","","Practice","13","13","true","false","true","both pre & post","RIGHT","LEFT","f","1","false","","","",""
"","html-keyboard-response","108","294280","0.0-168.0","q92zz1jq","1680","1050","","","","","","","","","","","null","+","Fixation - short","","null","","","","","","","","","","","","","","","","",""
"","html-keyboard-response","109","294917","0.0-169.0","q92zz1jq","","","","","","","","","","","","","636","crf","Cue practice","","f","","Practice","14","13","true","false","true","both pre & post","RIGHT","LEFT","f","1","false","","","",""
"","html-keyboard-response","110","295669","0.0-172.0","q92zz1jq","1680","1050","","","","","","","","","","","null","+","Fixation - short","","null","","","","","","","","","","","","","","","","",""
"","html-keyboard-response","111","296166","0.0-173.0","q92zz1jq","","","","","","","","","","","","","496","sdw","Cue practice","","j","","Practice","15","13","true","false","false","both pre & post","LEFT","RIGHT","j","1","false","","","",""
"","html-keyboard-response","112","296919","0.0-176.0","q92zz1jq","1680","1050","","","","","","","","","","","null","+","Fixation - short","","null","","","","","","","","","","","","","","","","",""
"","html-keyboard-response","113","298258","0.0-177.0","q92zz1jq","","","","","","","","","","","","","1338","crf","Inducer practice","","f","","Practice","","","","true","","","","","j","0","","false","RIGHT","",""
"","call-function","114","298258","0.0-179.0-0.0","q92zz1jq","","","","","","","","","","","","","","","","","","","","","","","","","","","","","","","","","",""
"","html-keyboard-response","115","298561","0.0-179.0-1.0","q92zz1jq","1680","1050","","","","","","","","","","","null","Wrong","Feedback","","null","","","","","","","","","","","","","","","","",""
"","call-function","116","298561","0.0-179.0-2.0","q92zz1jq","","","","","","","","","","","","","","","","","","","","","","","","","","","","","","","","","",""
"","html-keyboard-response","117","299314","0.0-180.0","q92zz1jq","1680","1050","","","","","","","","","","","null","+","Fixation - short","","null","","","","","","","","","","","","","","","","",""
"","instructions","118","313379","0.0-181.0","q92zz1jq","","","","","","","","","","","","[{""page_index"":0,""viewing_time"":14063}]","14063","End practice","End of practice","","","","","","","","","","","","","","","","","","",""
"","html-keyboard-response","119","316385","0.0-182.0","q92zz1jq","1680","1050","","","","","","","","","","","null","+","Fixation - long","","null","","","","","","","","","","","","","","","","",""
"","html-keyboard-response","120","323443","0.0-183.0","q92zz1jq","","","","","","","","","","","","","7058","If bms press LEFT | If goj press RIGHT","Inducer instructions",""," ","","0","","","","","","","","","","","","","","",""
"","html-keyboard-response","121","324196","0.0-184.0","q92zz1jq","1680","1050","","","","","","","","","","","null","+","Fixation - short","","null","","","","","","","","","","","","","","","","",""
"","html-keyboard-response","122","325015","0.0-185.0","q92zz1jq","","","","","","","","","","","","","818","bms","Diagnostic trial","","f","","0","0","8","false","false","false","both pre & post","LEFT","RIGHT","j","0","false","","","",""
"","call-function","123","325015","0.0-187.0-0.0","q92zz1jq","","","","","","","","","","","","","","","","","","","","","","","","","","","","","","","","","",""
"","html-keyboard-response","124","325318","0.0-187.0-1.0","q92zz1jq","1680","1050","","","","","","","","","","","null","Wrong","Feedback","","null","","","","","","","","","","","","","","","","",""
"","call-function","125","325318","0.0-187.0-2.0","q92zz1jq","","","","","","","","","","","","","","","","","","","","","","","","","","","","","","","","","",""
"","html-keyboard-response","126","326071","0.0-188.0","q92zz1jq","1680","1050","","","","","","","","","","","null","+","Fixation - short","","null","","","","","","","","","","","","","","","","",""
"","html-keyboard-response","127","326831","0.0-189.0","q92zz1jq","","","","","","","","","","","","","759","goj","Diagnostic trial","","f","","0","1","8","false","false","true","both pre & post","RIGHT","LEFT","f","1","false","","","",""
"","html-keyboard-response","128","327584","0.0-192.0","q92zz1jq","1680","1050","","","","","","","","","","","null","+","Fixation - short","","null","","","","","","","","","","","","","","","","",""
"","html-keyboard-response","129","328450","0.0-193.0","q92zz1jq","","","","","","","","","","","","","865","bms","Diagnostic trial","","f","","0","2","8","false","false","true","both pre & post","LEFT","LEFT","f","1","true","","","",""
"","html-keyboard-response","130","329202","0.0-196.0","q92zz1jq","1680","1050","","","","","","","","","","","null","+","Fixation - short","","null","","","","","","","","","","","","","","","","",""
"","html-keyboard-response","131","329688","0.0-197.0","q92zz1jq","","","","","","","","","","","","","485","bms","Diagnostic trial","","f","","0","3","8","false","false","true","both pre & post","LEFT","LEFT","f","1","true","","","",""
"","html-keyboard-response","132","330440","0.0-200.0","q92zz1jq","1680","1050","","","","","","","","","","","null","+","Fixation - short","","null","","","","","","","","","","","","","","","","",""
"","html-keyboard-response","133","331618","0.0-201.0","q92zz1jq","","","","","","","","","","","","","1177","bms","Diagnostic trial","","f","","0","4","8","false","false","false","both pre & post","LEFT","RIGHT","j","0","false","","","",""
"","call-function","134","331618","0.0-203.0-0.0","q92zz1jq","","","","","","","","","","","","","","","","","","","","","","","","","","","","","","","","","",""
"","html-keyboard-response","135","331920","0.0-203.0-1.0","q92zz1jq","1680","1050","","","","","","","","","","","null","Wrong","Feedback","","null","","","","","","","","","","","","","","","","",""
"","call-function","136","331921","0.0-203.0-2.0","q92zz1jq","","","","","","","","","","","","","","","","","","","","","","","","","","","","","","","","","",""
"","html-keyboard-response","137","332674","0.0-204.0","q92zz1jq","1680","1050","","","","","","","","","","","null","+","Fixation - short","","null","","","","","","","","","","","","","","","","",""
"","html-keyboard-response","138","333863","0.0-205.0","q92zz1jq","","","","","","","","","","","","","1189","goj","Diagnostic trial","","f","","0","5","8","false","false","true","both pre & post","RIGHT","LEFT","f","1","false","","","",""
"","html-keyboard-response","139","334614","0.0-208.0","q92zz1jq","1680","1050","","","","","","","","","","","null","+","Fixation - short","","null","","","","","","","","","","","","","","","","",""
"","html-keyboard-response","140","335060","0.0-209.0","q92zz1jq","","","","","","","","","","","","","445","bms","Diagnostic trial","","f","","0","6","8","false","false","true","both pre & post","LEFT","LEFT","f","1","true","","","",""
"","html-keyboard-response","141","335813","0.0-212.0","q92zz1jq","1680","1050","","","","","","","","","","","null","+","Fixation - short","","null","","","","","","","","","","","","","","","","",""
"","html-keyboard-response","142","336508","0.0-213.0","q92zz1jq","","","","","","","","","","","","","694","bms","Diagnostic trial","","j","","0","7","8","false","false","false","both pre & post","LEFT","RIGHT","j","1","false","","","",""
"","html-keyboard-response","143","337260","0.0-216.0","q92zz1jq","1680","1050","","","","","","","","","","","null","+","Fixation - short","","null","","","","","","","","","","","","","","","","",""
"","canvas-keyboard-response","144","338514","0.0-217.0","q92zz1jq","","","","","","","","","","","","","null","Cue","Cue","","null","","0","7","","","false","","","","","","","","","","",""
"","html-keyboard-response","145","339266","0.0-218.0","q92zz1jq","1680","1050","","","","","","","","","","","null","+","Fixation - short","","null","","","","","","","","","","","","","","","","",""
"","html-keyboard-response","146","340447","0.0-219.0","q92zz1jq","","","","","","","","","","","","","1180","bms","Diagnostic trial","","j","","0","8","8","true","false","false","both pre & post","LEFT","RIGHT","j","1","false","","","",""
"","html-keyboard-response","147","341198","0.0-222.0","q92zz1jq","1680","1050","","","","","","","","","","","null","+","Fixation - short","","null","","","","","","","","","","","","","","","","",""
"","html-keyboard-response","148","342140","0.0-223.0","q92zz1jq","","","","","","","","","","","","","941","goj","Diagnostic trial","","j","","0","9","8","true","false","false","both pre & post","RIGHT","RIGHT","j","1","true","","","",""
"","html-keyboard-response","149","342893","0.0-226.0","q92zz1jq","1680","1050","","","","","","","","","","","null","+","Fixation - short","","null","","","","","","","","","","","","","","","","",""
"","html-keyboard-response","150","344450","0.0-227.0","q92zz1jq","","","","","","","","","","","","","1557","goj","Inducer trial","","j","","0","","","","true","","","","","j","1","","false","RIGHT","",""
"","html-keyboard-response","151","345203","0.0-230.0","q92zz1jq","1680","1050","","","","","","","","","","","null","+","Fixation - short","","null","","","","","","","","","","","","","","","","",""
"","html-keyboard-response","152","349739","0.0-231.0","q92zz1jq","","","","","","","","","","","","","4535","If epy press LEFT | If bsh press RIGHT","Inducer instructions",""," ","","1","","","","","","","","","","","","","","",""
"","html-keyboard-response","153","350491","0.0-232.0","q92zz1jq","1680","1050","","","","","","","","","","","null","+","Fixation - short","","null","","","","","","","","","","","","","","","","",""
"","html-keyboard-response","154","351746","0.0-233.0","q92zz1jq","","","","","","","","","","","","","1255","epy","Diagnostic trial","","j","","1","0","4","false","false","false","both pre & post","LEFT","RIGHT","j","1","false","","","",""
"","html-keyboard-response","155","352498","0.0-236.0","q92zz1jq","1680","1050","","","","","","","","","","","null","+","Fixation - short","","null","","","","","","","","","","","","","","","","",""
"","html-keyboard-response","156","352959","0.0-237.0","q92zz1jq","","","","","","","","","","","","","461","epy","Diagnostic trial","","j","","1","1","4","false","false","false","both pre & post","LEFT","RIGHT","j","1","false","","","",""
"","html-keyboard-response","157","353712","0.0-240.0","q92zz1jq","1680","1050","","","","","","","","","","","null","+","Fixation - short","","null","","","","","","","","","","","","","","","","",""
"","html-keyboard-response","158","354363","0.0-241.0","q92zz1jq","","","","","","","","","","","","","650","epy","Diagnostic trial","","f","","1","2","4","false","false","true","both pre & post","LEFT","LEFT","f","1","true","","","",""
"","html-keyboard-response","159","355115","0.0-244.0","q92zz1jq","1680","1050","","","","","","","","","","","null","+","Fixation - short","","null","","","","","","","","","","","","","","","","",""
"","html-keyboard-response","160","355940","0.0-245.0","q92zz1jq","","","","","","","","","","","","","824","bsh","Diagnostic trial","","f","","1","3","4","false","false","true","both pre & post","RIGHT","LEFT","f","1","false","","","",""
"","html-keyboard-response","161","356693","0.0-248.0","q92zz1jq","1680","1050","","","","","","","","","","","null","+","Fixation - short","","null","","","","","","","","","","","","","","","","",""
"","canvas-keyboard-response","162","357946","0.0-249.0","q92zz1jq","","","","","","","","","","","","","null","Cue","Cue","","null","","1","3","","","false","","","","","","","","","","",""
"","html-keyboard-response","163","358700","0.0-250.0","q92zz1jq","1680","1050","","","","","","","","","","","null","+","Fixation - short","","null","","","","","","","","","","","","","","","","",""
"","html-keyboard-response","164","359822","0.0-251.0","q92zz1jq","","","","","","","","","","","","","1122","epy","Diagnostic trial","","j","","1","4","4","true","false","false","both pre & post","LEFT","RIGHT","j","1","false","","","",""
"","html-keyboard-response","165","360574","0.0-254.0","q92zz1jq","1680","1050","","","","","","","","","","","null","+","Fixation - short","","null","","","","","","","","","","","","","","","","",""
"","html-keyboard-response","166","361335","0.0-255.0","q92zz1jq","","","","","","","","","","","","","759","epy","Diagnostic trial","","f","","1","5","4","true","false","true","both pre & post","LEFT","LEFT","f","1","true","","","",""
"","html-keyboard-response","167","362088","0.0-258.0","q92zz1jq","1680","1050","","","","","","","","","","","null","+","Fixation - short","","null","","","","","","","","","","","","","","","","",""
"","html-keyboard-response","168","363137","0.0-259.0","q92zz1jq","","","","","","","","","","","","","1048","epy","Diagnostic trial","","j","","1","6","4","true","false","false","both pre & post","LEFT","RIGHT","j","1","false","","","",""
"","html-keyboard-response","169","363890","0.0-262.0","q92zz1jq","1680","1050","","","","","","","","","","","null","+","Fixation - short","","null","","","","","","","","","","","","","","","","",""
"","html-keyboard-response","170","364316","0.0-263.0","q92zz1jq","","","","","","","","","","","","","426","epy","Diagnostic trial","","j","","1","7","4","true","false","false","both pre & post","LEFT","RIGHT","j","1","false","","","",""
"","html-keyboard-response","171","365069","0.0-266.0","q92zz1jq","1680","1050","","","","","","","","","","","null","+","Fixation - short","","null","","","","","","","","","","","","","","","","",""
"","html-keyboard-response","172","366463","0.0-267.0","q92zz1jq","","","","","","","","","","","","","1393","bsh","Inducer trial","","j","","1","","","","true","","","","","j","1","","false","RIGHT","",""
"","html-keyboard-response","173","367216","0.0-270.0","q92zz1jq","1680","1050","","","","","","","","","","","null","+","Fixation - short","","null","","","","","","","","","","","","","","","","",""
"","html-keyboard-response","174","372045","0.0-271.0","q92zz1jq","","","","","","","","","","","","","4828","If nga press LEFT | If wwt press RIGHT","Inducer instructions",""," ","","2","","","","","","","","","","","","","","",""
"","html-keyboard-response","175","372798","0.0-272.0","q92zz1jq","1680","1050","","","","","","","","","","","null","+","Fixation - short","","null","","","","","","","","","","","","","","","","",""
"","html-keyboard-response","176","373781","0.0-273.0","q92zz1jq","","","","","","","","","","","","","983","wwt","Diagnostic trial","","j","","2","0","5","false","false","true","both pre & post","RIGHT","LEFT","f","0","false","","","",""
"","call-function","177","373782","0.0-275.0-0.0","q92zz1jq","","","","","","","","","","","","","","","","","","","","","","","","","","","","","","","","","",""
"","html-keyboard-response","178","374084","0.0-275.0-1.0","q92zz1jq","1680","1050","","","","","","","","","","","null","Wrong","Feedback","","null","","","","","","","","","","","","","","","","",""
"","call-function","179","374085","0.0-275.0-2.0","q92zz1jq","","","","","","","","","","","","","","","","","","","","","","","","","","","","","","","","","",""
"","html-keyboard-response","180","374837","0.0-276.0","q92zz1jq","1680","1050","","","","","","","","","","","null","+","Fixation - short","","null","","","","","","","","","","","","","","","","",""
"","html-keyboard-response","181","375478","0.0-277.0","q92zz1jq","","","","","","","","","","","","","640","nga","Diagnostic trial","","j","","2","1","5","false","false","false","both pre & post","LEFT","RIGHT","j","1","false","","","",""
"","html-keyboard-response","182","376232","0.0-280.0","q92zz1jq","1680","1050","","","","","","","","","","","null","+","Fixation - short","","null","","","","","","","","","","","","","","","","",""
"","html-keyboard-response","183","376831","0.0-281.0","q92zz1jq","","","","","","","","","","","","","599","nga","Diagnostic trial","","j","","2","2","5","false","false","false","both pre & post","LEFT","RIGHT","j","1","false","","","",""
"","html-keyboard-response","184","377584","0.0-284.0","q92zz1jq","1680","1050","","","","","","","","","","","null","+","Fixation - short","","null","","","","","","","","","","","","","","","","",""
"","html-keyboard-response","185","377979","0.0-285.0","q92zz1jq","","","","","","","","","","","","","393","wwt","Diagnostic trial","","j","","2","3","5","false","false","false","both pre & post","RIGHT","RIGHT","j","1","true","","","",""
"","html-keyboard-response","186","378730","0.0-288.0","q92zz1jq","1680","1050","","","","","","","","","","","null","+","Fixation - short","","null","","","","","","","","","","","","","","","","",""
"","html-keyboard-response","187","379223","0.0-289.0","q92zz1jq","","","","","","","","","","","","","492","wwt","Diagnostic trial","","j","","2","4","5","false","false","false","both pre & post","RIGHT","RIGHT","j","1","true","","","",""
"","html-keyboard-response","188","379976","0.0-292.0","q92zz1jq","1680","1050","","","","","","","","","","","null","+","Fixation - short","","null","","","","","","","","","","","","","","","","",""
"","canvas-keyboard-response","189","381228","0.0-293.0","q92zz1jq","","","","","","","","","","","","","null","Cue","Cue","","null","","2","4","","","false","","","","","","","","","","",""
"","html-keyboard-response","190","381980","0.0-294.0","q92zz1jq","1680","1050","","","","","","","","","","","null","+","Fixation - short","","null","","","","","","","","","","","","","","","","",""
"","html-keyboard-response","191","382938","0.0-295.0","q92zz1jq","","","","","","","","","","","","","957","nga","Diagnostic trial","","j","","2","5","5","true","false","true","both pre & post","LEFT","LEFT","f","0","true","","","",""
"","call-function","192","382938","0.0-297.0-0.0","q92zz1jq","","","","","","","","","","","","","","","","","","","","","","","","","","","","","","","","","",""
"","html-keyboard-response","193","383241","0.0-297.0-1.0","q92zz1jq","1680","1050","","","","","","","","","","","null","Wrong","Feedback","","null","","","","","","","","","","","","","","","","",""
"","call-function","194","383242","0.0-297.0-2.0","q92zz1jq","","","","","","","","","","","","","","","","","","","","","","","","","","","","","","","","","",""
"","html-keyboard-response","195","383995","0.0-298.0","q92zz1jq","1680","1050","","","","","","","","","","","null","+","Fixation - short","","null","","","","","","","","","","","","","","","","",""
"","html-keyboard-response","196","384638","0.0-299.0","q92zz1jq","","","","","","","","","","","","","642","wwt","Diagnostic trial","","f","","2","6","5","true","false","true","both pre & post","RIGHT","LEFT","f","1","false","","","",""
"","html-keyboard-response","197","385390","0.0-302.0","q92zz1jq","1680","1050","","","","","","","","","","","null","+","Fixation - short","","null","","","","","","","","","","","","","","","","",""
"","html-keyboard-response","198","386207","0.0-303.0","q92zz1jq","","","","","","","","","","","","","816","wwt","Diagnostic trial","","j","","2","7","5","true","false","false","both pre & post","RIGHT","RIGHT","j","1","true","","","",""
"","html-keyboard-response","199","386960","0.0-306.0","q92zz1jq","1680","1050","","","","","","","","","","","null","+","Fixation - short","","null","","","","","","","","","","","","","","","","",""
"","html-keyboard-response","200","387962","0.0-307.0","q92zz1jq","","","","","","","","","","","","","1001","nga","Diagnostic trial","","j","","2","8","5","true","false","false","both pre & post","LEFT","RIGHT","j","1","false","","","",""
"","html-keyboard-response","201","388715","0.0-310.0","q92zz1jq","1680","1050","","","","","","","","","","","null","+","Fixation - short","","null","","","","","","","","","","","","","","","","",""
"","html-keyboard-response","202","390286","0.0-311.0","q92zz1jq","","","","","","","","","","","","","1571","wwt","Inducer trial","","j","","2","","","","true","","","","","j","1","","false","RIGHT","",""
"","html-keyboard-response","203","391038","0.0-314.0","q92zz1jq","1680","1050","","","","","","","","","","","null","+","Fixation - short","","null","","","","","","","","","","","","","","","","",""
"","html-keyboard-response","204","395039","0.0-315.0","q92zz1jq","","","","","","","","","","","","","3999","If guf press LEFT | If lpn press RIGHT","Inducer instructions",""," ","","3","","","","","","","","","","","","","","",""
"","html-keyboard-response","205","395792","0.0-316.0","q92zz1jq","1680","1050","","","","","","","","","","","null","+","Fixation - short","","null","","","","","","","","","","","","","","","","",""
"","html-keyboard-response","206","396377","0.0-317.0","q92zz1jq","","","","","","","","","","","","","585","guf","Diagnostic trial","","f","","3","0","4","false","false","true","both pre & post","LEFT","LEFT","f","1","true","","","",""
"","html-keyboard-response","207","397130","0.0-320.0","q92zz1jq","1680","1050","","","","","","","","","","","null","+","Fixation - short","","null","","","","","","","","","","","","","","","","",""
"","html-keyboard-response","208","397641","0.0-321.0","q92zz1jq","","","","","","","","","","","","","511","guf","Diagnostic trial","","j","","3","1","4","false","false","false","both pre & post","LEFT","RIGHT","j","1","false","","","",""
"","html-keyboard-response","209","398393","0.0-324.0","q92zz1jq","1680","1050","","","","","","","","","","","null","+","Fixation - short","","null","","","","","","","","","","","","","","","","",""
"","html-keyboard-response","210","399101","0.0-325.0","q92zz1jq","","","","","","","","","","","","","707","lpn","Diagnostic trial","","j","","3","2","4","false","false","false","both pre & post","RIGHT","RIGHT","j","1","true","","","",""
"","html-keyboard-response","211","399854","0.0-328.0","q92zz1jq","1680","1050","","","","","","","","","","","null","+","Fixation - short","","null","","","","","","","","","","","","","","","","",""
"","html-keyboard-response","212","400668","0.0-329.0","q92zz1jq","","","","","","","","","","","","","814","lpn","Diagnostic trial","","f","","3","3","4","false","false","true","both pre & post","RIGHT","LEFT","f","1","false","","","",""
"","html-keyboard-response","213","401421","0.0-332.0","q92zz1jq","1680","1050","","","","","","","","","","","null","+","Fixation - short","","null","","","","","","","","","","","","","","","","",""
"","canvas-keyboard-response","214","402674","0.0-333.0","q92zz1jq","","","","","","","","","","","","","null","Cue","Cue","","null","","3","3","","","false","","","","","","","","","","",""
"","html-keyboard-response","215","403427","0.0-334.0","q92zz1jq","1680","1050","","","","","","","","","","","null","+","Fixation - short","","null","","","","","","","","","","","","","","","","",""
"","html-keyboard-response","216","405019","0.0-335.0","q92zz1jq","","","","","","","","","","","","","1591","lpn","Inducer trial","","j","","3","","","","true","","","","","j","1","","false","RIGHT","",""
"","html-keyboard-response","217","405772","0.0-338.0","q92zz1jq","1680","1050","","","","","","","","","","","null","+","Fixation - short","","null","","","","","","","","","","","","","","","","",""
"","html-keyboard-response","218","408631","0.0-339.0","q92zz1jq","","","","","","","","","","","","","2858","If vsc press LEFT | If ecl press RIGHT","Inducer instructions",""," ","","4","","","","","","","","","","","","","","",""
"","html-keyboard-response","219","409384","0.0-340.0","q92zz1jq","1680","1050","","","","","","","","","","","null","+","Fixation - short","","null","","","","","","","","","","","","","","","","",""
"","html-keyboard-response","220","410558","0.0-341.0","q92zz1jq","","","","","","","","","","","","","1173","vsc","Diagnostic trial","","j","","4","0","4","false","false","false","both pre & post","LEFT","RIGHT","j","1","false","","","",""
"","html-keyboard-response","221","411310","0.0-344.0","q92zz1jq","1680","1050","","","","","","","","","","","null","+","Fixation - short","","null","","","","","","","","","","","","","","","","",""
"","html-keyboard-response","222","411803","0.0-345.0","q92zz1jq","","","","","","","","","","","","","492","ecl","Diagnostic trial","","f","","4","1","4","false","false","true","both pre & post","RIGHT","LEFT","f","1","false","","","",""
"","html-keyboard-response","223","412555","0.0-348.0","q92zz1jq","1680","1050","","","","","","","","","","","null","+","Fixation - short","","null","","","","","","","","","","","","","","","","",""
"","html-keyboard-response","224","413074","0.0-349.0","q92zz1jq","","","","","","","","","","","","","518","ecl","Diagnostic trial","","f","","4","2","4","false","false","true","both pre & post","RIGHT","LEFT","f","1","false","","","",""
"","html-keyboard-response","225","413825","0.0-352.0","q92zz1jq","1680","1050","","","","","","","","","","","null","+","Fixation - short","","null","","","","","","","","","","","","","","","","",""
"","html-keyboard-response","226","414568","0.0-353.0","q92zz1jq","","","","","","","","","","","","","742","vsc","Diagnostic trial","","f","","4","3","4","false","false","true","both pre & post","LEFT","LEFT","f","1","true","","","",""
"","html-keyboard-response","227","415320","0.0-356.0","q92zz1jq","1680","1050","","","","","","","","","","","null","+","Fixation - short","","null","","","","","","","","","","","","","","","","",""
"","canvas-keyboard-response","228","416572","0.0-357.0","q92zz1jq","","","","","","","","","","","","","null","Cue","Cue","","null","","4","3","","","false","","","","","","","","","","",""
"","html-keyboard-response","229","417325","0.0-358.0","q92zz1jq","1680","1050","","","","","","","","","","","null","+","Fixation - short","","null","","","","","","","","","","","","","","","","",""
"","html-keyboard-response","230","418128","0.0-359.0","q92zz1jq","","","","","","","","","","","","","802","ecl","Diagnostic trial","","j","","4","4","4","true","false","false","both pre & post","RIGHT","RIGHT","j","1","true","","","",""
"","html-keyboard-response","231","418881","0.0-362.0","q92zz1jq","1680","1050","","","","","","","","","","","null","+","Fixation - short","","null","","","","","","","","","","","","","","","","",""
"","html-keyboard-response","232","419377","0.0-363.0","q92zz1jq","","","","","","","","","","","","","496","vsc","Diagnostic trial","","j","","4","5","4","true","false","false","both pre & post","LEFT","RIGHT","j","1","false","","","",""
"","html-keyboard-response","233","420130","0.0-366.0","q92zz1jq","1680","1050","","","","","","","","","","","null","+","Fixation - short","","null","","","","","","","","","","","","","","","","",""
"","html-keyboard-response","234","420850","0.0-367.0","q92zz1jq","","","","","","","","","","","","","719","ecl","Diagnostic trial","","j","","4","6","4","true","false","false","both pre & post","RIGHT","RIGHT","j","1","true","","","",""
"","html-keyboard-response","235","421602","0.0-370.0","q92zz1jq","1680","1050","","","","","","","","","","","null","+","Fixation - short","","null","","","","","","","","","","","","","","","","",""
"","html-keyboard-response","236","422557","0.0-371.0","q92zz1jq","","","","","","","","","","","","","955","vsc","Inducer trial","","f","","4","","","","true","","","","","f","1","","false","LEFT","",""
"","html-keyboard-response","237","423311","0.0-374.0","q92zz1jq","1680","1050","","","","","","","","","","","null","+","Fixation - short","","null","","","","","","","","","","","","","","","","",""
"","html-keyboard-response","238","426935","0.0-375.0","q92zz1jq","","","","","","","","","","","","","3623","If snx press LEFT | If fja press RIGHT","Inducer instructions",""," ","","5","","","","","","","","","","","","","","",""
"","html-keyboard-response","239","427687","0.0-376.0","q92zz1jq","1680","1050","","","","","","","","","","","null","+","Fixation - short","","null","","","","","","","","","","","","","","","","",""
"","html-keyboard-response","240","428711","0.0-377.0","q92zz1jq","","","","","","","","","","","","","1024","snx","Diagnostic trial","","j","","5","0","4","false","false","false","both pre & post","LEFT","RIGHT","j","1","false","","","",""
"","html-keyboard-response","241","429464","0.0-380.0","q92zz1jq","1680","1050","","","","","","","","","","","null","+","Fixation - short","","null","","","","","","","","","","","","","","","","",""
"","html-keyboard-response","242","429948","0.0-381.0","q92zz1jq","","","","","","","","","","","","","483","fja","Diagnostic trial","","j","","5","1","4","false","false","false","both pre & post","RIGHT","RIGHT","j","1","true","","","",""
"","html-keyboard-response","243","430701","0.0-384.0","q92zz1jq","1680","1050","","","","","","","","","","","null","+","Fixation - short","","null","","","","","","","","","","","","","","","","",""
"","html-keyboard-response","244","431335","0.0-385.0","q92zz1jq","","","","","","","","","","","","","634","fja","Diagnostic trial","","f","","5","2","4","false","false","true","both pre & post","RIGHT","LEFT","f","1","false","","","",""
"","html-keyboard-response","245","432088","0.0-388.0","q92zz1jq","1680","1050","","","","","","","","","","","null","+","Fixation - short","","null","","","","","","","","","","","","","","","","",""
"","html-keyboard-response","246","432785","0.0-389.0","q92zz1jq","","","","","","","","","","","","","697","fja","Diagnostic trial","","f","","5","3","4","false","false","true","both pre & post","RIGHT","LEFT","f","1","false","","","",""
"","html-keyboard-response","247","433538","0.0-392.0","q92zz1jq","1680","1050","","","","","","","","","","","null","+","Fixation - short","","null","","","","","","","","","","","","","","","","",""
"","canvas-keyboard-response","248","434791","0.0-393.0","q92zz1jq","","","","","","","","","","","","","null","Cue","Cue","","null","","5","3","","","false","","","","","","","","","","",""
"","html-keyboard-response","249","435544","0.0-394.0","q92zz1jq","1680","1050","","","","","","","","","","","null","+","Fixation - short","","null","","","","","","","","","","","","","","","","",""
"","html-keyboard-response","250","436990","0.0-395.0","q92zz1jq","","","","","","","","","","","","","1445","snx","Diagnostic trial","","f","","5","4","4","true","false","true","both pre & post","LEFT","LEFT","f","1","true","","","",""
"","html-keyboard-response","251","437743","0.0-398.0","q92zz1jq","1680","1050","","","","","","","","","","","null","+","Fixation - short","","null","","","","","","","","","","","","","","","","",""
"","html-keyboard-response","252","438301","0.0-399.0","q92zz1jq","","","","","","","","","","","","","557","snx","Diagnostic trial","","f","","5","5","4","true","false","true","both pre & post","LEFT","LEFT","f","1","true","","","",""
"","html-keyboard-response","253","439053","0.0-402.0","q92zz1jq","1680","1050","","","","","","","","","","","null","+","Fixation - short","","null","","","","","","","","","","","","","","","","",""
"","html-keyboard-response","254","439584","0.0-403.0","q92zz1jq","","","","","","","","","","","","","530","snx","Diagnostic trial","","j","","5","6","4","true","false","false","both pre & post","LEFT","RIGHT","j","1","false","","","",""
"","html-keyboard-response","255","440337","0.0-406.0","q92zz1jq","1680","1050","","","","","","","","","","","null","+","Fixation - short","","null","","","","","","","","","","","","","","","","",""
"","html-keyboard-response","256","440995","0.0-407.0","q92zz1jq","","","","","","","","","","","","","657","snx","Diagnostic trial","","f","","5","7","4","true","false","true","both pre & post","LEFT","LEFT","f","1","true","","","",""
"","html-keyboard-response","257","441747","0.0-410.0","q92zz1jq","1680","1050","","","","","","","","","","","null","+","Fixation - short","","null","","","","","","","","","","","","","","","","",""
"","html-keyboard-response","258","442944","0.0-411.0","q92zz1jq","","","","","","","","","","","","","1197","snx","Inducer trial","","f","","5","","","","true","","","","","f","1","","false","LEFT","",""
"","html-keyboard-response","259","443697","0.0-414.0","q92zz1jq","1680","1050","","","","","","","","","","","null","+","Fixation - short","","null","","","","","","","","","","","","","","","","",""
"","html-keyboard-response","260","446436","0.0-415.0","q92zz1jq","","","","","","","","","","","","","2739","If chy press LEFT | If rpw press RIGHT","Inducer instructions",""," ","","6","","","","","","","","","","","","","","",""
"","html-keyboard-response","261","447188","0.0-416.0","q92zz1jq","1680","1050","","","","","","","","","","","null","+","Fixation - short","","null","","","","","","","","","","","","","","","","",""
"","html-keyboard-response","262","448167","0.0-417.0","q92zz1jq","","","","","","","","","","","","","978","rpw","Diagnostic trial","","j","","6","0","10","false","false","false","both pre & post","RIGHT","RIGHT","j","1","true","","","",""
"","html-keyboard-response","263","448921","0.0-420.0","q92zz1jq","1680","1050","","","","","","","","","","","null","+","Fixation - short","","null","","","","","","","","","","","","","","","","",""
"","html-keyboard-response","264","449416","0.0-421.0","q92zz1jq","","","","","","","","","","","","","495","rpw","Diagnostic trial","","j","","6","1","10","false","false","false","both pre & post","RIGHT","RIGHT","j","1","true","","","",""
"","html-keyboard-response","265","450167","0.0-424.0","q92zz1jq","1680","1050","","","","","","","","","","","null","+","Fixation - short","","null","","","","","","","","","","","","","","","","",""
"","html-keyboard-response","266","450558","0.0-425.0","q92zz1jq","","","","","","","","","","","","","390","rpw","Diagnostic trial","","j","","6","2","10","false","false","true","both pre & post","RIGHT","LEFT","f","0","false","","","",""
"","call-function","267","450558","0.0-427.0-0.0","q92zz1jq","","","","","","","","","","","","","","","","","","","","","","","","","","","","","","","","","",""
"","html-keyboard-response","268","450861","0.0-427.0-1.0","q92zz1jq","1680","1050","","","","","","","","","","","null","Wrong","Feedback","","null","","","","","","","","","","","","","","","","",""
"","call-function","269","450861","0.0-427.0-2.0","q92zz1jq","","","","","","","","","","","","","","","","","","","","","","","","","","","","","","","","","",""
"","html-keyboard-response","270","451614","0.0-428.0","q92zz1jq","1680","1050","","","","","","","","","","","null","+","Fixation - short","","null","","","","","","","","","","","","","","","","",""
"","html-keyboard-response","271","452235","0.0-429.0","q92zz1jq","","","","","","","","","","","","","620","chy","Diagnostic trial","","f","","6","3","10","false","false","true","both pre & post","LEFT","LEFT","f","1","true","","","",""
"","html-keyboard-response","272","452987","0.0-432.0","q92zz1jq","1680","1050","","","","","","","","","","","null","+","Fixation - short","","null","","","","","","","","","","","","","","","","",""
"","html-keyboard-response","273","453416","0.0-433.0","q92zz1jq","","","","","","","","","","","","","429","chy","Diagnostic trial","","f","","6","4","10","false","false","true","both pre & post","LEFT","LEFT","f","1","true","","","",""
"","html-keyboard-response","274","454169","0.0-436.0","q92zz1jq","1680","1050","","","","","","","","","","","null","+","Fixation - short","","null","","","","","","","","","","","","","","","","",""
"","html-keyboard-response","275","454676","0.0-437.0","q92zz1jq","","","","","","","","","","","","","507","rpw","Diagnostic trial","","f","","6","5","10","false","false","true","both pre & post","RIGHT","LEFT","f","1","false","","","",""
"","html-keyboard-response","276","455430","0.0-440.0","q92zz1jq","1680","1050","","","","","","","","","","","null","+","Fixation - short","","null","","","","","","","","","","","","","","","","",""
"","html-keyboard-response","277","456076","0.0-441.0","q92zz1jq","","","","","","","","","","","","","645","chy","Diagnostic trial","","j","","6","6","10","false","false","false","both pre & post","LEFT","RIGHT","j","1","false","","","",""
"","html-keyboard-response","278","456828","0.0-444.0","q92zz1jq","1680","1050","","","","","","","","","","","null","+","Fixation - short","","null","","","","","","","","","","","","","","","","",""
"","html-keyboard-response","279","458570","0.0-445.0","q92zz1jq","","","","","","","","","","","","","1741","chy","Diagnostic trial","","j","","6","7","10","false","false","true","both pre & post","LEFT","LEFT","f","0","true","","","",""
"","call-function","280","458571","0.0-447.0-0.0","q92zz1jq","","","","","","","","","","","","","","","","","","","","","","","","","","","","","","","","","",""
"","html-keyboard-response","281","458873","0.0-447.0-1.0","q92zz1jq","1680","1050","","","","","","","","","","","null","Wrong","Feedback","","null","","","","","","","","","","","","","","","","",""
"","call-function","282","458873","0.0-447.0-2.0","q92zz1jq","","","","","","","","","","","","","","","","","","","","","","","","","","","","","","","","","",""
"","html-keyboard-response","283","459626","0.0-448.0","q92zz1jq","1680","1050","","","","","","","","","","","null","+","Fixation - short","","null","","","","","","","","","","","","","","","","",""
"","html-keyboard-response","284","460233","0.0-449.0","q92zz1jq","","","","","","","","","","","","","606","rpw","Diagnostic trial","","f","","6","8","10","false","false","true","both pre & post","RIGHT","LEFT","f","1","false","","","",""
"","html-keyboard-response","285","460985","0.0-452.0","q92zz1jq","1680","1050","","","","","","","","","","","null","+","Fixation - short","","null","","","","","","","","","","","","","","","","",""
"","html-keyboard-response","286","461849","0.0-453.0","q92zz1jq","","","","","","","","","","","","","863","rpw","Diagnostic trial","","j","","6","9","10","false","false","false","both pre & post","RIGHT","RIGHT","j","1","true","","","",""
"","html-keyboard-response","287","462602","0.0-456.0","q92zz1jq","1680","1050","","","","","","","","","","","null","+","Fixation - short","","null","","","","","","","","","","","","","","","","",""
"","canvas-keyboard-response","288","463855","0.0-457.0","q92zz1jq","","","","","","","","","","","","","null","Cue","Cue","","null","","6","9","","","false","","","","","","","","","","",""
"","html-keyboard-response","289","464607","0.0-458.0","q92zz1jq","1680","1050","","","","","","","","","","","null","+","Fixation - short","","null","","","","","","","","","","","","","","","","",""
"","html-keyboard-response","290","465785","0.0-459.0","q92zz1jq","","","","","","","","","","","","","1177","rpw","Diagnostic trial","","j","","6","10","10","true","false","false","both pre & post","RIGHT","RIGHT","j","1","true","","","",""
"","html-keyboard-response","291","466538","0.0-462.0","q92zz1jq","1680","1050","","","","","","","","","","","null","+","Fixation - short","","null","","","","","","","","","","","","","","","","",""
"","html-keyboard-response","292","467199","0.0-463.0","q92zz1jq","","","","","","","","","","","","","660","chy","Diagnostic trial","","f","","6","11","10","true","false","true","both pre & post","LEFT","LEFT","f","1","true","","","",""
"","html-keyboard-response","293","467952","0.0-466.0","q92zz1jq","1680","1050","","","","","","","","","","","null","+","Fixation - short","","null","","","","","","","","","","","","","","","","",""
"","html-keyboard-response","294","469285","0.0-467.0","q92zz1jq","","","","","","","","","","","","","1333","rpw","Inducer trial","","j","","6","","","","true","","","","","j","1","","false","RIGHT","",""
"","html-keyboard-response","295","470038","0.0-470.0","q92zz1jq","1680","1050","","","","","","","","","","","null","+","Fixation - short","","null","","","","","","","","","","","","","","","","",""
"","html-keyboard-response","296","472694","0.0-471.0","q92zz1jq","","","","","","","","","","","","","2656","If vpu press LEFT | If efg press RIGHT","Inducer instructions",""," ","","7","","","","","","","","","","","","","","",""
"","html-keyboard-response","297","473446","0.0-472.0","q92zz1jq","1680","1050","","","","","","","","","","","null","+","Fixation - short","","null","","","","","","","","","","","","","","","","",""
"","html-keyboard-response","298","474988","0.0-473.0","q92zz1jq","","","","","","","","","","","","","1541","vpu","Diagnostic trial","","j","","7","0","9","false","false","false","both pre & post","LEFT","RIGHT","j","1","false","","","",""
"","html-keyboard-response","299","475740","0.0-476.0","q92zz1jq","1680","1050","","","","","","","","","","","null","+","Fixation - short","","null","","","","","","","","","","","","","","","","",""
"","html-keyboard-response","300","476293","0.0-477.0","q92zz1jq","","","","","","","","","","","","","551","efg","Diagnostic trial","","f","","7","1","9","false","false","true","both pre & post","RIGHT","LEFT","f","1","false","","","",""
"","html-keyboard-response","301","477046","0.0-480.0","q92zz1jq","1680","1050","","","","","","","","","","","null","+","Fixation - short","","null","","","","","","","","","","","","","","","","",""
"","html-keyboard-response","302","477769","0.0-481.0","q92zz1jq","","","","","","","","","","","","","723","vpu","Diagnostic trial","","f","","7","2","9","false","false","true","both pre & post","LEFT","LEFT","f","1","true","","","",""
"","html-keyboard-response","303","478522","0.0-484.0","q92zz1jq","1680","1050","","","","","","","","","","","null","+","Fixation - short","","null","","","","","","","","","","","","","","","","",""
"","html-keyboard-response","304","479156","0.0-485.0","q92zz1jq","","","","","","","","","","","","","634","vpu","Diagnostic trial","","j","","7","3","9","false","false","false","both pre & post","LEFT","RIGHT","j","1","false","","","",""
"","html-keyboard-response","305","479909","0.0-488.0","q92zz1jq","1680","1050","","","","","","","","","","","null","+","Fixation - short","","null","","","","","","","","","","","","","","","","",""
"","html-keyboard-response","306","480884","0.0-489.0","q92zz1jq","","","","","","","","","","","","","974","vpu","Diagnostic trial","","j","","7","4","9","false","false","false","both pre & post","LEFT","RIGHT","j","1","false","","","",""
"","html-keyboard-response","307","481636","0.0-492.0","q92zz1jq","1680","1050","","","","","","","","","","","null","+","Fixation - short","","null","","","","","","","","","","","","","","","","",""
"","html-keyboard-response","308","482823","0.0-493.0","q92zz1jq","","","","","","","","","","","","","1186","efg","Diagnostic trial","","f","","7","5","9","false","false","true","both pre & post","RIGHT","LEFT","f","1","false","","","",""
"","html-keyboard-response","309","483576","0.0-496.0","q92zz1jq","1680","1050","","","","","","","","","","","null","+","Fixation - short","","null","","","","","","","","","","","","","","","","",""
"","html-keyboard-response","310","484036","0.0-497.0","q92zz1jq","","","","","","","","","","","","","459","efg","Diagnostic trial","","f","","7","6","9","false","false","true","both pre & post","RIGHT","LEFT","f","1","false","","","",""
"","html-keyboard-response","311","484788","0.0-500.0","q92zz1jq","1680","1050","","","","","","","","","","","null","+","Fixation - short","","null","","","","","","","","","","","","","","","","",""
"","html-keyboard-response","312","485341","0.0-501.0","q92zz1jq","","","","","","","","","","","","","552","vpu","Diagnostic trial","","f","","7","7","9","false","false","true","both pre & post","LEFT","LEFT","f","1","true","","","",""
"","html-keyboard-response","313","486094","0.0-504.0","q92zz1jq","1680","1050","","","","","","","","","","","null","+","Fixation - short","","null","","","","","","","","","","","","","","","","",""
"","html-keyboard-response","314","486715","0.0-505.0","q92zz1jq","","","","","","","","","","","","","621","vpu","Diagnostic trial","","j","","7","8","9","false","false","false","both pre & post","LEFT","RIGHT","j","1","false","","","",""
"","html-keyboard-response","315","487468","0.0-508.0","q92zz1jq","1680","1050","","","","","","","","","","","null","+","Fixation - short","","null","","","","","","","","","","","","","","","","",""
"","canvas-keyboard-response","316","488721","0.0-509.0","q92zz1jq","","","","","","","","","","","","","null","Cue","Cue","","null","","7","8","","","false","","","","","","","","","","",""
"","html-keyboard-response","317","489473","0.0-510.0","q92zz1jq","1680","1050","","","","","","","","","","","null","+","Fixation - short","","null","","","","","","","","","","","","","","","","",""
"","html-keyboard-response","318","490306","0.0-511.0","q92zz1jq","","","","","","","","","","","","","833","efg","Diagnostic trial","","f","","7","9","9","true","false","true","both pre & post","RIGHT","LEFT","f","1","false","","","",""
"","html-keyboard-response","319","491059","0.0-514.0","q92zz1jq","1680","1050","","","","","","","","","","","null","+","Fixation - short","","null","","","","","","","","","","","","","","","","",""
"","html-keyboard-response","320","491516","0.0-515.0","q92zz1jq","","","","","","","","","","","","","456","efg","Diagnostic trial","","f","","7","10","9","true","false","true","both pre & post","RIGHT","LEFT","f","1","false","","","",""
"","html-keyboard-response","321","492268","0.0-518.0","q92zz1jq","1680","1050","","","","","","","","","","","null","+","Fixation - short","","null","","","","","","","","","","","","","","","","",""
"","html-keyboard-response","322","492911","0.0-519.0","q92zz1jq","","","","","","","","","","","","","643","vpu","Diagnostic trial","","f","","7","11","9","true","false","true","both pre & post","LEFT","LEFT","f","1","true","","","",""
"","html-keyboard-response","323","493664","0.0-522.0","q92zz1jq","1680","1050","","","","","","","","","","","null","+","Fixation - short","","null","","","","","","","","","","","","","","","","",""
"","html-keyboard-response","324","494920","0.0-523.0","q92zz1jq","","","","","","","","","","","","","1255","efg","Inducer trial","","j","","7","","","","true","","","","","j","1","","false","RIGHT","",""
"","html-keyboard-response","325","495672","0.0-526.0","q92zz1jq","1680","1050","","","","","","","","","","","null","+","Fixation - short","","null","","","","","","","","","","","","","","","","",""
"","html-keyboard-response","326","499611","0.0-527.0","q92zz1jq","","","","","","","","","","","","","3938","If quy press LEFT | If ndm press RIGHT","Inducer instructions",""," ","","8","","","","","","","","","","","","","","",""
"","html-keyboard-response","327","500362","0.0-528.0","q92zz1jq","1680","1050","","","","","","","","","","","null","+","Fixation - short","","null","","","","","","","","","","","","","","","","",""
"","html-keyboard-response","328","501382","0.0-529.0","q92zz1jq","","","","","","","","","","","","","1020","quy","Diagnostic trial","","j","","8","0","8","false","false","false","both pre & post","LEFT","RIGHT","j","1","false","","","",""
"","html-keyboard-response","329","502136","0.0-532.0","q92zz1jq","1680","1050","","","","","","","","","","","null","+","Fixation - short","","null","","","","","","","","","","","","","","","","",""
"","html-keyboard-response","330","502564","0.0-533.0","q92zz1jq","","","","","","","","","","","","","427","ndm","Diagnostic trial","","j","","8","1","8","false","false","false","both pre & post","RIGHT","RIGHT","j","1","true","","","",""
"","html-keyboard-response","331","503316","0.0-536.0","q92zz1jq","1680","1050","","","","","","","","","","","null","+","Fixation - short","","null","","","","","","","","","","","","","","","","",""
"","html-keyboard-response","332","503972","0.0-537.0","q92zz1jq","","","","","","","","","","","","","655","ndm","Diagnostic trial","","j","","8","2","8","false","false","false","both pre & post","RIGHT","RIGHT","j","1","true","","","",""
"","html-keyboard-response","333","504725","0.0-540.0","q92zz1jq","1680","1050","","","","","","","","","","","null","+","Fixation - short","","null","","","","","","","","","","","","","","","","",""
"","html-keyboard-response","334","505199","0.0-541.0","q92zz1jq","","","","","","","","","","","","","473","quy","Diagnostic trial","","j","","8","3","8","false","false","false","both pre & post","LEFT","RIGHT","j","1","false","","","",""
"","html-keyboard-response","335","505952","0.0-544.0","q92zz1jq","1680","1050","","","","","","","","","","","null","+","Fixation - short","","null","","","","","","","","","","","","","","","","",""
"","html-keyboard-response","336","506418","0.0-545.0","q92zz1jq","","","","","","","","","","","","","466","quy","Diagnostic trial","","j","","8","4","8","false","false","false","both pre & post","LEFT","RIGHT","j","1","false","","","",""
"","html-keyboard-response","337","507170","0.0-548.0","q92zz1jq","1680","1050","","","","","","","","","","","null","+","Fixation - short","","null","","","","","","","","","","","","","","","","",""
"","html-keyboard-response","338","507902","0.0-549.0","q92zz1jq","","","","","","","","","","","","","730","quy","Diagnostic trial","","f","","8","5","8","false","false","true","both pre & post","LEFT","LEFT","f","1","true","","","",""
"","html-keyboard-response","339","508654","0.0-552.0","q92zz1jq","1680","1050","","","","","","","","","","","null","+","Fixation - short","","null","","","","","","","","","","","","","","","","",""
"","html-keyboard-response","340","509302","0.0-553.0","q92zz1jq","","","","","","","","","","","","","647","ndm","Diagnostic trial","","f","","8","6","8","false","false","true","both pre & post","RIGHT","LEFT","f","1","false","","","",""
"","html-keyboard-response","341","510054","0.0-556.0","q92zz1jq","1680","1050","","","","","","","","","","","null","+","Fixation - short","","null","","","","","","","","","","","","","","","","",""
"","html-keyboard-response","342","510608","0.0-557.0","q92zz1jq","","","","","","","","","","","","","554","ndm","Diagnostic trial","","f","","8","7","8","false","false","true","both pre & post","RIGHT","LEFT","f","1","false","","","",""
"","html-keyboard-response","343","511361","0.0-560.0","q92zz1jq","1680","1050","","","","","","","","","","","null","+","Fixation - short","","null","","","","","","","","","","","","","","","","",""
"","canvas-keyboard-response","344","512614","0.0-561.0","q92zz1jq","","","","","","","","","","","","","null","Cue","Cue","","null","","8","7","","","false","","","","","","","","","","",""
"","html-keyboard-response","345","513367","0.0-562.0","q92zz1jq","1680","1050","","","","","","","","","","","null","+","Fixation - short","","null","","","","","","","","","","","","","","","","",""
"","html-keyboard-response","346","514031","0.0-563.0","q92zz1jq","","","","","","","","","","","","","663","quy","Diagnostic trial","","f","","8","8","8","true","false","true","both pre & post","LEFT","LEFT","f","1","true","","","",""
"","html-keyboard-response","347","514785","0.0-566.0","q92zz1jq","1680","1050","","","","","","","","","","","null","+","Fixation - short","","null","","","","","","","","","","","","","","","","",""
"","html-keyboard-response","348","515883","0.0-567.0","q92zz1jq","","","","","","","","","","","","","1098","quy","Inducer trial","","f","","8","","","","true","","","","","f","1","","false","LEFT","",""
"","html-keyboard-response","349","516635","0.0-570.0","q92zz1jq","1680","1050","","","","","","","","","","","null","+","Fixation - short","","null","","","","","","","","","","","","","","","","",""
"","html-keyboard-response","350","518475","0.0-571.0","q92zz1jq","","","","","","","","","","","","","1839","If cta press LEFT | If dpa press RIGHT","Inducer instructions",""," ","","9","","","","","","","","","","","","","","",""
"","html-keyboard-response","351","519228","0.0-572.0","q92zz1jq","1680","1050","","","","","","","","","","","null","+","Fixation - short","","null","","","","","","","","","","","","","","","","",""
"","html-keyboard-response","352","520138","0.0-573.0","q92zz1jq","","","","","","","","","","","","","908","cta","Diagnostic trial","","j","","9","0","9","false","false","false","both pre & post","LEFT","RIGHT","j","1","false","","","",""
"","html-keyboard-response","353","520890","0.0-576.0","q92zz1jq","1680","1050","","","","","","","","","","","null","+","Fixation - short","","null","","","","","","","","","","","","","","","","",""
"","html-keyboard-response","354","521595","0.0-577.0","q92zz1jq","","","","","","","","","","","","","705","cta","Diagnostic trial","","f","","9","1","9","false","false","true","both pre & post","LEFT","LEFT","f","1","true","","","",""
"","html-keyboard-response","355","522348","0.0-580.0","q92zz1jq","1680","1050","","","","","","","","","","","null","+","Fixation - short","","null","","","","","","","","","","","","","","","","",""
"","html-keyboard-response","356","523033","0.0-581.0","q92zz1jq","","","","","","","","","","","","","684","cta","Diagnostic trial","","j","","9","2","9","false","false","false","both pre & post","LEFT","RIGHT","j","1","false","","","",""
"","html-keyboard-response","357","523786","0.0-584.0","q92zz1jq","1680","1050","","","","","","","","","","","null","+","Fixation - short","","null","","","","","","","","","","","","","","","","",""
"","html-keyboard-response","358","524264","0.0-585.0","q92zz1jq","","","","","","","","","","","","","478","cta","Diagnostic trial","","j","","9","3","9","false","false","false","both pre & post","LEFT","RIGHT","j","1","false","","","",""
"","html-keyboard-response","359","525017","0.0-588.0","q92zz1jq","1680","1050","","","","","","","","","","","null","+","Fixation - short","","null","","","","","","","","","","","","","","","","",""
"","html-keyboard-response","360","525418","0.0-589.0","q92zz1jq","","","","","","","","","","","","","401","dpa","Diagnostic trial","","f","","9","4","9","false","false","true","both pre & post","RIGHT","LEFT","f","1","false","","","",""
"","html-keyboard-response","361","526171","0.0-592.0","q92zz1jq","1680","1050","","","","","","","","","","","null","+","Fixation - short","","null","","","","","","","","","","","","","","","","",""
"","html-keyboard-response","362","526675","0.0-593.0","q92zz1jq","","","","","","","","","","","","","503","dpa","Diagnostic trial","","j","","9","5","9","false","false","false","both pre & post","RIGHT","RIGHT","j","1","true","","","",""
"","html-keyboard-response","363","527427","0.0-596.0","q92zz1jq","1680","1050","","","","","","","","","","","null","+","Fixation - short","","null","","","","","","","","","","","","","","","","",""
"","html-keyboard-response","364","528036","0.0-597.0","q92zz1jq","","","","","","","","","","","","","609","cta","Diagnostic trial","","j","","9","6","9","false","false","false","both pre & post","LEFT","RIGHT","j","1","false","","","",""
"","html-keyboard-response","365","528789","0.0-600.0","q92zz1jq","1680","1050","","","","","","","","","","","null","+","Fixation - short","","null","","","","","","","","","","","","","","","","",""
"","html-keyboard-response","366","529427","0.0-601.0","q92zz1jq","","","","","","","","","","","","","637","dpa","Diagnostic trial","","f","","9","7","9","false","false","true","both pre & post","RIGHT","LEFT","f","1","false","","","",""
"","html-keyboard-response","367","530180","0.0-604.0","q92zz1jq","1680","1050","","","","","","","","","","","null","+","Fixation - short","","null","","","","","","","","","","","","","","","","",""
"","html-keyboard-response","368","530994","0.0-605.0","q92zz1jq","","","","","","","","","","","","","814","dpa","Diagnostic trial","","j","","9","8","9","false","false","false","both pre & post","RIGHT","RIGHT","j","1","true","","","",""
"","html-keyboard-response","369","531748","0.0-608.0","q92zz1jq","1680","1050","","","","","","","","","","","null","+","Fixation - short","","null","","","","","","","","","","","","","","","","",""
"","canvas-keyboard-response","370","533000","0.0-609.0","q92zz1jq","","","","","","","","","","","","","null","Cue","Cue","","null","","9","8","","","false","","","","","","","","","","",""
"","html-keyboard-response","371","533754","0.0-610.0","q92zz1jq","1680","1050","","","","","","","","","","","null","+","Fixation - short","","null","","","","","","","","","","","","","","","","",""
"","html-keyboard-response","372","534361","0.0-611.0","q92zz1jq","","","","","","","","","","","","","606","cta","Diagnostic trial","","f","","9","9","9","true","false","true","both pre & post","LEFT","LEFT","f","1","true","","","",""
"","html-keyboard-response","373","535114","0.0-614.0","q92zz1jq","1680","1050","","","","","","","","","","","null","+","Fixation - short","","null","","","","","","","","","","","","","","","","",""
"","html-keyboard-response","374","535830","0.0-615.0","q92zz1jq","","","","","","","","","","","","","715","dpa","Diagnostic trial","","j","","9","10","9","true","false","false","both pre & post","RIGHT","RIGHT","j","1","true","","","",""
"","html-keyboard-response","375","536583","0.0-618.0","q92zz1jq","1680","1050","","","","","","","","","","","null","+","Fixation - short","","null","","","","","","","","","","","","","","","","",""
"","html-keyboard-response","376","537243","0.0-619.0","q92zz1jq","","","","","","","","","","","","","659","cta","Diagnostic trial","","f","","9","11","9","true","false","true","both pre & post","LEFT","LEFT","f","1","true","","","",""
"","html-keyboard-response","377","537996","0.0-622.0","q92zz1jq","1680","1050","","","","","","","","","","","null","+","Fixation - short","","null","","","","","","","","","","","","","","","","",""
"","html-keyboard-response","378","539140","0.0-623.0","q92zz1jq","","","","","","","","","","","","","1144","cta","Inducer trial","","f","","9","","","","true","","","","","f","1","","false","LEFT","",""
"","html-keyboard-response","379","539893","0.0-626.0","q92zz1jq","1680","1050","","","","","","","","","","","null","+","Fixation - short","","null","","","","","","","","","","","","","","","","",""
"","html-keyboard-response","380","541783","0.0-627.0","q92zz1jq","","","","","","","","","","","","","1889","If hhd press LEFT | If upf press RIGHT","Inducer instructions",""," ","","10","","","","","","","","","","","","","","",""
"","html-keyboard-response","381","542536","0.0-628.0","q92zz1jq","1680","1050","","","","","","","","","","","null","+","Fixation - short","","null","","","","","","","","","","","","","","","","",""
"","html-keyboard-response","382","543415","0.0-629.0","q92zz1jq","","","","","","","","","","","","","878","hhd","Diagnostic trial","","f","","10","0","8","false","false","true","both pre & post","LEFT","LEFT","f","1","true","","","",""
"","html-keyboard-response","383","544168","0.0-632.0","q92zz1jq","1680","1050","","","","","","","","","","","null","+","Fixation - short","","null","","","","","","","","","","","","","","","","",""
"","html-keyboard-response","384","544718","0.0-633.0","q92zz1jq","","","","","","","","","","","","","550","upf","Diagnostic trial","","j","","10","1","8","false","false","false","both pre & post","RIGHT","RIGHT","j","1","true","","","",""
"","html-keyboard-response","385","545471","0.0-636.0","q92zz1jq","1680","1050","","","","","","","","","","","null","+","Fixation - short","","null","","","","","","","","","","","","","","","","",""
"","html-keyboard-response","386","545971","0.0-637.0","q92zz1jq","","","","","","","","","","","","","500","upf","Diagnostic trial","","j","","10","2","8","false","false","false","both pre & post","RIGHT","RIGHT","j","1","true","","","",""
"","html-keyboard-response","387","546724","0.0-640.0","q92zz1jq","1680","1050","","","","","","","","","","","null","+","Fixation - short","","null","","","","","","","","","","","","","","","","",""
"","html-keyboard-response","388","547313","0.0-641.0","q92zz1jq","","","","","","","","","","","","","588","hhd","Diagnostic trial","","f","","10","3","8","false","false","true","both pre & post","LEFT","LEFT","f","1","true","","","",""
"","html-keyboard-response","389","548066","0.0-644.0","q92zz1jq","1680","1050","","","","","","","","","","","null","+","Fixation - short","","null","","","","","","","","","","","","","","","","",""
"","html-keyboard-response","390","548850","0.0-645.0","q92zz1jq","","","","","","","","","","","","","784","hhd","Diagnostic trial","","j","","10","4","8","false","false","false","both pre & post","LEFT","RIGHT","j","1","false","","","",""
"","html-keyboard-response","391","549602","0.0-648.0","q92zz1jq","1680","1050","","","","","","","","","","","null","+","Fixation - short","","null","","","","","","","","","","","","","","","","",""
"","html-keyboard-response","392","550142","0.0-649.0","q92zz1jq","","","","","","","","","","","","","539","upf","Diagnostic trial","","f","","10","5","8","false","false","true","both pre & post","RIGHT","LEFT","f","1","false","","","",""
"","html-keyboard-response","393","550895","0.0-652.0","q92zz1jq","1680","1050","","","","","","","","","","","null","+","Fixation - short","","null","","","","","","","","","","","","","","","","",""
"","html-keyboard-response","394","551524","0.0-653.0","q92zz1jq","","","","","","","","","","","","","629","hhd","Diagnostic trial","","f","","10","6","8","false","false","true","both pre & post","LEFT","LEFT","f","1","true","","","",""
"","html-keyboard-response","395","552277","0.0-656.0","q92zz1jq","1680","1050","","","","","","","","","","","null","+","Fixation - short","","null","","","","","","","","","","","","","","","","",""
"","html-keyboard-response","396","552885","0.0-657.0","q92zz1jq","","","","","","","","","","","","","607","upf","Diagnostic trial","","j","","10","7","8","false","false","false","both pre & post","RIGHT","RIGHT","j","1","true","","","",""
"","html-keyboard-response","397","553637","0.0-660.0","q92zz1jq","1680","1050","","","","","","","","","","","null","+","Fixation - short","","null","","","","","","","","","","","","","","","","",""
"","canvas-keyboard-response","398","554890","0.0-661.0","q92zz1jq","","","","","","","","","","","","","null","Cue","Cue","","null","","10","7","","","false","","","","","","","","","","",""
"","html-keyboard-response","399","555643","0.0-662.0","q92zz1jq","1680","1050","","","","","","","","","","","null","+","Fixation - short","","null","","","","","","","","","","","","","","","","",""
"","html-keyboard-response","400","556263","0.0-663.0","q92zz1jq","","","","","","","","","","","","","620","hhd","Diagnostic trial","","f","","10","8","8","true","false","true","both pre & post","LEFT","LEFT","f","1","true","","","",""
"","html-keyboard-response","401","557016","0.0-666.0","q92zz1jq","1680","1050","","","","","","","","","","","null","+","Fixation - short","","null","","","","","","","","","","","","","","","","",""
"","html-keyboard-response","402","557969","0.0-667.0","q92zz1jq","","","","","","","","","","","","","953","hhd","Inducer trial","","f","","10","","","","true","","","","","f","1","","false","LEFT","",""
"","html-keyboard-response","403","558722","0.0-670.0","q92zz1jq","1680","1050","","","","","","","","","","","null","+","Fixation - short","","null","","","","","","","","","","","","","","","","",""
"","html-keyboard-response","404","563304","0.0-671.0","q92zz1jq","","","","","","","","","","","","","4581","If mmo press LEFT | If jcr press RIGHT","Inducer instructions",""," ","","11","","","","","","","","","","","","","","",""
"","html-keyboard-response","405","564057","0.0-672.0","q92zz1jq","1680","1050","","","","","","","","","","","null","+","Fixation - short","","null","","","","","","","","","","","","","","","","",""
"","html-keyboard-response","406","564807","0.0-673.0","q92zz1jq","","","","","","","","","","","","","750","mmo","Diagnostic trial","","f","","11","0","11","false","false","false","both pre & post","LEFT","RIGHT","j","0","false","","","",""
"","call-function","407","564807","0.0-675.0-0.0","q92zz1jq","","","","","","","","","","","","","","","","","","","","","","","","","","","","","","","","","",""
"","html-keyboard-response","408","565110","0.0-675.0-1.0","q92zz1jq","1680","1050","","","","","","","","","","","null","Wrong","Feedback","","null","","","","","","","","","","","","","","","","",""
"","call-function","409","565110","0.0-675.0-2.0","q92zz1jq","","","","","","","","","","","","","","","","","","","","","","","","","","","","","","","","","",""
"","html-keyboard-response","410","565862","0.0-676.0","q92zz1jq","1680","1050","","","","","","","","","","","null","+","Fixation - short","","null","","","","","","","","","","","","","","","","",""
"","html-keyboard-response","411","566650","0.0-677.0","q92zz1jq","","","","","","","","","","","","","787","mmo","Diagnostic trial","","f","","11","1","11","false","false","true","both pre & post","LEFT","LEFT","f","1","true","","","",""
"","html-keyboard-response","412","567402","0.0-680.0","q92zz1jq","1680","1050","","","","","","","","","","","null","+","Fixation - short","","null","","","","","","","","","","","","","","","","",""
"","html-keyboard-response","413","568029","0.0-681.0","q92zz1jq","","","","","","","","","","","","","626","jcr","Diagnostic trial","","f","","11","2","11","false","false","true","both pre & post","RIGHT","LEFT","f","1","false","","","",""
"","html-keyboard-response","414","568782","0.0-684.0","q92zz1jq","1680","1050","","","","","","","","","","","null","+","Fixation - short","","null","","","","","","","","","","","","","","","","",""
"","html-keyboard-response","415","569300","0.0-685.0","q92zz1jq","","","","","","","","","","","","","518","mmo","Diagnostic trial","","f","","11","3","11","false","false","true","both pre & post","LEFT","LEFT","f","1","true","","","",""
"","html-keyboard-response","416","570053","0.0-688.0","q92zz1jq","1680","1050","","","","","","","","","","","null","+","Fixation - short","","null","","","","","","","","","","","","","","","","",""
"","html-keyboard-response","417","570692","0.0-689.0","q92zz1jq","","","","","","","","","","","","","638","jcr","Diagnostic trial","","f","","11","4","11","false","false","true","both pre & post","RIGHT","LEFT","f","1","false","","","",""
"","html-keyboard-response","418","571444","0.0-692.0","q92zz1jq","1680","1050","","","","","","","","","","","null","+","Fixation - short","","null","","","","","","","","","","","","","","","","",""
"","html-keyboard-response","419","571965","0.0-693.0","q92zz1jq","","","","","","","","","","","","","520","jcr","Diagnostic trial","","f","","11","5","11","false","false","false","both pre & post","RIGHT","RIGHT","j","0","true","","","",""
"","call-function","420","571965","0.0-695.0-0.0","q92zz1jq","","","","","","","","","","","","","","","","","","","","","","","","","","","","","","","","","",""
"","html-keyboard-response","421","572268","0.0-695.0-1.0","q92zz1jq","1680","1050","","","","","","","","","","","null","Wrong","Feedback","","null","","","","","","","","","","","","","","","","",""
"","call-function","422","572268","0.0-695.0-2.0","q92zz1jq","","","","","","","","","","","","","","","","","","","","","","","","","","","","","","","","","",""
"","html-keyboard-response","423","573020","0.0-696.0","q92zz1jq","1680","1050","","","","","","","","","","","null","+","Fixation - short","","null","","","","","","","","","","","","","","","","",""
"","html-keyboard-response","424","573627","0.0-697.0","q92zz1jq","","","","","","","","","","","","","606","mmo","Diagnostic trial","","j","","11","6","11","false","false","false","both pre & post","LEFT","RIGHT","j","1","false","","","",""
"","html-keyboard-response","425","574380","0.0-700.0","q92zz1jq","1680","1050","","","","","","","","","","","null","+","Fixation - short","","null","","","","","","","","","","","","","","","","",""
"","html-keyboard-response","426","574810","0.0-701.0","q92zz1jq","","","","","","","","","","","","","430","mmo","Diagnostic trial","","j","","11","7","11","false","false","false","both pre & post","LEFT","RIGHT","j","1","false","","","",""
"","html-keyboard-response","427","575562","0.0-704.0","q92zz1jq","1680","1050","","","","","","","","","","","null","+","Fixation - short","","null","","","","","","","","","","","","","","","","",""
"","html-keyboard-response","428","576020","0.0-705.0","q92zz1jq","","","","","","","","","","","","","457","mmo","Diagnostic trial","","j","","11","8","11","false","false","false","both pre & post","LEFT","RIGHT","j","1","false","","","",""
"","html-keyboard-response","429","576772","0.0-708.0","q92zz1jq","1680","1050","","","","","","","","","","","null","+","Fixation - short","","null","","","","","","","","","","","","","","","","",""
"","html-keyboard-response","430","577528","0.0-709.0","q92zz1jq","","","","","","","","","","","","","755","jcr","Diagnostic trial","","j","","11","9","11","false","false","false","both pre & post","RIGHT","RIGHT","j","1","true","","","",""
"","html-keyboard-response","431","578281","0.0-712.0","q92zz1jq","1680","1050","","","","","","","","","","","null","+","Fixation - short","","null","","","","","","","","","","","","","","","","",""
"","html-keyboard-response","432","578731","0.0-713.0","q92zz1jq","","","","","","","","","","","","","449","jcr","Diagnostic trial","","j","","11","10","11","false","false","false","both pre & post","RIGHT","RIGHT","j","1","true","","","",""
"","html-keyboard-response","433","579485","0.0-716.0","q92zz1jq","1680","1050","","","","","","","","","","","null","+","Fixation - short","","null","","","","","","","","","","","","","","","","",""
"","canvas-keyboard-response","434","580737","0.0-717.0","q92zz1jq","","","","","","","","","","","","","null","Cue","Cue","","null","","11","10","","","false","","","","","","","","","","",""
"","html-keyboard-response","435","581491","0.0-718.0","q92zz1jq","1680","1050","","","","","","","","","","","null","+","Fixation - short","","null","","","","","","","","","","","","","","","","",""
"","html-keyboard-response","436","582465","0.0-719.0","q92zz1jq","","","","","","","","","","","","","974","mmo","Diagnostic trial","","j","","11","11","11","true","false","false","both pre & post","LEFT","RIGHT","j","1","false","","","",""
"","html-keyboard-response","437","583217","0.0-722.0","q92zz1jq","1680","1050","","","","","","","","","","","null","+","Fixation - short","","null","","","","","","","","","","","","","","","","",""
"","html-keyboard-response","438","583866","0.0-723.0","q92zz1jq","","","","","","","","","","","","","649","jcr","Diagnostic trial","","f","","11","12","11","true","false","true","both pre & post","RIGHT","LEFT","f","1","false","","","",""
"","html-keyboard-response","439","584619","0.0-726.0","q92zz1jq","1680","1050","","","","","","","","","","","null","+","Fixation - short","","null","","","","","","","","","","","","","","","","",""
"","html-keyboard-response","440","585279","0.0-727.0","q92zz1jq","","","","","","","","","","","","","659","mmo","Diagnostic trial","","f","","11","13","11","true","false","true","both pre & post","LEFT","LEFT","f","1","true","","","",""
"","html-keyboard-response","441","586032","0.0-730.0","q92zz1jq","1680","1050","","","","","","","","","","","null","+","Fixation - short","","null","","","","","","","","","","","","","","","","",""
"","html-keyboard-response","442","586757","0.0-731.0","q92zz1jq","","","","","","","","","","","","","724","jcr","Diagnostic trial","","f","","11","14","11","true","false","true","both pre & post","RIGHT","LEFT","f","1","false","","","",""
"","html-keyboard-response","443","587510","0.0-734.0","q92zz1jq","1680","1050","","","","","","","","","","","null","+","Fixation - short","","null","","","","","","","","","","","","","","","","",""
"","html-keyboard-response","444","588614","0.0-735.0","q92zz1jq","","","","","","","","","","","","","1103","jcr","Inducer trial","","j","","11","","","","true","","","","","j","1","","false","RIGHT","",""
"","html-keyboard-response","445","589367","0.0-738.0","q92zz1jq","1680","1050","","","","","","","","","","","null","+","Fixation - short","","null","","","","","","","","","","","","","","","","",""
"","html-keyboard-response","446","591053","0.0-739.0","q92zz1jq","","","","","","","","","","","","","1686","If yna press LEFT | If vib press RIGHT","Inducer instructions",""," ","","12","","","","","","","","","","","","","","",""
"","html-keyboard-response","447","591805","0.0-740.0","q92zz1jq","1680","1050","","","","","","","","","","","null","+","Fixation - short","","null","","","","","","","","","","","","","","","","",""
"","html-keyboard-response","448","592835","0.0-741.0","q92zz1jq","","","","","","","","","","","","","1029","yna","Diagnostic trial","","j","","12","0","9","false","false","false","both pre & post","LEFT","RIGHT","j","1","false","","","",""
"","html-keyboard-response","449","593588","0.0-744.0","q92zz1jq","1680","1050","","","","","","","","","","","null","+","Fixation - short","","null","","","","","","","","","","","","","","","","",""
"","html-keyboard-response","450","594149","0.0-745.0","q92zz1jq","","","","","","","","","","","","","561","vib","Diagnostic trial","","f","","12","1","9","false","false","true","both pre & post","RIGHT","LEFT","f","1","false","","","",""
"","html-keyboard-response","451","594903","0.0-748.0","q92zz1jq","1680","1050","","","","","","","","","","","null","+","Fixation - short","","null","","","","","","","","","","","","","","","","",""
"","html-keyboard-response","452","595299","0.0-749.0","q92zz1jq","","","","","","","","","","","","","396","vib","Diagnostic trial","","f","","12","2","9","false","false","true","both pre & post","RIGHT","LEFT","f","1","false","","","",""
"","html-keyboard-response","453","596051","0.0-752.0","q92zz1jq","1680","1050","","","","","","","","","","","null","+","Fixation - short","","null","","","","","","","","","","","","","","","","",""
"","html-keyboard-response","454","596653","0.0-753.0","q92zz1jq","","","","","","","","","","","","","601","yna","Diagnostic trial","","f","","12","3","9","false","false","true","both pre & post","LEFT","LEFT","f","1","true","","","",""
"","html-keyboard-response","455","597405","0.0-756.0","q92zz1jq","1680","1050","","","","","","","","","","","null","+","Fixation - short","","null","","","","","","","","","","","","","","","","",""
"","html-keyboard-response","456","598087","0.0-757.0","q92zz1jq","","","","","","","","","","","","","681","yna","Diagnostic trial","","j","","12","4","9","false","false","false","both pre & post","LEFT","RIGHT","j","1","false","","","",""
"","html-keyboard-response","457","598841","0.0-760.0","q92zz1jq","1680","1050","","","","","","","","","","","null","+","Fixation - short","","null","","","","","","","","","","","","","","","","",""
"","html-keyboard-response","458","599847","0.0-761.0","q92zz1jq","","","","","","","","","","","","","1006","vib","Diagnostic trial","","f","","12","5","9","false","false","true","both pre & post","RIGHT","LEFT","f","1","false","","","",""
