"value","trial_type","trial_index","time_elapsed","internal_node_id","id","width","height","webaudio","browser","browser_version","mobile","os","fullscreen","vsync_rate","webcam","microphone","view_history","rt","stimulus","trial_info","success","response","exp_parameters","inducer_run","diagnostic_run","cue_num","post_cue","inducer_trial","italic","forced_equal_run","correct_inducer_response_side","correct_diag_response_side","correct_response_key","correct_response","congruent","force_equal","correct_indu_response_side","accuracy","interactive"
"","call-function","0","8","0.0-0.0","6d0oysah","","","","","","","","","","","","","","","","","","","","","","","","","","","","","","","","","",""
"","browser-check","1","8204","0.0-1.0","6d0oysah","1366","607","true","chrome","119.0.0","false","Windows 10","true","61.79","true","true","","","","","","","","","","","","","","","","","","","","","","",""
"","instructions","2","38408","0.0-2.0","6d0oysah","","","","","","","","","","","","[{""page_index"":0,""viewing_time"":4809},{""page_index"":1,""viewing_time"":18101},{""page_index"":2,""viewing_time"":7286}]","30196","The experiment and consent","The experiment and consent","","","","","","","","","","","","","","","","","","",""
"","fullscreen","3","41579","0.0-3.0","6d0oysah","","","","","","","","","","","","","1804","","Full screen","true","","","","","","","","","","","","","","","","","",""
"","instructions","4","74434","0.0-4.0","6d0oysah","","","","","","","","","","","","[{""page_index"":0,""viewing_time"":19357},{""page_index"":1,""viewing_time"":13495}]","32853","Instructions","Basic overview explanation","","","","","","","","","","","","","","","","","","",""
"","html-keyboard-response","5","88929","0.0-5.0","6d0oysah","","","","","","","","","","","","","12930","If italic press RIGHT | If upright press LEFT","Diagnostic instructions",""," ","{""debug"":false,""skip_instructions"":false,""skip_practice"":false,""save_local_data"":false,""studu_name"":""exp2"",""default_background_colour"":""#cccccc"",""wrong_response_colour"":""#d22d2d"",""instruction_delay"":20000,""trial_duration"":2000,""short_fixation"":750,""long_fixation"":1500,""wrong_response_delay"":300,""too_slow_delay"":300,""instruction_font_size"":""24px"",""general_font_size"":""42px"",""fixation_size"":""48px"",""allowed_responses"":[""f"",""j""],""cue_min_length"":0,""cue_max_length"":4,""tot_post_cue_len"":72,""cue_colour"":""red"",""cue_shape"":""Triangle"",""cue_size"":70,""cue_duration"":1250,""avg_number_of_cues"":3,""inducer_colour"":""blue"",""number_of_inducers"":24,""pre_cue_italic_forced_equal"":true,""post_cue_italic_forced_equal"":true,""prac_diagnostic_rounds"":16,""prac_inducer_rounds"":6,""prac_cue_rounds"":16,""prac_post_cue_num"":3}","","","","","","","","","","","","","","","",""
"","html-keyboard-response","6","89690","0.0-6.0","6d0oysah","1366","768","","","","","","","","","","","null","+","Fixation - short","","null","","","","","","","","","","","","","","","","",""
"","html-keyboard-response","7","90397","0.0-7.0","6d0oysah","","","","","","","","","","","","","704","vrm","Diagnostic practice","","j","","Diagnostic practice","0","-84","true","false","true","prac equal","RIGHT","RIGHT","j","1","true","","","",""
"","html-keyboard-response","8","91153","0.0-10.0","6d0oysah","1366","768","","","","","","","","","","","null","+","Fixation - short","","null","","","","","","","","","","","","","","","","",""
"","html-keyboard-response","9","91644","0.0-11.0","6d0oysah","","","","","","","","","","","","","489","vrm","Diagnostic practice","","f","","Diagnostic practice","1","-84","true","false","false","prac equal","RIGHT","LEFT","f","1","false","","","",""
"","html-keyboard-response","10","92409","0.0-14.0","6d0oysah","1366","768","","","","","","","","","","","null","+","Fixation - short","","null","","","","","","","","","","","","","","","","",""
"","html-keyboard-response","11","93086","0.0-15.0","6d0oysah","","","","","","","","","","","","","675","vrm","Diagnostic practice","","f","","Diagnostic practice","2","-84","true","false","false","prac equal","RIGHT","LEFT","f","1","false","","","",""
"","html-keyboard-response","12","93849","0.0-18.0","6d0oysah","1366","768","","","","","","","","","","","null","+","Fixation - short","","null","","","","","","","","","","","","","","","","",""
"","html-keyboard-response","13","94422","0.0-19.0","6d0oysah","","","","","","","","","","","","","571","vrm","Diagnostic practice","","f","","Diagnostic practice","3","-84","true","false","false","prac equal","RIGHT","LEFT","f","1","false","","","",""
"","html-keyboard-response","14","95182","0.0-22.0","6d0oysah","1366","768","","","","","","","","","","","null","+","Fixation - short","","null","","","","","","","","","","","","","","","","",""
"","html-keyboard-response","15","95763","0.0-23.0","6d0oysah","","","","","","","","","","","","","580","vrm","Diagnostic practice","","f","","Diagnostic practice","4","-84","true","false","false","prac equal","RIGHT","LEFT","f","1","false","","","",""
"","html-keyboard-response","16","96522","0.0-26.0","6d0oysah","1366","768","","","","","","","","","","","null","+","Fixation - short","","null","","","","","","","","","","","","","","","","",""
"","html-keyboard-response","17","97291","0.0-27.0","6d0oysah","","","","","","","","","","","","","768","pmf","Diagnostic practice","","f","","Diagnostic practice","5","-84","true","false","false","prac equal","LEFT","LEFT","f","1","true","","","",""
"","html-keyboard-response","18","98055","0.0-30.0","6d0oysah","1366","768","","","","","","","","","","","null","+","Fixation - short","","null","","","","","","","","","","","","","","","","",""
"","html-keyboard-response","19","98601","0.0-31.0","6d0oysah","","","","","","","","","","","","","545","vrm","Diagnostic practice","","j","","Diagnostic practice","6","-84","true","false","true","prac equal","RIGHT","RIGHT","j","1","true","","","",""
"","html-keyboard-response","20","99361","0.0-34.0","6d0oysah","1366","768","","","","","","","","","","","null","+","Fixation - short","","null","","","","","","","","","","","","","","","","",""
"","html-keyboard-response","21","100122","0.0-35.0","6d0oysah","","","","","","","","","","","","","759","pmf","Diagnostic practice","","j","","Diagnostic practice","7","-84","true","false","true","prac equal","LEFT","RIGHT","j","1","false","","","",""
"","html-keyboard-response","22","100886","0.0-38.0","6d0oysah","1366","768","","","","","","","","","","","null","+","Fixation - short","","null","","","","","","","","","","","","","","","","",""
"","html-keyboard-response","23","101521","0.0-39.0","6d0oysah","","","","","","","","","","","","","633","vrm","Diagnostic practice","","j","","Diagnostic practice","8","-84","true","false","true","prac equal","RIGHT","RIGHT","j","1","true","","","",""
"","html-keyboard-response","24","102277","0.0-42.0","6d0oysah","1366","768","","","","","","","","","","","null","+","Fixation - short","","null","","","","","","","","","","","","","","","","",""
"","html-keyboard-response","25","102761","0.0-43.0","6d0oysah","","","","","","","","","","","","","482","pmf","Diagnostic practice","","f","","Diagnostic practice","9","-84","true","false","false","prac equal","LEFT","LEFT","f","1","true","","","",""
"","html-keyboard-response","26","103525","0.0-46.0","6d0oysah","1366","768","","","","","","","","","","","null","+","Fixation - short","","null","","","","","","","","","","","","","","","","",""
"","html-keyboard-response","27","104192","0.0-47.0","6d0oysah","","","","","","","","","","","","","666","pmf","Diagnostic practice","","j","","Diagnostic practice","10","-84","true","false","true","prac equal","LEFT","RIGHT","j","1","false","","","",""
"","html-keyboard-response","28","104957","0.0-50.0","6d0oysah","1366","768","","","","","","","","","","","null","+","Fixation - short","","null","","","","","","","","","","","","","","","","",""
"","html-keyboard-response","29","105626","0.0-51.0","6d0oysah","","","","","","","","","","","","","668","vrm","Diagnostic practice","","j","","Diagnostic practice","11","-84","true","false","true","prac equal","RIGHT","RIGHT","j","1","true","","","",""
"","html-keyboard-response","30","106389","0.0-54.0","6d0oysah","1366","768","","","","","","","","","","","null","+","Fixation - short","","null","","","","","","","","","","","","","","","","",""
"","html-keyboard-response","31","106972","0.0-55.0","6d0oysah","","","","","","","","","","","","","582","pmf","Diagnostic practice","","f","","Diagnostic practice","12","-84","true","false","false","prac equal","LEFT","LEFT","f","1","true","","","",""
"","html-keyboard-response","32","107728","0.0-58.0","6d0oysah","1366","768","","","","","","","","","","","null","+","Fixation - short","","null","","","","","","","","","","","","","","","","",""
"","html-keyboard-response","33","108250","0.0-59.0","6d0oysah","","","","","","","","","","","","","521","pmf","Diagnostic practice","","f","","Diagnostic practice","13","-84","true","false","false","prac equal","LEFT","LEFT","f","1","true","","","",""
"","html-keyboard-response","34","109008","0.0-62.0","6d0oysah","1366","768","","","","","","","","","","","null","+","Fixation - short","","null","","","","","","","","","","","","","","","","",""
"","html-keyboard-response","35","109596","0.0-63.0","6d0oysah","","","","","","","","","","","","","587","pmf","Diagnostic practice","","j","","Diagnostic practice","14","-84","true","false","true","prac equal","LEFT","RIGHT","j","1","false","","","",""
"","html-keyboard-response","36","110353","0.0-66.0","6d0oysah","1366","768","","","","","","","","","","","null","+","Fixation - short","","null","","","","","","","","","","","","","","","","",""
"","html-keyboard-response","37","111004","0.0-67.0","6d0oysah","","","","","","","","","","","","","650","vrm","Diagnostic practice","","j","","Diagnostic practice","15","-84","true","false","true","prac equal","RIGHT","RIGHT","j","1","true","","","",""
"","html-keyboard-response","38","111769","0.0-70.0","6d0oysah","1366","768","","","","","","","","","","","null","+","Fixation - short","","null","","","","","","","","","","","","","","","","",""
"","instructions","39","123964","0.0-71.0","6d0oysah","","","","","","","","","","","","[{""page_index"":0,""viewing_time"":12194}]","12194","Instructions","Final experiment explanation","","","","","","","","","","","","","","","","","","",""
"","html-keyboard-response","40","130998","0.0-72.0","6d0oysah","","","","","","","","","","","","","5525","If jcr press RIGHT | If ume press LEFT","Inducer practice",""," ","","Practice","","","","","","","","","","","","","","",""
"","html-keyboard-response","41","131762","0.0-73.0","6d0oysah","1366","768","","","","","","","","","","","null","+","Fixation - short","","null","","","","","","","","","","","","","","","","",""
"","html-keyboard-response","42","133936","0.0-74.0","6d0oysah","","","","","","","","","","","","","2171","jcr","Inducer practice","","j","","Practice","","","","true","","","","","j","1","","true","RIGHT","",""
"","html-keyboard-response","43","134702","0.0-77.0","6d0oysah","1366","768","","","","","","","","","","","null","+","Fixation - short","","null","","","","","","","","","","","","","","","","",""
"","html-keyboard-response","44","138393","0.0-78.0","6d0oysah","","","","","","","","","","","","","3689","If vsc press RIGHT | If cmj press LEFT","Inducer practice",""," ","","Practice","","","","","","","","","","","","","","",""
"","html-keyboard-response","45","139155","0.0-79.0","6d0oysah","1366","768","","","","","","","","","","","null","+","Fixation - short","","null","","","","","","","","","","","","","","","","",""
"","html-keyboard-response","46","139689","0.0-80.0","6d0oysah","","","","","","","","","","","","","532","vsc","Inducer practice","","j","","Practice","","","","true","","","","","j","1","","true","RIGHT","",""
"","html-keyboard-response","47","140448","0.0-83.0","6d0oysah","1366","768","","","","","","","","","","","null","+","Fixation - short","","null","","","","","","","","","","","","","","","","",""
"","html-keyboard-response","48","143822","0.0-84.0","6d0oysah","","","","","","","","","","","","","3373","If yna press RIGHT | If vle press LEFT","Inducer practice",""," ","","Practice","","","","","","","","","","","","","","",""
"","html-keyboard-response","49","144586","0.0-85.0","6d0oysah","1366","768","","","","","","","","","","","null","+","Fixation - short","","null","","","","","","","","","","","","","","","","",""
"","html-keyboard-response","50","145035","0.0-86.0","6d0oysah","","","","","","","","","","","","","448","yna","Inducer practice","","j","","Practice","","","","true","","","","","j","1","","true","RIGHT","",""
"","html-keyboard-response","51","145801","0.0-89.0","6d0oysah","1366","768","","","","","","","","","","","null","+","Fixation - short","","null","","","","","","","","","","","","","","","","",""
"","html-keyboard-response","52","146286","0.0-90.0","6d0oysah","","","","","","","","","","","","","483","If yrp press RIGHT | If feg press LEFT","Inducer practice",""," ","","Practice","","","","","","","","","","","","","","",""
"","html-keyboard-response","53","147043","0.0-91.0","6d0oysah","1366","768","","","","","","","","","","","null","+","Fixation - short","","null","","","","","","","","","","","","","","","","",""
"","html-keyboard-response","54","147659","0.0-92.0","6d0oysah","","","","","","","","","","","","","615","feg","Inducer practice","","j","","Practice","","","","true","","","","","f","0","","true","LEFT","",""
"","call-function","55","147660","0.0-94.0-0.0","6d0oysah","","","","","","","","","","","","","","","","","","","","","","","","","","","","","","","","","",""
"","html-keyboard-response","56","147972","0.0-94.0-1.0","6d0oysah","1366","768","","","","","","","","","","","null","Wrong","Feedback","","null","","","","","","","","","","","","","","","","",""
"","call-function","57","147973","0.0-94.0-2.0","6d0oysah","","","","","","","","","","","","","","","","","","","","","","","","","","","","","","","","","",""
"","html-keyboard-response","58","148726","0.0-95.0","6d0oysah","1366","768","","","","","","","","","","","null","+","Fixation - short","","null","","","","","","","","","","","","","","","","",""
"","html-keyboard-response","59","151447","0.0-96.0","6d0oysah","","","","","","","","","","","","","2720","If ydi press RIGHT | If frn press LEFT","Inducer practice",""," ","","Practice","","","","","","","","","","","","","","",""
"","html-keyboard-response","60","152206","0.0-97.0","6d0oysah","1366","768","","","","","","","","","","","null","+","Fixation - short","","null","","","","","","","","","","","","","","","","",""
"","html-keyboard-response","61","152739","0.0-98.0","6d0oysah","","","","","","","","","","","","","532","frn","Inducer practice","","f","","Practice","","","","true","","","","","f","1","","true","LEFT","",""
"","html-keyboard-response","62","153503","0.0-101.0","6d0oysah","1366","768","","","","","","","","","","","null","+","Fixation - short","","null","","","","","","","","","","","","","","","","",""
"","html-keyboard-response","63","156844","0.0-102.0","6d0oysah","","","","","","","","","","","","","3340","If cer press RIGHT | If uus press LEFT","Inducer practice",""," ","","Practice","","","","","","","","","","","","","","",""
"","html-keyboard-response","64","157600","0.0-103.0","6d0oysah","1366","768","","","","","","","","","","","null","+","Fixation - short","","null","","","","","","","","","","","","","","","","",""
"","html-keyboard-response","65","158040","0.0-104.0","6d0oysah","","","","","","","","","","","","","438","uus","Inducer practice","","f","","Practice","","","","true","","","","","f","1","","true","LEFT","",""
"","html-keyboard-response","66","158799","0.0-107.0","6d0oysah","1366","768","","","","","","","","","","","null","+","Fixation - short","","null","","","","","","","","","","","","","","","","",""
"","instructions","67","162336","0.0-108.0","6d0oysah","","","","","","","","","","","","[{""page_index"":0,""viewing_time"":3535}]","3535","Instructions","Final experiment explanation","","","","","","","","","","","","","","","","","","",""
"","html-keyboard-response","68","165259","0.0-109.0","6d0oysah","","","","","","","","","","","","","1415","If bgi press RIGHT | If anz press LEFT","Cue practice",""," ","","Practice","","","","","","","","","","","","","","",""
"","html-keyboard-response","69","166011","0.0-110.0","6d0oysah","1366","768","","","","","","","","","","","null","+","Fixation - short","","null","","","","","","","","","","","","","","","","",""
"","html-keyboard-response","70","167102","0.0-111.0","6d0oysah","","","","","","","","","","","","","1089","bgi","Cue practice","","j","","Practice","0","13","false","false","true","both pre & post","RIGHT","RIGHT","j","1","true","","","",""
"","html-keyboard-response","71","167868","0.0-114.0","6d0oysah","1366","768","","","","","","","","","","","null","+","Fixation - short","","null","","","","","","","","","","","","","","","","",""
"","html-keyboard-response","72","168528","0.0-115.0","6d0oysah","","","","","","","","","","","","","658","bgi","Cue practice","","j","","Practice","1","13","false","false","true","both pre & post","RIGHT","RIGHT","j","1","true","","","",""
"","html-keyboard-response","73","169291","0.0-118.0","6d0oysah","1366","768","","","","","","","","","","","null","+","Fixation - short","","null","","","","","","","","","","","","","","","","",""
"","html-keyboard-response","74","169789","0.0-119.0","6d0oysah","","","","","","","","","","","","","496","bgi","Cue practice","","j","","Practice","2","13","false","false","true","both pre & post","RIGHT","RIGHT","j","1","true","","","",""
"","html-keyboard-response","75","170542","0.0-122.0","6d0oysah","1366","768","","","","","","","","","","","null","+","Fixation - short","","null","","","","","","","","","","","","","","","","",""
"","html-keyboard-response","76","170932","0.0-123.0","6d0oysah","","","","","","","","","","","","","388","bgi","Cue practice","","j","","Practice","3","13","false","false","false","both pre & post","RIGHT","LEFT","f","0","false","","","",""
"","call-function","77","170933","0.0-125.0-0.0","6d0oysah","","","","","","","","","","","","","","","","","","","","","","","","","","","","","","","","","",""
"","html-keyboard-response","78","171239","0.0-125.0-1.0","6d0oysah","1366","768","","","","","","","","","","","null","Wrong","Feedback","","null","","","","","","","","","","","","","","","","",""
"","call-function","79","171240","0.0-125.0-2.0","6d0oysah","","","","","","","","","","","","","","","","","","","","","","","","","","","","","","","","","",""
"","html-keyboard-response","80","171991","0.0-126.0","6d0oysah","1366","768","","","","","","","","","","","null","+","Fixation - short","","null","","","","","","","","","","","","","","","","",""
"","html-keyboard-response","81","172532","0.0-127.0","6d0oysah","","","","","","","","","","","","","539","bgi","Cue practice","","j","","Practice","4","13","false","false","false","both pre & post","RIGHT","LEFT","f","0","false","","","",""
"","call-function","82","172533","0.0-129.0-0.0","6d0oysah","","","","","","","","","","","","","","","","","","","","","","","","","","","","","","","","","",""
"","html-keyboard-response","83","172837","0.0-129.0-1.0","6d0oysah","1366","768","","","","","","","","","","","null","Wrong","Feedback","","null","","","","","","","","","","","","","","","","",""
"","call-function","84","172838","0.0-129.0-2.0","6d0oysah","","","","","","","","","","","","","","","","","","","","","","","","","","","","","","","","","",""
"","html-keyboard-response","85","173590","0.0-130.0","6d0oysah","1366","768","","","","","","","","","","","null","+","Fixation - short","","null","","","","","","","","","","","","","","","","",""
"","html-keyboard-response","86","174468","0.0-131.0","6d0oysah","","","","","","","","","","","","","877","anz","Cue practice","","j","","Practice","5","13","false","false","false","both pre & post","LEFT","LEFT","f","0","true","","","",""
"","call-function","87","174469","0.0-133.0-0.0","6d0oysah","","","","","","","","","","","","","","","","","","","","","","","","","","","","","","","","","",""
"","html-keyboard-response","88","174785","0.0-133.0-1.0","6d0oysah","1366","768","","","","","","","","","","","null","Wrong","Feedback","","null","","","","","","","","","","","","","","","","",""
"","call-function","89","174786","0.0-133.0-2.0","6d0oysah","","","","","","","","","","","","","","","","","","","","","","","","","","","","","","","","","",""
"","html-keyboard-response","90","175538","0.0-134.0","6d0oysah","1366","768","","","","","","","","","","","null","+","Fixation - short","","null","","","","","","","","","","","","","","","","",""
"","html-keyboard-response","91","176152","0.0-135.0","6d0oysah","","","","","","","","","","","","","613","bgi","Cue practice","","f","","Practice","6","13","false","false","true","both pre & post","RIGHT","RIGHT","j","0","true","","","",""
"","call-function","92","176153","0.0-137.0-0.0","6d0oysah","","","","","","","","","","","","","","","","","","","","","","","","","","","","","","","","","",""
"","html-keyboard-response","93","176467","0.0-137.0-1.0","6d0oysah","1366","768","","","","","","","","","","","null","Wrong","Feedback","","null","","","","","","","","","","","","","","","","",""
"","call-function","94","176468","0.0-137.0-2.0","6d0oysah","","","","","","","","","","","","","","","","","","","","","","","","","","","","","","","","","",""
"","html-keyboard-response","95","177221","0.0-138.0","6d0oysah","1366","768","","","","","","","","","","","null","+","Fixation - short","","null","","","","","","","","","","","","","","","","",""
"","html-keyboard-response","96","177721","0.0-139.0","6d0oysah","","","","","","","","","","","","","499","anz","Cue practice","","j","","Practice","7","13","false","false","true","both pre & post","LEFT","RIGHT","j","1","false","","","",""
"","html-keyboard-response","97","178484","0.0-142.0","6d0oysah","1366","768","","","","","","","","","","","null","+","Fixation - short","","null","","","","","","","","","","","","","","","","",""
"","html-keyboard-response","98","179283","0.0-143.0","6d0oysah","","","","","","","","","","","","","798","bgi","Cue practice","","j","","Practice","8","13","false","false","false","both pre & post","RIGHT","LEFT","f","0","false","","","",""
"","call-function","99","179284","0.0-145.0-0.0","6d0oysah","","","","","","","","","","","","","","","","","","","","","","","","","","","","","","","","","",""
"","html-keyboard-response","100","179598","0.0-145.0-1.0","6d0oysah","1366","768","","","","","","","","","","","null","Wrong","Feedback","","null","","","","","","","","","","","","","","","","",""
"","call-function","101","179599","0.0-145.0-2.0","6d0oysah","","","","","","","","","","","","","","","","","","","","","","","","","","","","","","","","","",""
"","html-keyboard-response","102","180351","0.0-146.0","6d0oysah","1366","768","","","","","","","","","","","null","+","Fixation - short","","null","","","","","","","","","","","","","","","","",""
"","html-keyboard-response","103","181888","0.0-147.0","6d0oysah","","","","","","","","","","","","","1534","anz","Cue practice","","j","","Practice","9","13","false","false","false","both pre & post","LEFT","LEFT","f","0","true","","","",""
"","call-function","104","181889","0.0-149.0-0.0","6d0oysah","","","","","","","","","","","","","","","","","","","","","","","","","","","","","","","","","",""
"","html-keyboard-response","105","182196","0.0-149.0-1.0","6d0oysah","1366","768","","","","","","","","","","","null","Wrong","Feedback","","null","","","","","","","","","","","","","","","","",""
"","call-function","106","182197","0.0-149.0-2.0","6d0oysah","","","","","","","","","","","","","","","","","","","","","","","","","","","","","","","","","",""
"","html-keyboard-response","107","182950","0.0-150.0","6d0oysah","1366","768","","","","","","","","","","","null","+","Fixation - short","","null","","","","","","","","","","","","","","","","",""
"","html-keyboard-response","108","183291","0.0-151.0","6d0oysah","","","","","","","","","","","","","340","anz","Cue practice","","f","","Practice","10","13","false","false","false","both pre & post","LEFT","LEFT","f","1","true","","","",""
"","html-keyboard-response","109","184047","0.0-154.0","6d0oysah","1366","768","","","","","","","","","","","null","+","Fixation - short","","null","","","","","","","","","","","","","","","","",""
"","html-keyboard-response","110","184830","0.0-155.0","6d0oysah","","","","","","","","","","","","","781","anz","Cue practice","","f","","Practice","11","13","false","false","true","both pre & post","LEFT","RIGHT","j","0","false","","","",""
"","call-function","111","184831","0.0-157.0-0.0","6d0oysah","","","","","","","","","","","","","","","","","","","","","","","","","","","","","","","","","",""
"","html-keyboard-response","112","185144","0.0-157.0-1.0","6d0oysah","1366","768","","","","","","","","","","","null","Wrong","Feedback","","null","","","","","","","","","","","","","","","","",""
"","call-function","113","185145","0.0-157.0-2.0","6d0oysah","","","","","","","","","","","","","","","","","","","","","","","","","","","","","","","","","",""
"","html-keyboard-response","114","185897","0.0-158.0","6d0oysah","1366","768","","","","","","","","","","","null","+","Fixation - short","","null","","","","","","","","","","","","","","","","",""
"","html-keyboard-response","115","186652","0.0-159.0","6d0oysah","","","","","","","","","","","","","753","anz","Cue practice","","j","","Practice","12","13","false","false","true","both pre & post","LEFT","RIGHT","j","1","false","","","",""
"","html-keyboard-response","116","187411","0.0-162.0","6d0oysah","1366","768","","","","","","","","","","","null","+","Fixation - short","","null","","","","","","","","","","","","","","","","",""
"","canvas-keyboard-response","117","188677","0.0-163.0","6d0oysah","","","","","","","","","","","","","null","Cue","Cue","","null","","Practice","12","","","false","","","","","","","","","","",""
"","html-keyboard-response","118","189442","0.0-164.0","6d0oysah","1366","768","","","","","","","","","","","null","+","Fixation - short","","null","","","","","","","","","","","","","","","","",""
"","html-keyboard-response","119","190268","0.0-165.0","6d0oysah","","","","","","","","","","","","","825","bgi","Cue practice","","f","","Practice","13","13","true","false","false","both pre & post","RIGHT","LEFT","f","1","false","","","",""
"","html-keyboard-response","120","191033","0.0-168.0","6d0oysah","1366","768","","","","","","","","","","","null","+","Fixation - short","","null","","","","","","","","","","","","","","","","",""
"","html-keyboard-response","121","191654","0.0-169.0","6d0oysah","","","","","","","","","","","","","619","bgi","Cue practice","","f","","Practice","14","13","true","false","true","both pre & post","RIGHT","RIGHT","j","0","true","","","",""
"","call-function","122","191655","0.0-171.0-0.0","6d0oysah","","","","","","","","","","","","","","","","","","","","","","","","","","","","","","","","","",""
"","html-keyboard-response","123","191958","0.0-171.0-1.0","6d0oysah","1366","768","","","","","","","","","","","null","Wrong","Feedback","","null","","","","","","","","","","","","","","","","",""
"","call-function","124","191959","0.0-171.0-2.0","6d0oysah","","","","","","","","","","","","","","","","","","","","","","","","","","","","","","","","","",""
"","html-keyboard-response","125","192724","0.0-172.0","6d0oysah","1366","768","","","","","","","","","","","null","+","Fixation - short","","null","","","","","","","","","","","","","","","","",""
"","html-keyboard-response","126","193185","0.0-173.0","6d0oysah","","","","","","","","","","","","","460","bgi","Cue practice","","f","","Practice","15","13","true","false","true","both pre & post","RIGHT","RIGHT","j","0","true","","","",""
"","call-function","127","193186","0.0-175.0-0.0","6d0oysah","","","","","","","","","","","","","","","","","","","","","","","","","","","","","","","","","",""
"","html-keyboard-response","128","193489","0.0-175.0-1.0","6d0oysah","1366","768","","","","","","","","","","","null","Wrong","Feedback","","null","","","","","","","","","","","","","","","","",""
"","call-function","129","193490","0.0-175.0-2.0","6d0oysah","","","","","","","","","","","","","","","","","","","","","","","","","","","","","","","","","",""
"","html-keyboard-response","130","194256","0.0-176.0","6d0oysah","1366","768","","","","","","","","","","","null","+","Fixation - short","","null","","","","","","","","","","","","","","","","",""
"","html-keyboard-response","131","194501","0.0-177.0","6d0oysah","","","","","","","","","","","","","244","anz","Inducer practice","","j","","Practice","","","","true","","","","","f","0","","false","LEFT","",""
"","call-function","132","194502","0.0-179.0-0.0","6d0oysah","","","","","","","","","","","","","","","","","","","","","","","","","","","","","","","","","",""
"","html-keyboard-response","133","194805","0.0-179.0-1.0","6d0oysah","1366","768","","","","","","","","","","","null","Wrong","Feedback","","null","","","","","","","","","","","","","","","","",""
"","call-function","134","194806","0.0-179.0-2.0","6d0oysah","","","","","","","","","","","","","","","","","","","","","","","","","","","","","","","","","",""
"","html-keyboard-response","135","195572","0.0-180.0","6d0oysah","1366","768","","","","","","","","","","","null","+","Fixation - short","","null","","","","","","","","","","","","","","","","",""
"","instructions","136","197608","0.0-181.0","6d0oysah","","","","","","","","","","","","[{""page_index"":0,""viewing_time"":2034}]","2035","End practice","End of practice","","","","","","","","","","","","","","","","","","",""
"","html-keyboard-response","137","200624","0.0-182.0","6d0oysah","1366","768","","","","","","","","","","","null","+","Fixation - long","","null","","","","","","","","","","","","","","","","",""
"","html-keyboard-response","138","202253","0.0-183.0","6d0oysah","","","","","","","","","","","","","1628","If afp press RIGHT | If ivr press LEFT","Inducer instructions",""," ","","0","","","","","","","","","","","","","","",""
"","html-keyboard-response","139","203015","0.0-184.0","6d0oysah","1366","768","","","","","","","","","","","null","+","Fixation - short","","null","","","","","","","","","","","","","","","","",""
"","html-keyboard-response","140","203602","0.0-185.0","6d0oysah","","","","","","","","","","","","","586","afp","Diagnostic trial","","j","","0","0","12","false","false","false","both pre & post","RIGHT","LEFT","f","0","false","","","",""
"","call-function","141","203603","0.0-187.0-0.0","6d0oysah","","","","","","","","","","","","","","","","","","","","","","","","","","","","","","","","","",""
"","html-keyboard-response","142","203920","0.0-187.0-1.0","6d0oysah","1366","768","","","","","","","","","","","null","Wrong","Feedback","","null","","","","","","","","","","","","","","","","",""
"","call-function","143","203921","0.0-187.0-2.0","6d0oysah","","","","","","","","","","","","","","","","","","","","","","","","","","","","","","","","","",""
"","html-keyboard-response","144","204681","0.0-188.0","6d0oysah","1366","768","","","","","","","","","","","null","+","Fixation - short","","null","","","","","","","","","","","","","","","","",""
"","html-keyboard-response","145","205247","0.0-189.0","6d0oysah","","","","","","","","","","","","","564","afp","Diagnostic trial","","f","","0","1","12","false","false","true","both pre & post","RIGHT","RIGHT","j","0","true","","","",""
"","call-function","146","205248","0.0-191.0-0.0","6d0oysah","","","","","","","","","","","","","","","","","","","","","","","","","","","","","","","","","",""
"","html-keyboard-response","147","205561","0.0-191.0-1.0","6d0oysah","1366","768","","","","","","","","","","","null","Wrong","Feedback","","null","","","","","","","","","","","","","","","","",""
"","call-function","148","205561","0.0-191.0-2.0","6d0oysah","","","","","","","","","","","","","","","","","","","","","","","","","","","","","","","","","",""
"","html-keyboard-response","149","206315","0.0-192.0","6d0oysah","1366","768","","","","","","","","","","","null","+","Fixation - short","","null","","","","","","","","","","","","","","","","",""
"","html-keyboard-response","150","207183","0.0-193.0","6d0oysah","","","","","","","","","","","","","866","afp","Diagnostic trial","","f","","0","2","12","false","false","false","both pre & post","RIGHT","LEFT","f","1","false","","","",""
"","html-keyboard-response","151","207944","0.0-196.0","6d0oysah","1366","768","","","","","","","","","","","null","+","Fixation - short","","null","","","","","","","","","","","","","","","","",""
"","html-keyboard-response","152","208438","0.0-197.0","6d0oysah","","","","","","","","","","","","","492","afp","Diagnostic trial","","j","","0","3","12","false","false","true","both pre & post","RIGHT","RIGHT","j","1","true","","","",""
"","html-keyboard-response","153","209202","0.0-200.0","6d0oysah","1366","768","","","","","","","","","","","null","+","Fixation - short","","null","","","","","","","","","","","","","","","","",""
"","html-keyboard-response","154","209810","0.0-201.0","6d0oysah","","","","","","","","","","","","","606","afp","Diagnostic trial","","j","","0","4","12","false","false","true","both pre & post","RIGHT","RIGHT","j","1","true","","","",""
"","html-keyboard-response","155","210568","0.0-204.0","6d0oysah","1366","768","","","","","","","","","","","null","+","Fixation - short","","null","","","","","","","","","","","","","","","","",""
"","html-keyboard-response","156","211039","0.0-205.0","6d0oysah","","","","","","","","","","","","","469","afp","Diagnostic trial","","j","","0","5","12","false","false","true","both pre & post","RIGHT","RIGHT","j","1","true","","","",""
"","html-keyboard-response","157","211801","0.0-208.0","6d0oysah","1366","768","","","","","","","","","","","null","+","Fixation - short","","null","","","","","","","","","","","","","","","","",""
"","html-keyboard-response","158","212290","0.0-209.0","6d0oysah","","","","","","","","","","","","","487","afp","Diagnostic trial","","j","","0","6","12","false","false","true","both pre & post","RIGHT","RIGHT","j","1","true","","","",""
"","html-keyboard-response","159","213057","0.0-212.0","6d0oysah","1366","768","","","","","","","","","","","null","+","Fixation - short","","null","","","","","","","","","","","","","","","","",""
"","html-keyboard-response","160","213870","0.0-213.0","6d0oysah","","","","","","","","","","","","","811","ivr","Diagnostic trial","","j","","0","7","12","false","false","true","both pre & post","LEFT","RIGHT","j","1","false","","","",""
"","html-keyboard-response","161","214625","0.0-216.0","6d0oysah","1366","768","","","","","","","","","","","null","+","Fixation - short","","null","","","","","","","","","","","","","","","","",""
"","html-keyboard-response","162","215518","0.0-217.0","6d0oysah","","","","","","","","","","","","","890","ivr","Diagnostic trial","","j","","0","8","12","false","false","true","both pre & post","LEFT","RIGHT","j","1","false","","","",""
"","html-keyboard-response","163","216274","0.0-220.0","6d0oysah","1366","768","","","","","","","","","","","null","+","Fixation - short","","null","","","","","","","","","","","","","","","","",""
"","html-keyboard-response","164","216957","0.0-221.0","6d0oysah","","","","","","","","","","","","","681","ivr","Diagnostic trial","","j","","0","9","12","false","false","true","both pre & post","LEFT","RIGHT","j","1","false","","","",""
"","html-keyboard-response","165","217720","0.0-224.0","6d0oysah","1366","768","","","","","","","","","","","null","+","Fixation - short","","null","","","","","","","","","","","","","","","","",""
"","html-keyboard-response","166","218396","0.0-225.0","6d0oysah","","","","","","","","","","","","","675","afp","Diagnostic trial","","f","","0","10","12","false","false","false","both pre & post","RIGHT","LEFT","f","1","false","","","",""
"","html-keyboard-response","167","219161","0.0-228.0","6d0oysah","1366","768","","","","","","","","","","","null","+","Fixation - short","","null","","","","","","","","","","","","","","","","",""
"","html-keyboard-response","168","220107","0.0-229.0","6d0oysah","","","","","","","","","","","","","943","ivr","Diagnostic trial","","f","","0","11","12","false","false","false","both pre & post","LEFT","LEFT","f","1","true","","","",""
"","html-keyboard-response","169","220868","0.0-232.0","6d0oysah","1366","768","","","","","","","","","","","null","+","Fixation - short","","null","","","","","","","","","","","","","","","","",""
"","canvas-keyboard-response","170","222134","0.0-233.0","6d0oysah","","","","","","","","","","","","","null","Cue","Cue","","null","","0","11","","","false","","","","","","","","","","",""
"","html-keyboard-response","171","222899","0.0-234.0","6d0oysah","1366","768","","","","","","","","","","","null","+","Fixation - short","","null","","","","","","","","","","","","","","","","",""
"","html-keyboard-response","172","223727","0.0-235.0","6d0oysah","","","","","","","","","","","","","826","afp","Diagnostic trial","","f","","0","12","12","true","false","false","both pre & post","RIGHT","LEFT","f","1","false","","","",""
"","html-keyboard-response","173","224483","0.0-238.0","6d0oysah","1366","768","","","","","","","","","","","null","+","Fixation - short","","null","","","","","","","","","","","","","","","","",""
"","html-keyboard-response","174","225127","0.0-239.0","6d0oysah","","","","","","","","","","","","","643","ivr","Diagnostic trial","","j","","0","13","12","true","false","true","both pre & post","LEFT","RIGHT","j","1","false","","","",""
"","html-keyboard-response","175","225883","0.0-242.0","6d0oysah","1366","768","","","","","","","","","","","null","+","Fixation - short","","null","","","","","","","","","","","","","","","","",""
"","html-keyboard-response","176","226915","0.0-243.0","6d0oysah","","","","","","","","","","","","","1031","afp","Inducer trial","","f","","0","","","","true","","","","","j","0","","false","RIGHT","",""
"","call-function","177","226916","0.0-245.0-0.0","6d0oysah","","","","","","","","","","","","","","","","","","","","","","","","","","","","","","","","","",""
"","html-keyboard-response","178","227227","0.0-245.0-1.0","6d0oysah","1366","768","","","","","","","","","","","null","Wrong","Feedback","","null","","","","","","","","","","","","","","","","",""
"","call-function","179","227228","0.0-245.0-2.0","6d0oysah","","","","","","","","","","","","","","","","","","","","","","","","","","","","","","","","","",""
"","html-keyboard-response","180","227981","0.0-246.0","6d0oysah","1366","768","","","","","","","","","","","null","+","Fixation - short","","null","","","","","","","","","","","","","","","","",""
"","html-keyboard-response","181","230602","0.0-247.0","6d0oysah","","","","","","","","","","","","","2619","If rpw press RIGHT | If amb press LEFT","Inducer instructions",""," ","","1","","","","","","","","","","","","","","",""
"","html-keyboard-response","182","231368","0.0-248.0","6d0oysah","1366","768","","","","","","","","","","","null","+","Fixation - short","","null","","","","","","","","","","","","","","","","",""
"","html-keyboard-response","183","232160","0.0-249.0","6d0oysah","","","","","","","","","","","","","790","rpw","Diagnostic trial","","j","","1","0","4","false","false","true","both pre & post","RIGHT","RIGHT","j","1","true","","","",""
"","html-keyboard-response","184","232925","0.0-252.0","6d0oysah","1366","768","","","","","","","","","","","null","+","Fixation - short","","null","","","","","","","","","","","","","","","","",""
"","html-keyboard-response","185","233758","0.0-253.0","6d0oysah","","","","","","","","","","","","","831","rpw","Diagnostic trial","","j","","1","1","4","false","false","true","both pre & post","RIGHT","RIGHT","j","1","true","","","",""
"","html-keyboard-response","186","234524","0.0-256.0","6d0oysah","1366","768","","","","","","","","","","","null","+","Fixation - short","","null","","","","","","","","","","","","","","","","",""
"","html-keyboard-response","187","235222","0.0-257.0","6d0oysah","","","","","","","","","","","","","696","rpw","Diagnostic trial","","j","","1","2","4","false","false","true","both pre & post","RIGHT","RIGHT","j","1","true","","","",""
"","html-keyboard-response","188","235974","0.0-260.0","6d0oysah","1366","768","","","","","","","","","","","null","+","Fixation - short","","null","","","","","","","","","","","","","","","","",""
"","html-keyboard-response","189","236543","0.0-261.0","6d0oysah","","","","","","","","","","","","","567","rpw","Diagnostic trial","","j","","1","3","4","false","false","true","both pre & post","RIGHT","RIGHT","j","1","true","","","",""
"","html-keyboard-response","190","237295","0.0-264.0","6d0oysah","1366","768","","","","","","","","","","","null","+","Fixation - short","","null","","","","","","","","","","","","","","","","",""
"","canvas-keyboard-response","191","238556","0.0-265.0","6d0oysah","","","","","","","","","","","","","null","Cue","Cue","","null","","1","3","","","false","","","","","","","","","","",""
"","html-keyboard-response","192","239313","0.0-266.0","6d0oysah","1366","768","","","","","","","","","","","null","+","Fixation - short","","null","","","","","","","","","","","","","","","","",""
"","html-keyboard-response","193","239998","0.0-267.0","6d0oysah","","","","","","","","","","","","","684","rpw","Diagnostic trial","","j","","1","4","4","true","false","true","both pre & post","RIGHT","RIGHT","j","1","true","","","",""
"","html-keyboard-response","194","240762","0.0-270.0","6d0oysah","1366","768","","","","","","","","","","","null","+","Fixation - short","","null","","","","","","","","","","","","","","","","",""
"","html-keyboard-response","195","241439","0.0-271.0","6d0oysah","","","","","","","","","","","","","676","amb","Diagnostic trial","","j","","1","5","4","true","false","true","both pre & post","LEFT","RIGHT","j","1","false","","","",""
"","html-keyboard-response","196","242201","0.0-274.0","6d0oysah","1366","768","","","","","","","","","","","null","+","Fixation - short","","null","","","","","","","","","","","","","","","","",""
"","html-keyboard-response","197","242855","0.0-275.0","6d0oysah","","","","","","","","","","","","","652","rpw","Diagnostic trial","","j","","1","6","4","true","false","true","both pre & post","RIGHT","RIGHT","j","1","true","","","",""
"","html-keyboard-response","198","243609","0.0-278.0","6d0oysah","1366","768","","","","","","","","","","","null","+","Fixation - short","","null","","","","","","","","","","","","","","","","",""
"","html-keyboard-response","199","244085","0.0-279.0","6d0oysah","","","","","","","","","","","","","473","amb","Diagnostic trial","","f","","1","7","4","true","false","false","both pre & post","LEFT","LEFT","f","1","true","","","",""
"","html-keyboard-response","200","244842","0.0-282.0","6d0oysah","1366","768","","","","","","","","","","","null","+","Fixation - short","","null","","","","","","","","","","","","","","","","",""
"","html-keyboard-response","201","245401","0.0-283.0","6d0oysah","","","","","","","","","","","","","557","amb","Inducer trial","","f","","1","","","","true","","","","","f","1","","false","LEFT","",""
"","html-keyboard-response","202","246157","0.0-286.0","6d0oysah","1366","768","","","","","","","","","","","null","+","Fixation - short","","null","","","","","","","","","","","","","","","","",""
"","html-keyboard-response","203","249246","0.0-287.0","6d0oysah","","","","","","","","","","","","","3087","If psl press RIGHT | If jil press LEFT","Inducer instructions",""," ","","2","","","","","","","","","","","","","","",""
"","html-keyboard-response","204","250005","0.0-288.0","6d0oysah","1366","768","","","","","","","","","","","null","+","Fixation - short","","null","","","","","","","","","","","","","","","","",""
"","html-keyboard-response","205","250438","0.0-289.0","6d0oysah","","","","","","","","","","","","","431","psl","Diagnostic trial","","j","","2","0","7","false","false","true","both pre & post","RIGHT","RIGHT","j","1","true","","","",""
"","html-keyboard-response","206","251195","0.0-292.0","6d0oysah","1366","768","","","","","","","","","","","null","+","Fixation - short","","null","","","","","","","","","","","","","","","","",""
"","html-keyboard-response","207","251661","0.0-293.0","6d0oysah","","","","","","","","","","","","","464","psl","Diagnostic trial","","j","","2","1","7","false","false","true","both pre & post","RIGHT","RIGHT","j","1","true","","","",""
"","html-keyboard-response","208","252427","0.0-296.0","6d0oysah","1366","768","","","","","","","","","","","null","+","Fixation - short","","null","","","","","","","","","","","","","","","","",""
"","html-keyboard-response","209","253232","0.0-297.0","6d0oysah","","","","","","","","","","","","","804","jil","Diagnostic trial","","f","","2","2","7","false","false","false","both pre & post","LEFT","LEFT","f","1","true","","","",""
"","html-keyboard-response","210","253992","0.0-300.0","6d0oysah","1366","768","","","","","","","","","","","null","+","Fixation - short","","null","","","","","","","","","","","","","","","","",""
"","html-keyboard-response","211","254644","0.0-301.0","6d0oysah","","","","","","","","","","","","","651","psl","Diagnostic trial","","f","","2","3","7","false","false","false","both pre & post","RIGHT","LEFT","f","1","false","","","",""
"","html-keyboard-response","212","255408","0.0-304.0","6d0oysah","1366","768","","","","","","","","","","","null","+","Fixation - short","","null","","","","","","","","","","","","","","","","",""
"","html-keyboard-response","213","256007","0.0-305.0","6d0oysah","","","","","","","","","","","","","597","psl","Diagnostic trial","","j","","2","4","7","false","false","false","both pre & post","RIGHT","LEFT","f","0","false","","","",""
"","call-function","214","256007","0.0-307.0-0.0","6d0oysah","","","","","","","","","","","","","","","","","","","","","","","","","","","","","","","","","",""
"","html-keyboard-response","215","256322","0.0-307.0-1.0","6d0oysah","1366","768","","","","","","","","","","","null","Wrong","Feedback","","null","","","","","","","","","","","","","","","","",""
"","call-function","216","256322","0.0-307.0-2.0","6d0oysah","","","","","","","","","","","","","","","","","","","","","","","","","","","","","","","","","",""
"","html-keyboard-response","217","257075","0.0-308.0","6d0oysah","1366","768","","","","","","","","","","","null","+","Fixation - short","","null","","","","","","","","","","","","","","","","",""
"","html-keyboard-response","218","258004","0.0-309.0","6d0oysah","","","","","","","","","","","","","927","jil","Diagnostic trial","","f","","2","5","7","false","false","false","both pre & post","LEFT","LEFT","f","1","true","","","",""
"","html-keyboard-response","219","258764","0.0-312.0","6d0oysah","1366","768","","","","","","","","","","","null","+","Fixation - short","","null","","","","","","","","","","","","","","","","",""
"","html-keyboard-response","220","259202","0.0-313.0","6d0oysah","","","","","","","","","","","","","436","psl","Diagnostic trial","","j","","2","6","7","false","false","true","both pre & post","RIGHT","RIGHT","j","1","true","","","",""
"","html-keyboard-response","221","259964","0.0-316.0","6d0oysah","1366","768","","","","","","","","","","","null","+","Fixation - short","","null","","","","","","","","","","","","","","","","",""
"","canvas-keyboard-response","222","261221","0.0-317.0","6d0oysah","","","","","","","","","","","","","null","Cue","Cue","","null","","2","6","","","false","","","","","","","","","","",""
"","html-keyboard-response","223","261986","0.0-318.0","6d0oysah","1366","768","","","","","","","","","","","null","+","Fixation - short","","null","","","","","","","","","","","","","","","","",""
"","html-keyboard-response","224","262553","0.0-319.0","6d0oysah","","","","","","","","","","","","","565","jil","Diagnostic trial","","j","","2","7","7","true","false","true","both pre & post","LEFT","RIGHT","j","1","false","","","",""
"","html-keyboard-response","225","263318","0.0-322.0","6d0oysah","1366","768","","","","","","","","","","","null","+","Fixation - short","","null","","","","","","","","","","","","","","","","",""
"","html-keyboard-response","226","263839","0.0-323.0","6d0oysah","","","","","","","","","","","","","519","psl","Diagnostic trial","","f","","2","8","7","true","false","false","both pre & post","RIGHT","LEFT","f","1","false","","","",""
"","html-keyboard-response","227","264601","0.0-326.0","6d0oysah","1366","768","","","","","","","","","","","null","+","Fixation - short","","null","","","","","","","","","","","","","","","","",""
"","html-keyboard-response","228","265147","0.0-327.0","6d0oysah","","","","","","","","","","","","","545","psl","Diagnostic trial","","j","","2","9","7","true","false","false","both pre & post","RIGHT","LEFT","f","0","false","","","",""
"","call-function","229","265148","0.0-329.0-0.0","6d0oysah","","","","","","","","","","","","","","","","","","","","","","","","","","","","","","","","","",""
"","html-keyboard-response","230","265465","0.0-329.0-1.0","6d0oysah","1366","768","","","","","","","","","","","null","Wrong","Feedback","","null","","","","","","","","","","","","","","","","",""
"","call-function","231","265466","0.0-329.0-2.0","6d0oysah","","","","","","","","","","","","","","","","","","","","","","","","","","","","","","","","","",""
"","html-keyboard-response","232","266218","0.0-330.0","6d0oysah","1366","768","","","","","","","","","","","null","+","Fixation - short","","null","","","","","","","","","","","","","","","","",""
"","html-keyboard-response","233","267572","0.0-331.0","6d0oysah","","","","","","","","","","","","","1352","jil","Diagnostic trial","","f","","2","10","7","true","false","false","both pre & post","LEFT","LEFT","f","1","true","","","",""
"","html-keyboard-response","234","268331","0.0-334.0","6d0oysah","1366","768","","","","","","","","","","","null","+","Fixation - short","","null","","","","","","","","","","","","","","","","",""
"","html-keyboard-response","235","268878","0.0-335.0","6d0oysah","","","","","","","","","","","","","546","psl","Inducer trial","","j","","2","","","","true","","","","","j","1","","false","RIGHT","",""
"","html-keyboard-response","236","269631","0.0-338.0","6d0oysah","1366","768","","","","","","","","","","","null","+","Fixation - short","","null","","","","","","","","","","","","","","","","",""
"","html-keyboard-response","237","270996","0.0-339.0","6d0oysah","","","","","","","","","","","","","1363","If crf press RIGHT | If nga press LEFT","Inducer instructions",""," ","","3","","","","","","","","","","","","","","",""
"","html-keyboard-response","238","271754","0.0-340.0","6d0oysah","1366","768","","","","","","","","","","","null","+","Fixation - short","","null","","","","","","","","","","","","","","","","",""
"","html-keyboard-response","239","272569","0.0-341.0","6d0oysah","","","","","","","","","","","","","813","nga","Diagnostic trial","","j","","3","0","5","false","false","true","both pre & post","LEFT","RIGHT","j","1","false","","","",""
"","html-keyboard-response","240","273327","0.0-344.0","6d0oysah","1366","768","","","","","","","","","","","null","+","Fixation - short","","null","","","","","","","","","","","","","","","","",""
"","html-keyboard-response","241","274131","0.0-345.0","6d0oysah","","","","","","","","","","","","","802","crf","Diagnostic trial","","j","","3","1","5","false","false","true","both pre & post","RIGHT","RIGHT","j","1","true","","","",""
"","html-keyboard-response","242","274885","0.0-348.0","6d0oysah","1366","768","","","","","","","","","","","null","+","Fixation - short","","null","","","","","","","","","","","","","","","","",""
"","html-keyboard-response","243","275449","0.0-349.0","6d0oysah","","","","","","","","","","","","","562","nga","Diagnostic trial","","f","","3","2","5","false","false","true","both pre & post","LEFT","RIGHT","j","0","false","","","",""
"","call-function","244","275450","0.0-351.0-0.0","6d0oysah","","","","","","","","","","","","","","","","","","","","","","","","","","","","","","","","","",""
"","html-keyboard-response","245","275757","0.0-351.0-1.0","6d0oysah","1366","768","","","","","","","","","","","null","Wrong","Feedback","","null","","","","","","","","","","","","","","","","",""
"","call-function","246","275757","0.0-351.0-2.0","6d0oysah","","","","","","","","","","","","","","","","","","","","","","","","","","","","","","","","","",""
"","html-keyboard-response","247","276511","0.0-352.0","6d0oysah","1366","768","","","","","","","","","","","null","+","Fixation - short","","null","","","","","","","","","","","","","","","","",""
"","html-keyboard-response","248","277048","0.0-353.0","6d0oysah","","","","","","","","","","","","","536","nga","Diagnostic trial","","j","","3","3","5","false","false","true","both pre & post","LEFT","RIGHT","j","1","false","","","",""
"","html-keyboard-response","249","277807","0.0-356.0","6d0oysah","1366","768","","","","","","","","","","","null","+","Fixation - short","","null","","","","","","","","","","","","","","","","",""
"","html-keyboard-response","250","279019","0.0-357.0","6d0oysah","","","","","","","","","","","","","1211","crf","Diagnostic trial","","j","","3","4","5","false","false","false","both pre & post","RIGHT","LEFT","f","0","false","","","",""
"","call-function","251","279020","0.0-359.0-0.0","6d0oysah","","","","","","","","","","","","","","","","","","","","","","","","","","","","","","","","","",""
"","html-keyboard-response","252","279328","0.0-359.0-1.0","6d0oysah","1366","768","","","","","","","","","","","null","Wrong","Feedback","","null","","","","","","","","","","","","","","","","",""
"","call-function","253","279329","0.0-359.0-2.0","6d0oysah","","","","","","","","","","","","","","","","","","","","","","","","","","","","","","","","","",""
"","html-keyboard-response","254","280090","0.0-360.0","6d0oysah","1366","768","","","","","","","","","","","null","+","Fixation - short","","null","","","","","","","","","","","","","","","","",""
"","canvas-keyboard-response","255","281347","0.0-361.0","6d0oysah","","","","","","","","","","","","","null","Cue","Cue","","null","","3","4","","","false","","","","","","","","","","",""
"","html-keyboard-response","256","282106","0.0-362.0","6d0oysah","1366","768","","","","","","","","","","","null","+","Fixation - short","","null","","","","","","","","","","","","","","","","",""
"","html-keyboard-response","257","282749","0.0-363.0","6d0oysah","","","","","","","","","","","","","642","nga","Diagnostic trial","","f","","3","5","5","true","false","true","both pre & post","LEFT","RIGHT","j","0","false","","","",""
"","call-function","258","282750","0.0-365.0-0.0","6d0oysah","","","","","","","","","","","","","","","","","","","","","","","","","","","","","","","","","",""
"","html-keyboard-response","259","283053","0.0-365.0-1.0","6d0oysah","1366","768","","","","","","","","","","","null","Wrong","Feedback","","null","","","","","","","","","","","","","","","","",""
"","call-function","260","283054","0.0-365.0-2.0","6d0oysah","","","","","","","","","","","","","","","","","","","","","","","","","","","","","","","","","",""
"","html-keyboard-response","261","283805","0.0-366.0","6d0oysah","1366","768","","","","","","","","","","","null","+","Fixation - short","","null","","","","","","","","","","","","","","","","",""
"","html-keyboard-response","262","284105","0.0-367.0","6d0oysah","","","","","","","","","","","","","299","nga","Diagnostic trial","","j","","3","6","5","true","false","true","both pre & post","LEFT","RIGHT","j","1","false","","","",""
"","html-keyboard-response","263","284868","0.0-370.0","6d0oysah","1366","768","","","","","","","","","","","null","+","Fixation - short","","null","","","","","","","","","","","","","","","","",""
"","html-keyboard-response","264","285537","0.0-371.0","6d0oysah","","","","","","","","","","","","","667","crf","Diagnostic trial","","j","","3","7","5","true","false","false","both pre & post","RIGHT","LEFT","f","0","false","","","",""
"","call-function","265","285538","0.0-373.0-0.0","6d0oysah","","","","","","","","","","","","","","","","","","","","","","","","","","","","","","","","","",""
"","html-keyboard-response","266","285849","0.0-373.0-1.0","6d0oysah","1366","768","","","","","","","","","","","null","Wrong","Feedback","","null","","","","","","","","","","","","","","","","",""
"","call-function","267","285850","0.0-373.0-2.0","6d0oysah","","","","","","","","","","","","","","","","","","","","","","","","","","","","","","","","","",""
"","html-keyboard-response","268","286603","0.0-374.0","6d0oysah","1366","768","","","","","","","","","","","null","+","Fixation - short","","null","","","","","","","","","","","","","","","","",""
"","html-keyboard-response","269","287103","0.0-375.0","6d0oysah","","","","","","","","","","","","","499","crf","Diagnostic trial","","f","","3","8","5","true","false","false","both pre & post","RIGHT","LEFT","f","1","false","","","",""
"","html-keyboard-response","270","287866","0.0-378.0","6d0oysah","1366","768","","","","","","","","","","","null","+","Fixation - short","","null","","","","","","","","","","","","","","","","",""
"","html-keyboard-response","271","288664","0.0-379.0","6d0oysah","","","","","","","","","","","","","796","crf","Inducer trial","","j","","3","","","","true","","","","","j","1","","false","RIGHT","",""
"","html-keyboard-response","272","289424","0.0-382.0","6d0oysah","1366","768","","","","","","","","","","","null","+","Fixation - short","","null","","","","","","","","","","","","","","","","",""
"","html-keyboard-response","273","292310","0.0-383.0","6d0oysah","","","","","","","","","","","","","2884","If quy press RIGHT | If ccx press LEFT","Inducer instructions",""," ","","4","","","","","","","","","","","","","","",""
"","html-keyboard-response","274","293064","0.0-384.0","6d0oysah","1366","768","","","","","","","","","","","null","+","Fixation - short","","null","","","","","","","","","","","","","","","","",""
"","html-keyboard-response","275","293925","0.0-385.0","6d0oysah","","","","","","","","","","","","","859","ccx","Diagnostic trial","","f","","4","0","8","false","false","true","both pre & post","LEFT","RIGHT","j","0","false","","","",""
"","call-function","276","293926","0.0-387.0-0.0","6d0oysah","","","","","","","","","","","","","","","","","","","","","","","","","","","","","","","","","",""
"","html-keyboard-response","277","294243","0.0-387.0-1.0","6d0oysah","1366","768","","","","","","","","","","","null","Wrong","Feedback","","null","","","","","","","","","","","","","","","","",""
"","call-function","278","294244","0.0-387.0-2.0","6d0oysah","","","","","","","","","","","","","","","","","","","","","","","","","","","","","","","","","",""
"","html-keyboard-response","279","295004","0.0-388.0","6d0oysah","1366","768","","","","","","","","","","","null","+","Fixation - short","","null","","","","","","","","","","","","","","","","",""
"","html-keyboard-response","280","295554","0.0-389.0","6d0oysah","","","","","","","","","","","","","549","quy","Diagnostic trial","","j","","4","1","8","false","false","false","both pre & post","RIGHT","LEFT","f","0","false","","","",""
"","call-function","281","295555","0.0-391.0-0.0","6d0oysah","","","","","","","","","","","","","","","","","","","","","","","","","","","","","","","","","",""
"","html-keyboard-response","282","295862","0.0-391.0-1.0","6d0oysah","1366","768","","","","","","","","","","","null","Wrong","Feedback","","null","","","","","","","","","","","","","","","","",""
"","call-function","283","295863","0.0-391.0-2.0","6d0oysah","","","","","","","","","","","","","","","","","","","","","","","","","","","","","","","","","",""
"","html-keyboard-response","284","296627","0.0-392.0","6d0oysah","1366","768","","","","","","","","","","","null","+","Fixation - short","","null","","","","","","","","","","","","","","","","",""
"","html-keyboard-response","285","297747","0.0-393.0","6d0oysah","","","","","","","","","","","","","1118","ccx","Diagnostic trial","","j","","4","2","8","false","false","false","both pre & post","LEFT","LEFT","f","0","true","","","",""
"","call-function","286","297748","0.0-395.0-0.0","6d0oysah","","","","","","","","","","","","","","","","","","","","","","","","","","","","","","","","","",""
"","html-keyboard-response","287","298056","0.0-395.0-1.0","6d0oysah","1366","768","","","","","","","","","","","null","Wrong","Feedback","","null","","","","","","","","","","","","","","","","",""
"","call-function","288","298059","0.0-395.0-2.0","6d0oysah","","","","","","","","","","","","","","","","","","","","","","","","","","","","","","","","","",""
"","html-keyboard-response","289","298822","0.0-396.0","6d0oysah","1366","768","","","","","","","","","","","null","+","Fixation - short","","null","","","","","","","","","","","","","","","","",""
"","html-keyboard-response","290","299318","0.0-397.0","6d0oysah","","","","","","","","","","","","","495","ccx","Diagnostic trial","","f","","4","3","8","false","false","false","both pre & post","LEFT","LEFT","f","1","true","","","",""
"","html-keyboard-response","291","300074","0.0-400.0","6d0oysah","1366","768","","","","","","","","","","","null","+","Fixation - short","","null","","","","","","","","","","","","","","","","",""
"","html-keyboard-response","292","300775","0.0-401.0","6d0oysah","","","","","","","","","","","","","700","quy","Diagnostic trial","","f","","4","4","8","false","false","false","both pre & post","RIGHT","LEFT","f","1","false","","","",""
"","html-keyboard-response","293","301539","0.0-404.0","6d0oysah","1366","768","","","","","","","","","","","null","+","Fixation - short","","null","","","","","","","","","","","","","","","","",""
"","html-keyboard-response","294","302161","0.0-405.0","6d0oysah","","","","","","","","","","","","","620","ccx","Diagnostic trial","","f","","4","5","8","false","false","true","both pre & post","LEFT","RIGHT","j","0","false","","","",""
"","call-function","295","302162","0.0-407.0-0.0","6d0oysah","","","","","","","","","","","","","","","","","","","","","","","","","","","","","","","","","",""
"","html-keyboard-response","296","302478","0.0-407.0-1.0","6d0oysah","1366","768","","","","","","","","","","","null","Wrong","Feedback","","null","","","","","","","","","","","","","","","","",""
"","call-function","297","302479","0.0-407.0-2.0","6d0oysah","","","","","","","","","","","","","","","","","","","","","","","","","","","","","","","","","",""
"","html-keyboard-response","298","303239","0.0-408.0","6d0oysah","1366","768","","","","","","","","","","","null","+","Fixation - short","","null","","","","","","","","","","","","","","","","",""
"","html-keyboard-response","299","303553","0.0-409.0","6d0oysah","","","","","","","","","","","","","313","ccx","Diagnostic trial","","j","","4","6","8","false","false","false","both pre & post","LEFT","LEFT","f","0","true","","","",""
"","call-function","300","303554","0.0-411.0-0.0","6d0oysah","","","","","","","","","","","","","","","","","","","","","","","","","","","","","","","","","",""
"","html-keyboard-response","301","303868","0.0-411.0-1.0","6d0oysah","1366","768","","","","","","","","","","","null","Wrong","Feedback","","null","","","","","","","","","","","","","","","","",""
"","call-function","302","303869","0.0-411.0-2.0","6d0oysah","","","","","","","","","","","","","","","","","","","","","","","","","","","","","","","","","",""
"","html-keyboard-response","303","304622","0.0-412.0","6d0oysah","1366","768","","","","","","","","","","","null","+","Fixation - short","","null","","","","","","","","","","","","","","","","",""
"","html-keyboard-response","304","306262","0.0-413.0","6d0oysah","","","","","","","","","","","","","1639","quy","Diagnostic trial","","j","","4","7","8","false","false","false","both pre & post","RIGHT","LEFT","f","0","false","","","",""
"","call-function","305","306263","0.0-415.0-0.0","6d0oysah","","","","","","","","","","","","","","","","","","","","","","","","","","","","","","","","","",""
"","html-keyboard-response","306","306567","0.0-415.0-1.0","6d0oysah","1366","768","","","","","","","","","","","null","Wrong","Feedback","","null","","","","","","","","","","","","","","","","",""
"","call-function","307","306568","0.0-415.0-2.0","6d0oysah","","","","","","","","","","","","","","","","","","","","","","","","","","","","","","","","","",""
"","html-keyboard-response","308","307320","0.0-416.0","6d0oysah","1366","768","","","","","","","","","","","null","+","Fixation - short","","null","","","","","","","","","","","","","","","","",""
"","canvas-keyboard-response","309","308576","0.0-417.0","6d0oysah","","","","","","","","","","","","","null","Cue","Cue","","null","","4","7","","","false","","","","","","","","","","",""
"","html-keyboard-response","310","309342","0.0-418.0","6d0oysah","1366","768","","","","","","","","","","","null","+","Fixation - short","","null","","","","","","","","","","","","","","","","",""
"","html-keyboard-response","311","309791","0.0-419.0","6d0oysah","","","","","","","","","","","","","448","ccx","Diagnostic trial","","f","","4","8","8","true","false","false","both pre & post","LEFT","LEFT","f","1","true","","","",""
"","html-keyboard-response","312","310557","0.0-422.0","6d0oysah","1366","768","","","","","","","","","","","null","+","Fixation - short","","null","","","","","","","","","","","","","","","","",""
"","html-keyboard-response","313","311298","0.0-423.0","6d0oysah","","","","","","","","","","","","","741","quy","Diagnostic trial","","f","","4","9","8","true","false","true","both pre & post","RIGHT","RIGHT","j","0","true","","","",""
"","call-function","314","311299","0.0-425.0-0.0","6d0oysah","","","","","","","","","","","","","","","","","","","","","","","","","","","","","","","","","",""
"","html-keyboard-response","315","311612","0.0-425.0-1.0","6d0oysah","1366","768","","","","","","","","","","","null","Wrong","Feedback","","null","","","","","","","","","","","","","","","","",""
"","call-function","316","311613","0.0-425.0-2.0","6d0oysah","","","","","","","","","","","","","","","","","","","","","","","","","","","","","","","","","",""
"","html-keyboard-response","317","312367","0.0-426.0","6d0oysah","1366","768","","","","","","","","","","","null","+","Fixation - short","","null","","","","","","","","","","","","","","","","",""
"","html-keyboard-response","318","312613","0.0-427.0","6d0oysah","","","","","","","","","","","","","245","ccx","Diagnostic trial","","j","","4","10","8","true","false","true","both pre & post","LEFT","RIGHT","j","1","false","","","",""
"","html-keyboard-response","319","313372","0.0-430.0","6d0oysah","1366","768","","","","","","","","","","","null","+","Fixation - short","","null","","","","","","","","","","","","","","","","",""
"","html-keyboard-response","320","313873","0.0-431.0","6d0oysah","","","","","","","","","","","","","500","quy","Diagnostic trial","","j","","4","11","8","true","false","false","both pre & post","RIGHT","LEFT","f","0","false","","","",""
"","call-function","321","313874","0.0-433.0-0.0","6d0oysah","","","","","","","","","","","","","","","","","","","","","","","","","","","","","","","","","",""
"","html-keyboard-response","322","314178","0.0-433.0-1.0","6d0oysah","1366","768","","","","","","","","","","","null","Wrong","Feedback","","null","","","","","","","","","","","","","","","","",""
"","call-function","323","314179","0.0-433.0-2.0","6d0oysah","","","","","","","","","","","","","","","","","","","","","","","","","","","","","","","","","",""
"","html-keyboard-response","324","314931","0.0-434.0","6d0oysah","1366","768","","","","","","","","","","","null","+","Fixation - short","","null","","","","","","","","","","","","","","","","",""
"","html-keyboard-response","325","315704","0.0-435.0","6d0oysah","","","","","","","","","","","","","772","ccx","Inducer trial","","f","","4","","","","true","","","","","f","1","","false","LEFT","",""
"","html-keyboard-response","326","316462","0.0-438.0","6d0oysah","1366","768","","","","","","","","","","","null","+","Fixation - short","","null","","","","","","","","","","","","","","","","",""
"","html-keyboard-response","327","317543","0.0-439.0","6d0oysah","","","","","","","","","","","","","1079","If snx press RIGHT | If pph press LEFT","Inducer instructions",""," ","","5","","","","","","","","","","","","","","",""
"","html-keyboard-response","328","318302","0.0-440.0","6d0oysah","1366","768","","","","","","","","","","","null","+","Fixation - short","","null","","","","","","","","","","","","","","","","",""
"","html-keyboard-response","329","318862","0.0-441.0","6d0oysah","","","","","","","","","","","","","558","snx","Diagnostic trial","","j","","5","0","8","false","false","false","both pre & post","RIGHT","LEFT","f","0","false","","","",""
"","call-function","330","318863","0.0-443.0-0.0","6d0oysah","","","","","","","","","","","","","","","","","","","","","","","","","","","","","","","","","",""
"","html-keyboard-response","331","319173","0.0-443.0-1.0","6d0oysah","1366","768","","","","","","","","","","","null","Wrong","Feedback","","null","","","","","","","","","","","","","","","","",""
"","call-function","332","319174","0.0-443.0-2.0","6d0oysah","","","","","","","","","","","","","","","","","","","","","","","","","","","","","","","","","",""
"","html-keyboard-response","333","319927","0.0-444.0","6d0oysah","1366","768","","","","","","","","","","","null","+","Fixation - short","","null","","","","","","","","","","","","","","","","",""
"","html-keyboard-response","334","320173","0.0-445.0","6d0oysah","","","","","","","","","","","","","245","snx","Diagnostic trial","","f","","5","1","8","false","false","true","both pre & post","RIGHT","RIGHT","j","0","true","","","",""
"","call-function","335","320174","0.0-447.0-0.0","6d0oysah","","","","","","","","","","","","","","","","","","","","","","","","","","","","","","","","","",""
"","html-keyboard-response","336","320489","0.0-447.0-1.0","6d0oysah","1366","768","","","","","","","","","","","null","Wrong","Feedback","","null","","","","","","","","","","","","","","","","",""
"","call-function","337","320490","0.0-447.0-2.0","6d0oysah","","","","","","","","","","","","","","","","","","","","","","","","","","","","","","","","","",""
"","html-keyboard-response","338","321243","0.0-448.0","6d0oysah","1366","768","","","","","","","","","","","null","+","Fixation - short","","null","","","","","","","","","","","","","","","","",""
"","html-keyboard-response","339","321831","0.0-449.0","6d0oysah","","","","","","","","","","","","","587","pph","Diagnostic trial","","j","","5","2","8","false","false","false","both pre & post","LEFT","LEFT","f","0","true","","","",""
"","call-function","340","321832","0.0-451.0-0.0","6d0oysah","","","","","","","","","","","","","","","","","","","","","","","","","","","","","","","","","",""
"","html-keyboard-response","341","322138","0.0-451.0-1.0","6d0oysah","1366","768","","","","","","","","","","","null","Wrong","Feedback","","null","","","","","","","","","","","","","","","","",""
"","call-function","342","322139","0.0-451.0-2.0","6d0oysah","","","","","","","","","","","","","","","","","","","","","","","","","","","","","","","","","",""
"","html-keyboard-response","343","322891","0.0-452.0","6d0oysah","1366","768","","","","","","","","","","","null","+","Fixation - short","","null","","","","","","","","","","","","","","","","",""
"","html-keyboard-response","344","323875","0.0-453.0","6d0oysah","","","","","","","","","","","","","982","snx","Diagnostic trial","","j","","5","3","8","false","false","true","both pre & post","RIGHT","RIGHT","j","1","true","","","",""
"","html-keyboard-response","345","324638","0.0-456.0","6d0oysah","1366","768","","","","","","","","","","","null","+","Fixation - short","","null","","","","","","","","","","","","","","","","",""
"","html-keyboard-response","346","325099","0.0-457.0","6d0oysah","","","","","","","","","","","","","460","snx","Diagnostic trial","","j","","5","4","8","false","false","true","both pre & post","RIGHT","RIGHT","j","1","true","","","",""
"","html-keyboard-response","347","325856","0.0-460.0","6d0oysah","1366","768","","","","","","","","","","","null","+","Fixation - short","","null","","","","","","","","","","","","","","","","",""
"","html-keyboard-response","348","326353","0.0-461.0","6d0oysah","","","","","","","","","","","","","496","snx","Diagnostic trial","","j","","5","5","8","false","false","false","both pre & post","RIGHT","LEFT","f","0","false","","","",""
"","call-function","349","326354","0.0-463.0-0.0","6d0oysah","","","","","","","","","","","","","","","","","","","","","","","","","","","","","","","","","",""
"","html-keyboard-response","350","326660","0.0-463.0-1.0","6d0oysah","1366","768","","","","","","","","","","","null","Wrong","Feedback","","null","","","","","","","","","","","","","","","","",""
"","call-function","351","326661","0.0-463.0-2.0","6d0oysah","","","","","","","","","","","","","","","","","","","","","","","","","","","","","","","","","",""
"","html-keyboard-response","352","327413","0.0-464.0","6d0oysah","1366","768","","","","","","","","","","","null","+","Fixation - short","","null","","","","","","","","","","","","","","","","",""
"","html-keyboard-response","353","328024","0.0-465.0","6d0oysah","","","","","","","","","","","","","610","snx","Diagnostic trial","","j","","5","6","8","false","false","true","both pre & post","RIGHT","RIGHT","j","1","true","","","",""
"","html-keyboard-response","354","328785","0.0-468.0","6d0oysah","1366","768","","","","","","","","","","","null","+","Fixation - short","","null","","","","","","","","","","","","","","","","",""
"","html-keyboard-response","355","329524","0.0-469.0","6d0oysah","","","","","","","","","","","","","738","pph","Diagnostic trial","","f","","5","7","8","false","false","true","both pre & post","LEFT","RIGHT","j","0","false","","","",""
"","call-function","356","329525","0.0-471.0-0.0","6d0oysah","","","","","","","","","","","","","","","","","","","","","","","","","","","","","","","","","",""
"","html-keyboard-response","357","329832","0.0-471.0-1.0","6d0oysah","1366","768","","","","","","","","","","","null","Wrong","Feedback","","null","","","","","","","","","","","","","","","","",""
"","call-function","358","329833","0.0-471.0-2.0","6d0oysah","","","","","","","","","","","","","","","","","","","","","","","","","","","","","","","","","",""
"","html-keyboard-response","359","330594","0.0-472.0","6d0oysah","1366","768","","","","","","","","","","","null","+","Fixation - short","","null","","","","","","","","","","","","","","","","",""
"","canvas-keyboard-response","360","331858","0.0-473.0","6d0oysah","","","","","","","","","","","","","null","Cue","Cue","","null","","5","7","","","false","","","","","","","","","","",""
"","html-keyboard-response","361","332624","0.0-474.0","6d0oysah","1366","768","","","","","","","","","","","null","+","Fixation - short","","null","","","","","","","","","","","","","","","","",""
"","html-keyboard-response","362","333016","0.0-475.0","6d0oysah","","","","","","","","","","","","","391","pph","Diagnostic trial","","f","","5","8","8","true","false","true","both pre & post","LEFT","RIGHT","j","0","false","","","",""
"","call-function","363","333017","0.0-477.0-0.0","6d0oysah","","","","","","","","","","","","","","","","","","","","","","","","","","","","","","","","","",""
"","html-keyboard-response","364","333330","0.0-477.0-1.0","6d0oysah","1366","768","","","","","","","","","","","null","Wrong","Feedback","","null","","","","","","","","","","","","","","","","",""
"","call-function","365","333330","0.0-477.0-2.0","6d0oysah","","","","","","","","","","","","","","","","","","","","","","","","","","","","","","","","","",""
"","html-keyboard-response","366","334083","0.0-478.0","6d0oysah","1366","768","","","","","","","","","","","null","+","Fixation - short","","null","","","","","","","","","","","","","","","","",""
"","html-keyboard-response","367","334128","0.0-479.0","6d0oysah","","","","","","","","","","","","","44","snx","Diagnostic trial","","j","","5","9","8","true","false","true","both pre & post","RIGHT","RIGHT","j","1","true","","","",""
"","html-keyboard-response","368","334881","0.0-482.0","6d0oysah","1366","768","","","","","","","","","","","null","+","Fixation - short","","null","","","","","","","","","","","","","","","","",""
"","html-keyboard-response","369","335247","0.0-483.0","6d0oysah","","","","","","","","","","","","","364","pph","Diagnostic trial","","f","","5","10","8","true","false","false","both pre & post","LEFT","LEFT","f","1","true","","","",""
"","html-keyboard-response","370","336013","0.0-486.0","6d0oysah","1366","768","","","","","","","","","","","null","+","Fixation - short","","null","","","","","","","","","","","","","","","","",""
"","html-keyboard-response","371","336377","0.0-487.0","6d0oysah","","","","","","","","","","","","","363","snx","Diagnostic trial","","j","","5","11","8","true","false","false","both pre & post","RIGHT","LEFT","f","0","false","","","",""
"","call-function","372","336378","0.0-489.0-0.0","6d0oysah","","","","","","","","","","","","","","","","","","","","","","","","","","","","","","","","","",""
"","html-keyboard-response","373","336693","0.0-489.0-1.0","6d0oysah","1366","768","","","","","","","","","","","null","Wrong","Feedback","","null","","","","","","","","","","","","","","","","",""
"","call-function","374","336694","0.0-489.0-2.0","6d0oysah","","","","","","","","","","","","","","","","","","","","","","","","","","","","","","","","","",""
"","html-keyboard-response","375","337447","0.0-490.0","6d0oysah","1366","768","","","","","","","","","","","null","+","Fixation - short","","null","","","","","","","","","","","","","","","","",""
"","html-keyboard-response","376","337881","0.0-491.0","6d0oysah","","","","","","","","","","","","","433","snx","Inducer trial","","f","","5","","","","true","","","","","j","0","","false","RIGHT","",""
"","call-function","377","337882","0.0-493.0-0.0","6d0oysah","","","","","","","","","","","","","","","","","","","","","","","","","","","","","","","","","",""
"","html-keyboard-response","378","338192","0.0-493.0-1.0","6d0oysah","1366","768","","","","","","","","","","","null","Wrong","Feedback","","null","","","","","","","","","","","","","","","","",""
"","call-function","379","338193","0.0-493.0-2.0","6d0oysah","","","","","","","","","","","","","","","","","","","","","","","","","","","","","","","","","",""
"","html-keyboard-response","380","338946","0.0-494.0","6d0oysah","1366","768","","","","","","","","","","","null","+","Fixation - short","","null","","","","","","","","","","","","","","","","",""
"","html-keyboard-response","381","340172","0.0-495.0","6d0oysah","","","","","","","","","","","","","1225","If ois press RIGHT | If epy press LEFT","Inducer instructions",""," ","","6","","","","","","","","","","","","","","",""
"","html-keyboard-response","382","340927","0.0-496.0","6d0oysah","1366","768","","","","","","","","","","","null","+","Fixation - short","","null","","","","","","","","","","","","","","","","",""
"","html-keyboard-response","383","341366","0.0-497.0","6d0oysah","","","","","","","","","","","","","437","ois","Diagnostic trial","","j","","6","0","6","false","false","false","both pre & post","RIGHT","LEFT","f","0","false","","","",""
"","call-function","384","341367","0.0-499.0-0.0","6d0oysah","","","","","","","","","","","","","","","","","","","","","","","","","","","","","","","","","",""
"","html-keyboard-response","385","341674","0.0-499.0-1.0","6d0oysah","1366","768","","","","","","","","","","","null","Wrong","Feedback","","null","","","","","","","","","","","","","","","","",""
"","call-function","386","341675","0.0-499.0-2.0","6d0oysah","","","","","","","","","","","","","","","","","","","","","","","","","","","","","","","","","",""
"","html-keyboard-response","387","342426","0.0-500.0","6d0oysah","1366","768","","","","","","","","","","","null","+","Fixation - short","","null","","","","","","","","","","","","","","","","",""
"","html-keyboard-response","388","342819","0.0-501.0","6d0oysah","","","","","","","","","","","","","391","epy","Diagnostic trial","","f","","6","1","6","false","false","false","both pre & post","LEFT","LEFT","f","1","true","","","",""
"","html-keyboard-response","389","343575","0.0-504.0","6d0oysah","1366","768","","","","","","","","","","","null","+","Fixation - short","","null","","","","","","","","","","","","","","","","",""
"","html-keyboard-response","390","344528","0.0-505.0","6d0oysah","","","","","","","","","","","","","952","ois","Diagnostic trial","","j","","6","2","6","false","false","true","both pre & post","RIGHT","RIGHT","j","1","true","","","",""
"","html-keyboard-response","391","345289","0.0-508.0","6d0oysah","1366","768","","","","","","","","","","","null","+","Fixation - short","","null","","","","","","","","","","","","","","","","",""
"","html-keyboard-response","392","345954","0.0-509.0","6d0oysah","","","","","","","","","","","","","664","epy","Diagnostic trial","","f","","6","3","6","false","false","false","both pre & post","LEFT","LEFT","f","1","true","","","",""
"","html-keyboard-response","393","346713","0.0-512.0","6d0oysah","1366","768","","","","","","","","","","","null","+","Fixation - short","","null","","","","","","","","","","","","","","","","",""
"","html-keyboard-response","394","347006","0.0-513.0","6d0oysah","","","","","","","","","","","","","291","ois","Diagnostic trial","","j","","6","4","6","false","false","true","both pre & post","RIGHT","RIGHT","j","1","true","","","",""
"","html-keyboard-response","395","347770","0.0-516.0","6d0oysah","1366","768","","","","","","","","","","","null","+","Fixation - short","","null","","","","","","","","","","","","","","","","",""
"","html-keyboard-response","396","348186","0.0-517.0","6d0oysah","","","","","","","","","","","","","415","epy","Diagnostic trial","","j","","6","5","6","false","false","true","both pre & post","LEFT","RIGHT","j","1","false","","","",""
"","html-keyboard-response","397","348945","0.0-520.0","6d0oysah","1366","768","","","","","","","","","","","null","+","Fixation - short","","null","","","","","","","","","","","","","","","","",""
"","canvas-keyboard-response","398","350202","0.0-521.0","6d0oysah","","","","","","","","","","","","","null","Cue","Cue","","null","","6","5","","","false","","","","","","","","","","",""
"","html-keyboard-response","399","350960","0.0-522.0","6d0oysah","1366","768","","","","","","","","","","","null","+","Fixation - short","","null","","","","","","","","","","","","","","","","",""
"","html-keyboard-response","400","351284","0.0-523.0","6d0oysah","","","","","","","","","","","","","323","epy","Diagnostic trial","","f","","6","6","6","true","false","true","both pre & post","LEFT","RIGHT","j","0","false","","","",""
"","call-function","401","351285","0.0-525.0-0.0","6d0oysah","","","","","","","","","","","","","","","","","","","","","","","","","","","","","","","","","",""
"","html-keyboard-response","402","351598","0.0-525.0-1.0","6d0oysah","1366","768","","","","","","","","","","","null","Wrong","Feedback","","null","","","","","","","","","","","","","","","","",""
"","call-function","403","351599","0.0-525.0-2.0","6d0oysah","","","","","","","","","","","","","","","","","","","","","","","","","","","","","","","","","",""
"","html-keyboard-response","404","352352","0.0-526.0","6d0oysah","1366","768","","","","","","","","","","","null","+","Fixation - short","","null","","","","","","","","","","","","","","","","",""
"","html-keyboard-response","405","352744","0.0-527.0","6d0oysah","","","","","","","","","","","","","390","epy","Diagnostic trial","","j","","6","7","6","true","false","true","both pre & post","LEFT","RIGHT","j","1","false","","","",""
"","html-keyboard-response","406","353500","0.0-530.0","6d0oysah","1366","768","","","","","","","","","","","null","+","Fixation - short","","null","","","","","","","","","","","","","","","","",""
"","html-keyboard-response","407","354113","0.0-531.0","6d0oysah","","","","","","","","","","","","","612","epy","Inducer trial","","j","","6","","","","true","","","","","f","0","","false","LEFT","",""
"","call-function","408","354114","0.0-533.0-0.0","6d0oysah","","","","","","","","","","","","","","","","","","","","","","","","","","","","","","","","","",""
"","html-keyboard-response","409","354430","0.0-533.0-1.0","6d0oysah","1366","768","","","","","","","","","","","null","Wrong","Feedback","","null","","","","","","","","","","","","","","","","",""
"","call-function","410","354431","0.0-533.0-2.0","6d0oysah","","","","","","","","","","","","","","","","","","","","","","","","","","","","","","","","","",""
"","html-keyboard-response","411","355184","0.0-534.0","6d0oysah","1366","768","","","","","","","","","","","null","+","Fixation - short","","null","","","","","","","","","","","","","","","","",""
"","html-keyboard-response","412","355967","0.0-535.0","6d0oysah","","","","","","","","","","","","","781","If dof press RIGHT | If iei press LEFT","Inducer instructions",""," ","","7","","","","","","","","","","","","","","",""
"","html-keyboard-response","413","356730","0.0-536.0","6d0oysah","1366","768","","","","","","","","","","","null","+","Fixation - short","","null","","","","","","","","","","","","","","","","",""
"","html-keyboard-response","414","357170","0.0-537.0","6d0oysah","","","","","","","","","","","","","438","dof","Diagnostic trial","","j","","7","0","4","false","false","true","both pre & post","RIGHT","RIGHT","j","1","true","","","",""
"","html-keyboard-response","415","357937","0.0-540.0","6d0oysah","1366","768","","","","","","","","","","","null","+","Fixation - short","","null","","","","","","","","","","","","","","","","",""
"","html-keyboard-response","416","358492","0.0-541.0","6d0oysah","","","","","","","","","","","","","553","dof","Diagnostic trial","","j","","7","1","4","false","false","false","both pre & post","RIGHT","LEFT","f","0","false","","","",""
"","call-function","417","358493","0.0-543.0-0.0","6d0oysah","","","","","","","","","","","","","","","","","","","","","","","","","","","","","","","","","",""
"","html-keyboard-response","418","358795","0.0-543.0-1.0","6d0oysah","1366","768","","","","","","","","","","","null","Wrong","Feedback","","null","","","","","","","","","","","","","","","","",""
"","call-function","419","358796","0.0-543.0-2.0","6d0oysah","","","","","","","","","","","","","","","","","","","","","","","","","","","","","","","","","",""
"","html-keyboard-response","420","359562","0.0-544.0","6d0oysah","1366","768","","","","","","","","","","","null","+","Fixation - short","","null","","","","","","","","","","","","","","","","",""
"","html-keyboard-response","421","359969","0.0-545.0","6d0oysah","","","","","","","","","","","","","406","iei","Diagnostic trial","","f","","7","2","4","false","false","false","both pre & post","LEFT","LEFT","f","1","true","","","",""
"","html-keyboard-response","422","360727","0.0-548.0","6d0oysah","1366","768","","","","","","","","","","","null","+","Fixation - short","","null","","","","","","","","","","","","","","","","",""
"","html-keyboard-response","423","361207","0.0-549.0","6d0oysah","","","","","","","","","","","","","479","dof","Diagnostic trial","","f","","7","3","4","false","false","false","both pre & post","RIGHT","LEFT","f","1","false","","","",""
"","html-keyboard-response","424","361960","0.0-552.0","6d0oysah","1366","768","","","","","","","","","","","null","+","Fixation - short","","null","","","","","","","","","","","","","","","","",""
"","canvas-keyboard-response","425","363225","0.0-553.0","6d0oysah","","","","","","","","","","","","","null","Cue","Cue","","null","","7","3","","","false","","","","","","","","","","",""
"","html-keyboard-response","426","363991","0.0-554.0","6d0oysah","1366","768","","","","","","","","","","","null","+","Fixation - short","","null","","","","","","","","","","","","","","","","",""
"","html-keyboard-response","427","364536","0.0-555.0","6d0oysah","","","","","","","","","","","","","544","dof","Diagnostic trial","","j","","7","4","4","true","false","false","both pre & post","RIGHT","LEFT","f","0","false","","","",""
"","call-function","428","364537","0.0-557.0-0.0","6d0oysah","","","","","","","","","","","","","","","","","","","","","","","","","","","","","","","","","",""
"","html-keyboard-response","429","364840","0.0-557.0-1.0","6d0oysah","1366","768","","","","","","","","","","","null","Wrong","Feedback","","null","","","","","","","","","","","","","","","","",""
"","call-function","430","364840","0.0-557.0-2.0","6d0oysah","","","","","","","","","","","","","","","","","","","","","","","","","","","","","","","","","",""
"","html-keyboard-response","431","365592","0.0-558.0","6d0oysah","1366","768","","","","","","","","","","","null","+","Fixation - short","","null","","","","","","","","","","","","","","","","",""
"","html-keyboard-response","432","366002","0.0-559.0","6d0oysah","","","","","","","","","","","","","408","iei","Diagnostic trial","","f","","7","5","4","true","false","true","both pre & post","LEFT","RIGHT","j","0","false","","","",""
"","call-function","433","366003","0.0-561.0-0.0","6d0oysah","","","","","","","","","","","","","","","","","","","","","","","","","","","","","","","","","",""
"","html-keyboard-response","434","366305","0.0-561.0-1.0","6d0oysah","1366","768","","","","","","","","","","","null","Wrong","Feedback","","null","","","","","","","","","","","","","","","","",""
"","call-function","435","366306","0.0-561.0-2.0","6d0oysah","","","","","","","","","","","","","","","","","","","","","","","","","","","","","","","","","",""
"","html-keyboard-response","436","367057","0.0-562.0","6d0oysah","1366","768","","","","","","","","","","","null","+","Fixation - short","","null","","","","","","","","","","","","","","","","",""
"","html-keyboard-response","437","367533","0.0-563.0","6d0oysah","","","","","","","","","","","","","474","dof","Diagnostic trial","","f","","7","6","4","true","false","true","both pre & post","RIGHT","RIGHT","j","0","true","","","",""
"","call-function","438","367534","0.0-565.0-0.0","6d0oysah","","","","","","","","","","","","","","","","","","","","","","","","","","","","","","","","","",""
"","html-keyboard-response","439","367837","0.0-565.0-1.0","6d0oysah","1366","768","","","","","","","","","","","null","Wrong","Feedback","","null","","","","","","","","","","","","","","","","",""
"","call-function","440","367838","0.0-565.0-2.0","6d0oysah","","","","","","","","","","","","","","","","","","","","","","","","","","","","","","","","","",""
"","html-keyboard-response","441","368590","0.0-566.0","6d0oysah","1366","768","","","","","","","","","","","null","+","Fixation - short","","null","","","","","","","","","","","","","","","","",""
"","html-keyboard-response","442","369127","0.0-567.0","6d0oysah","","","","","","","","","","","","","535","iei","Inducer trial","","j","","7","","","","true","","","","","f","0","","false","LEFT","",""
"","call-function","443","369128","0.0-569.0-0.0","6d0oysah","","","","","","","","","","","","","","","","","","","","","","","","","","","","","","","","","",""
"","html-keyboard-response","444","369435","0.0-569.0-1.0","6d0oysah","1366","768","","","","","","","","","","","null","Wrong","Feedback","","null","","","","","","","","","","","","","","","","",""
"","call-function","445","369436","0.0-569.0-2.0","6d0oysah","","","","","","","","","","","","","","","","","","","","","","","","","","","","","","","","","",""
"","html-keyboard-response","446","370188","0.0-570.0","6d0oysah","1366","768","","","","","","","","","","","null","+","Fixation - short","","null","","","","","","","","","","","","","","","","",""
"","html-keyboard-response","447","371156","0.0-571.0","6d0oysah","","","","","","","","","","","","","967","If ofa press RIGHT | If vpu press LEFT","Inducer instructions",""," ","","8","","","","","","","","","","","","","","",""
"","html-keyboard-response","448","371918","0.0-572.0","6d0oysah","1366","768","","","","","","","","","","","null","+","Fixation - short","","null","","","","","","","","","","","","","","","","",""
"","html-keyboard-response","449","372312","0.0-573.0","6d0oysah","","","","","","","","","","","","","392","ofa","Diagnostic trial","","f","","8","0","4","false","false","true","both pre & post","RIGHT","RIGHT","j","0","true","","","",""
"","call-function","450","372313","0.0-575.0-0.0","6d0oysah","","","","","","","","","","","","","","","","","","","","","","","","","","","","","","","","","",""
"","html-keyboard-response","451","372617","0.0-575.0-1.0","6d0oysah","1366","768","","","","","","","","","","","null","Wrong","Feedback","","null","","","","","","","","","","","","","","","","",""
"","call-function","452","372617","0.0-575.0-2.0","6d0oysah","","","","","","","","","","","","","","","","","","","","","","","","","","","","","","","","","",""
"","html-keyboard-response","453","373370","0.0-576.0","6d0oysah","1366","768","","","","","","","","","","","null","+","Fixation - short","","null","","","","","","","","","","","","","","","","",""
"","html-keyboard-response","454","373702","0.0-577.0","6d0oysah","","","","","","","","","","","","","331","vpu","Diagnostic trial","","j","","8","1","4","false","false","true","both pre & post","LEFT","RIGHT","j","1","false","","","",""
"","html-keyboard-response","455","374466","0.0-580.0","6d0oysah","1366","768","","","","","","","","","","","null","+","Fixation - short","","null","","","","","","","","","","","","","","","","",""
"","html-keyboard-response","456","374853","0.0-581.0","6d0oysah","","","","","","","","","","","","","386","vpu","Diagnostic trial","","j","","8","2","4","false","false","false","both pre & post","LEFT","LEFT","f","0","true","","","",""
"","call-function","457","374854","0.0-583.0-0.0","6d0oysah","","","","","","","","","","","","","","","","","","","","","","","","","","","","","","","","","",""
"","html-keyboard-response","458","375165","0.0-583.0-1.0","6d0oysah","1366","768","","","","","","","","","","","null","Wrong","Feedback","","null","","","","","","","","","","","","","","","","",""
"","call-function","459","375166","0.0-583.0-2.0","6d0oysah","","","","","","","","","","","","","","","","","","","","","","","","","","","","","","","","","",""
"","html-keyboard-response","460","375933","0.0-584.0","6d0oysah","1366","768","","","","","","","","","","","null","+","Fixation - short","","null","","","","","","","","","","","","","","","","",""
"","html-keyboard-response","461","376277","0.0-585.0","6d0oysah","","","","","","","","","","","","","343","ofa","Diagnostic trial","","f","","8","3","4","false","false","false","both pre & post","RIGHT","LEFT","f","1","false","","","",""
"","html-keyboard-response","462","377040","0.0-588.0","6d0oysah","1366","768","","","","","","","","","","","null","+","Fixation - short","","null","","","","","","","","","","","","","","","","",""
"","canvas-keyboard-response","463","378297","0.0-589.0","6d0oysah","","","","","","","","","","","","","null","Cue","Cue","","null","","8","3","","","false","","","","","","","","","","",""
"","html-keyboard-response","464","379055","0.0-590.0","6d0oysah","1366","768","","","","","","","","","","","null","+","Fixation - short","","null","","","","","","","","","","","","","","","","",""
"","html-keyboard-response","465","379652","0.0-591.0","6d0oysah","","","","","","","","","","","","","595","ofa","Diagnostic trial","","j","","8","4","4","true","false","true","both pre & post","RIGHT","RIGHT","j","1","true","","","",""
"","html-keyboard-response","466","380412","0.0-594.0","6d0oysah","1366","768","","","","","","","","","","","null","+","Fixation - short","","null","","","","","","","","","","","","","","","","",""
"","html-keyboard-response","467","380825","0.0-595.0","6d0oysah","","","","","","","","","","","","","412","ofa","Diagnostic trial","","j","","8","5","4","true","false","true","both pre & post","RIGHT","RIGHT","j","1","true","","","",""
"","html-keyboard-response","468","381580","0.0-598.0","6d0oysah","1366","768","","","","","","","","","","","null","+","Fixation - short","","null","","","","","","","","","","","","","","","","",""
"","html-keyboard-response","469","382078","0.0-599.0","6d0oysah","","","","","","","","","","","","","497","ofa","Diagnostic trial","","j","","8","6","4","true","false","false","both pre & post","RIGHT","LEFT","f","0","false","","","",""
"","call-function","470","382078","0.0-601.0-0.0","6d0oysah","","","","","","","","","","","","","","","","","","","","","","","","","","","","","","","","","",""
"","html-keyboard-response","471","382392","0.0-601.0-1.0","6d0oysah","1366","768","","","","","","","","","","","null","Wrong","Feedback","","null","","","","","","","","","","","","","","","","",""
"","call-function","472","382392","0.0-601.0-2.0","6d0oysah","","","","","","","","","","","","","","","","","","","","","","","","","","","","","","","","","",""
"","html-keyboard-response","473","383145","0.0-602.0","6d0oysah","1366","768","","","","","","","","","","","null","+","Fixation - short","","null","","","","","","","","","","","","","","","","",""
"","html-keyboard-response","474","383376","0.0-603.0","6d0oysah","","","","","","","","","","","","","230","vpu","Diagnostic trial","","f","","8","7","4","true","false","false","both pre & post","LEFT","LEFT","f","1","true","","","",""
"","html-keyboard-response","475","384143","0.0-606.0","6d0oysah","1366","768","","","","","","","","","","","null","+","Fixation - short","","null","","","","","","","","","","","","","","","","",""
"","html-keyboard-response","476","384758","0.0-607.0","6d0oysah","","","","","","","","","","","","","614","vpu","Inducer trial","","f","","8","","","","true","","","","","f","1","","false","LEFT","",""
"","html-keyboard-response","477","385525","0.0-610.0","6d0oysah","1366","768","","","","","","","","","","","null","+","Fixation - short","","null","","","","","","","","","","","","","","","","",""
"","html-keyboard-response","478","386480","0.0-611.0","6d0oysah","","","","","","","","","","","","","954","If wwt press RIGHT | If ndm press LEFT","Inducer instructions",""," ","","9","","","","","","","","","","","","","","",""
"","html-keyboard-response","479","387232","0.0-612.0","6d0oysah","1366","768","","","","","","","","","","","null","+","Fixation - short","","null","","","","","","","","","","","","","","","","",""
