"value","trial_type","trial_index","time_elapsed","internal_node_id","id","width","height","webaudio","browser","browser_version","mobile","os","fullscreen","vsync_rate","webcam","microphone","view_history","rt","stimulus","trial_info","success","response","exp_parameters","inducer_run","diagnostic_run","cue_num","post_cue","inducer_trial","italic","forced_equal_run","correct_inducer_response_side","correct_diag_response_side","correct_response_key","correct_response","congruent","force_equal","correct_indu_response_side","accuracy","interactive"
"","call-function","0","3","0.0-0.0","jpla3shf","","","","","","","","","","","","","","","","","","","","","","","","","","","","","","","","","",""
"","browser-check","1","2164","0.0-1.0","jpla3shf","2048","1072","true","safari","16.6.0","false","Mac OS","true","62.24","true","true","","","","","","","","","","","","","","","","","","","","","","",""
"","instructions","2","18115","0.0-2.0","jpla3shf","","","","","","","","","","","","[{""page_index"":0,""viewing_time"":2207},{""page_index"":1,""viewing_time"":9907},{""page_index"":2,""viewing_time"":3837}]","15951","The experiment and consent","The experiment and consent","","","","","","","","","","","","","","","","","","",""
"","fullscreen","3","24069","0.0-3.0","jpla3shf","","","","","","","","","","","","","4918","","Full screen","true","","","","","","","","","","","","","","","","","",""
"","instructions","4","45819","0.0-4.0","jpla3shf","","","","","","","","","","","","[{""page_index"":0,""viewing_time"":13610},{""page_index"":1,""viewing_time"":8140}]","21750","Instructions","Basic overview explanation","","","","","","","","","","","","","","","","","","",""
"","html-keyboard-response","5","53328","0.0-5.0","jpla3shf","","","","","","","","","","","","","6007","If italic press LEFT | If upright press RIGHT","Diagnostic instructions",""," ","{""debug"":false,""skip_instructions"":false,""skip_practice"":false,""save_local_data"":false,""studu_name"":""exp2"",""default_background_colour"":""#cccccc"",""wrong_response_colour"":""#d22d2d"",""instruction_delay"":20000,""trial_duration"":2000,""short_fixation"":750,""long_fixation"":1500,""wrong_response_delay"":300,""too_slow_delay"":300,""instruction_font_size"":""24px"",""general_font_size"":""42px"",""fixation_size"":""48px"",""allowed_responses"":[""f"",""j""],""cue_min_length"":0,""cue_max_length"":4,""tot_post_cue_len"":72,""cue_colour"":""yellow"",""cue_shape"":""Triangle"",""cue_size"":70,""cue_duration"":1250,""avg_number_of_cues"":3,""inducer_colour"":""red"",""number_of_inducers"":24,""pre_cue_italic_forced_equal"":true,""post_cue_italic_forced_equal"":true,""prac_diagnostic_rounds"":16,""prac_inducer_rounds"":6,""prac_cue_rounds"":16,""prac_post_cue_num"":3}","","","","","","","","","","","","","","","",""
"","html-keyboard-response","6","54080","0.0-6.0","jpla3shf","2048","1152","","","","","","","","","","","null","+","Fixation - short","","null","","","","","","","","","","","","","","","","",""
"","html-keyboard-response","7","54948","0.0-7.0","jpla3shf","","","","","","","","","","","","","867","yna","Diagnostic practice","","j","","Diagnostic practice","0","-84","true","false","false","prac equal","RIGHT","RIGHT","j","1","true","","","",""
"","html-keyboard-response","8","55700","0.0-10.0","jpla3shf","2048","1152","","","","","","","","","","","null","+","Fixation - short","","null","","","","","","","","","","","","","","","","",""
"","html-keyboard-response","9","56230","0.0-11.0","jpla3shf","","","","","","","","","","","","","529","cpt","Diagnostic practice","","j","","Diagnostic practice","1","-84","true","false","false","prac equal","LEFT","RIGHT","j","1","false","","","",""
"","html-keyboard-response","10","56982","0.0-14.0","jpla3shf","2048","1152","","","","","","","","","","","null","+","Fixation - short","","null","","","","","","","","","","","","","","","","",""
"","html-keyboard-response","11","57490","0.0-15.0","jpla3shf","","","","","","","","","","","","","507","cpt","Diagnostic practice","","j","","Diagnostic practice","2","-84","true","false","false","prac equal","LEFT","RIGHT","j","1","false","","","",""
"","html-keyboard-response","12","58242","0.0-18.0","jpla3shf","2048","1152","","","","","","","","","","","null","+","Fixation - short","","null","","","","","","","","","","","","","","","","",""
"","html-keyboard-response","13","58862","0.0-19.0","jpla3shf","","","","","","","","","","","","","619","yna","Diagnostic practice","","f","","Diagnostic practice","3","-84","true","false","true","prac equal","RIGHT","LEFT","f","1","false","","","",""
"","html-keyboard-response","14","59614","0.0-22.0","jpla3shf","2048","1152","","","","","","","","","","","null","+","Fixation - short","","null","","","","","","","","","","","","","","","","",""
"","html-keyboard-response","15","60303","0.0-23.0","jpla3shf","","","","","","","","","","","","","688","cpt","Diagnostic practice","","f","","Diagnostic practice","4","-84","true","false","true","prac equal","LEFT","LEFT","f","1","true","","","",""
"","html-keyboard-response","16","61055","0.0-26.0","jpla3shf","2048","1152","","","","","","","","","","","null","+","Fixation - short","","null","","","","","","","","","","","","","","","","",""
"","html-keyboard-response","17","61495","0.0-27.0","jpla3shf","","","","","","","","","","","","","440","yna","Diagnostic practice","","f","","Diagnostic practice","5","-84","true","false","true","prac equal","RIGHT","LEFT","f","1","false","","","",""
"","html-keyboard-response","18","62247","0.0-30.0","jpla3shf","2048","1152","","","","","","","","","","","null","+","Fixation - short","","null","","","","","","","","","","","","","","","","",""
"","html-keyboard-response","19","62778","0.0-31.0","jpla3shf","","","","","","","","","","","","","530","cpt","Diagnostic practice","","j","","Diagnostic practice","6","-84","true","false","false","prac equal","LEFT","RIGHT","j","1","false","","","",""
"","html-keyboard-response","20","63530","0.0-34.0","jpla3shf","2048","1152","","","","","","","","","","","null","+","Fixation - short","","null","","","","","","","","","","","","","","","","",""
"","html-keyboard-response","21","64106","0.0-35.0","jpla3shf","","","","","","","","","","","","","576","yna","Diagnostic practice","","j","","Diagnostic practice","7","-84","true","false","false","prac equal","RIGHT","RIGHT","j","1","true","","","",""
"","html-keyboard-response","22","64857","0.0-38.0","jpla3shf","2048","1152","","","","","","","","","","","null","+","Fixation - short","","null","","","","","","","","","","","","","","","","",""
"","html-keyboard-response","23","65365","0.0-39.0","jpla3shf","","","","","","","","","","","","","508","cpt","Diagnostic practice","","f","","Diagnostic practice","8","-84","true","false","true","prac equal","LEFT","LEFT","f","1","true","","","",""
"","html-keyboard-response","24","66117","0.0-42.0","jpla3shf","2048","1152","","","","","","","","","","","null","+","Fixation - short","","null","","","","","","","","","","","","","","","","",""
"","html-keyboard-response","25","66715","0.0-43.0","jpla3shf","","","","","","","","","","","","","599","cpt","Diagnostic practice","","f","","Diagnostic practice","9","-84","true","false","true","prac equal","LEFT","LEFT","f","1","true","","","",""
"","html-keyboard-response","26","67467","0.0-46.0","jpla3shf","2048","1152","","","","","","","","","","","null","+","Fixation - short","","null","","","","","","","","","","","","","","","","",""
"","html-keyboard-response","27","68043","0.0-47.0","jpla3shf","","","","","","","","","","","","","575","cpt","Diagnostic practice","","j","","Diagnostic practice","10","-84","true","false","false","prac equal","LEFT","RIGHT","j","1","false","","","",""
"","html-keyboard-response","28","68795","0.0-50.0","jpla3shf","2048","1152","","","","","","","","","","","null","+","Fixation - short","","null","","","","","","","","","","","","","","","","",""
"","html-keyboard-response","29","69348","0.0-51.0","jpla3shf","","","","","","","","","","","","","552","cpt","Diagnostic practice","","j","","Diagnostic practice","11","-84","true","false","false","prac equal","LEFT","RIGHT","j","1","false","","","",""
"","html-keyboard-response","30","70100","0.0-54.0","jpla3shf","2048","1152","","","","","","","","","","","null","+","Fixation - short","","null","","","","","","","","","","","","","","","","",""
"","html-keyboard-response","31","70788","0.0-55.0","jpla3shf","","","","","","","","","","","","","687","cpt","Diagnostic practice","","f","","Diagnostic practice","12","-84","true","false","true","prac equal","LEFT","LEFT","f","1","true","","","",""
"","html-keyboard-response","32","71540","0.0-58.0","jpla3shf","2048","1152","","","","","","","","","","","null","+","Fixation - short","","null","","","","","","","","","","","","","","","","",""
"","html-keyboard-response","33","72138","0.0-59.0","jpla3shf","","","","","","","","","","","","","598","yna","Diagnostic practice","","j","","Diagnostic practice","13","-84","true","false","false","prac equal","RIGHT","RIGHT","j","1","true","","","",""
"","html-keyboard-response","34","72890","0.0-62.0","jpla3shf","2048","1152","","","","","","","","","","","null","+","Fixation - short","","null","","","","","","","","","","","","","","","","",""
"","html-keyboard-response","35","73398","0.0-63.0","jpla3shf","","","","","","","","","","","","","507","cpt","Diagnostic practice","","f","","Diagnostic practice","14","-84","true","false","true","prac equal","LEFT","LEFT","f","1","true","","","",""
"","html-keyboard-response","36","74150","0.0-66.0","jpla3shf","2048","1152","","","","","","","","","","","null","+","Fixation - short","","null","","","","","","","","","","","","","","","","",""
"","html-keyboard-response","37","74590","0.0-67.0","jpla3shf","","","","","","","","","","","","","440","yna","Diagnostic practice","","f","","Diagnostic practice","15","-84","true","false","true","prac equal","RIGHT","LEFT","f","1","false","","","",""
"","html-keyboard-response","38","75342","0.0-70.0","jpla3shf","2048","1152","","","","","","","","","","","null","+","Fixation - short","","null","","","","","","","","","","","","","","","","",""
"","instructions","39","80878","0.0-71.0","jpla3shf","","","","","","","","","","","","[{""page_index"":0,""viewing_time"":5535}]","5536","Instructions","Final experiment explanation","","","","","","","","","","","","","","","","","","",""
"","html-keyboard-response","40","86909","0.0-72.0","jpla3shf","","","","","","","","","","","","","4530","If bms press LEFT | If cer press RIGHT","Inducer practice",""," ","","Practice","","","","","","","","","","","","","","",""
"","html-keyboard-response","41","87660","0.0-73.0","jpla3shf","2048","1152","","","","","","","","","","","null","+","Fixation - short","","null","","","","","","","","","","","","","","","","",""
"","html-keyboard-response","42","88799","0.0-74.0","jpla3shf","","","","","","","","","","","","","1137","cer","Inducer practice","","j","","Practice","","","","true","","","","","j","1","","true","RIGHT","",""
"","html-keyboard-response","43","89551","0.0-77.0","jpla3shf","2048","1152","","","","","","","","","","","null","+","Fixation - short","","null","","","","","","","","","","","","","","","","",""
"","html-keyboard-response","44","93839","0.0-78.0","jpla3shf","","","","","","","","","","","","","4288","If tgf press LEFT | If gfm press RIGHT","Inducer practice",""," ","","Practice","","","","","","","","","","","","","","",""
"","html-keyboard-response","45","94591","0.0-79.0","jpla3shf","2048","1152","","","","","","","","","","","null","+","Fixation - short","","null","","","","","","","","","","","","","","","","",""
"","html-keyboard-response","46","95211","0.0-80.0","jpla3shf","","","","","","","","","","","","","620","gfm","Inducer practice","","j","","Practice","","","","true","","","","","j","1","","true","RIGHT","",""
"","html-keyboard-response","47","95963","0.0-83.0","jpla3shf","2048","1152","","","","","","","","","","","null","+","Fixation - short","","null","","","","","","","","","","","","","","","","",""
"","html-keyboard-response","48","99172","0.0-84.0","jpla3shf","","","","","","","","","","","","","3208","If pbz press LEFT | If pph press RIGHT","Inducer practice",""," ","","Practice","","","","","","","","","","","","","","",""
"","html-keyboard-response","49","99923","0.0-85.0","jpla3shf","2048","1152","","","","","","","","","","","null","+","Fixation - short","","null","","","","","","","","","","","","","","","","",""
"","html-keyboard-response","50","100724","0.0-86.0","jpla3shf","","","","","","","","","","","","","800","pbz","Inducer practice","","f","","Practice","","","","true","","","","","f","1","","true","LEFT","",""
"","html-keyboard-response","51","101475","0.0-89.0","jpla3shf","2048","1152","","","","","","","","","","","null","+","Fixation - short","","null","","","","","","","","","","","","","","","","",""
"","html-keyboard-response","52","103402","0.0-90.0","jpla3shf","","","","","","","","","","","","","1927","If xet press LEFT | If asn press RIGHT","Inducer practice",""," ","","Practice","","","","","","","","","","","","","","",""
"","html-keyboard-response","53","104154","0.0-91.0","jpla3shf","2048","1152","","","","","","","","","","","null","+","Fixation - short","","null","","","","","","","","","","","","","","","","",""
"","html-keyboard-response","54","104842","0.0-92.0","jpla3shf","","","","","","","","","","","","","687","asn","Inducer practice","","j","","Practice","","","","true","","","","","j","1","","true","RIGHT","",""
"","html-keyboard-response","55","105594","0.0-95.0","jpla3shf","2048","1152","","","","","","","","","","","null","+","Fixation - short","","null","","","","","","","","","","","","","","","","",""
"","html-keyboard-response","56","108104","0.0-96.0","jpla3shf","","","","","","","","","","","","","2510","If sjn press LEFT | If jsf press RIGHT","Inducer practice",""," ","","Practice","","","","","","","","","","","","","","",""
"","html-keyboard-response","57","108856","0.0-97.0","jpla3shf","2048","1152","","","","","","","","","","","null","+","Fixation - short","","null","","","","","","","","","","","","","","","","",""
"","html-keyboard-response","58","109499","0.0-98.0","jpla3shf","","","","","","","","","","","","","642","sjn","Inducer practice","","f","","Practice","","","","true","","","","","f","1","","true","LEFT","",""
"","html-keyboard-response","59","110251","0.0-101.0","jpla3shf","2048","1152","","","","","","","","","","","null","+","Fixation - short","","null","","","","","","","","","","","","","","","","",""
"","html-keyboard-response","60","113999","0.0-102.0","jpla3shf","","","","","","","","","","","","","3748","If quy press LEFT | If gso press RIGHT","Inducer practice",""," ","","Practice","","","","","","","","","","","","","","",""
"","html-keyboard-response","61","114750","0.0-103.0","jpla3shf","2048","1152","","","","","","","","","","","null","+","Fixation - short","","null","","","","","","","","","","","","","","","","",""
"","html-keyboard-response","62","115394","0.0-104.0","jpla3shf","","","","","","","","","","","","","644","quy","Inducer practice","","f","","Practice","","","","true","","","","","f","1","","true","LEFT","",""
"","html-keyboard-response","63","116146","0.0-107.0","jpla3shf","2048","1152","","","","","","","","","","","null","+","Fixation - short","","null","","","","","","","","","","","","","","","","",""
"","instructions","64","134715","0.0-108.0","jpla3shf","","","","","","","","","","","","[{""page_index"":0,""viewing_time"":18568}]","18568","Instructions","Final experiment explanation","","","","","","","","","","","","","","","","","","",""
"","html-keyboard-response","65","138052","0.0-109.0","jpla3shf","","","","","","","","","","","","","1835","If mmo press LEFT | If ivr press RIGHT","Cue practice",""," ","","Practice","","","","","","","","","","","","","","",""
"","html-keyboard-response","66","138804","0.0-110.0","jpla3shf","2048","1152","","","","","","","","","","","null","+","Fixation - short","","null","","","","","","","","","","","","","","","","",""
"","html-keyboard-response","67","139695","0.0-111.0","jpla3shf","","","","","","","","","","","","","890","ivr","Cue practice","","j","","Practice","0","13","false","false","false","both pre & post","RIGHT","RIGHT","j","1","true","","","",""
"","html-keyboard-response","68","140446","0.0-114.0","jpla3shf","2048","1152","","","","","","","","","","","null","+","Fixation - short","","null","","","","","","","","","","","","","","","","",""
"","html-keyboard-response","69","140865","0.0-115.0","jpla3shf","","","","","","","","","","","","","417","ivr","Cue practice","","j","","Practice","1","13","false","false","false","both pre & post","RIGHT","RIGHT","j","1","true","","","",""
"","html-keyboard-response","70","141616","0.0-118.0","jpla3shf","2048","1152","","","","","","","","","","","null","+","Fixation - short","","null","","","","","","","","","","","","","","","","",""
"","html-keyboard-response","71","142057","0.0-119.0","jpla3shf","","","","","","","","","","","","","441","mmo","Cue practice","","f","","Practice","2","13","false","false","true","both pre & post","LEFT","LEFT","f","1","true","","","",""
"","html-keyboard-response","72","142809","0.0-122.0","jpla3shf","2048","1152","","","","","","","","","","","null","+","Fixation - short","","null","","","","","","","","","","","","","","","","",""
"","html-keyboard-response","73","143925","0.0-123.0","jpla3shf","","","","","","","","","","","","","1115","ivr","Cue practice","","j","","Practice","3","13","false","false","true","both pre & post","RIGHT","LEFT","f","0","false","","","",""
"","call-function","74","143925","0.0-125.0-0.0","jpla3shf","","","","","","","","","","","","","","","","","","","","","","","","","","","","","","","","","",""
"","html-keyboard-response","75","144227","0.0-125.0-1.0","jpla3shf","2048","1152","","","","","","","","","","","null","Wrong","Feedback","","null","","","","","","","","","","","","","","","","",""
"","call-function","76","144228","0.0-125.0-2.0","jpla3shf","","","","","","","","","","","","","","","","","","","","","","","","","","","","","","","","","",""
"","html-keyboard-response","77","144979","0.0-126.0","jpla3shf","2048","1152","","","","","","","","","","","null","+","Fixation - short","","null","","","","","","","","","","","","","","","","",""
"","html-keyboard-response","78","146309","0.0-127.0","jpla3shf","","","","","","","","","","","","","1329","ivr","Cue practice","","j","","Practice","4","13","false","false","true","both pre & post","RIGHT","LEFT","f","0","false","","","",""
"","call-function","79","146310","0.0-129.0-0.0","jpla3shf","","","","","","","","","","","","","","","","","","","","","","","","","","","","","","","","","",""
"","html-keyboard-response","80","146611","0.0-129.0-1.0","jpla3shf","2048","1152","","","","","","","","","","","null","Wrong","Feedback","","null","","","","","","","","","","","","","","","","",""
"","call-function","81","146611","0.0-129.0-2.0","jpla3shf","","","","","","","","","","","","","","","","","","","","","","","","","","","","","","","","","",""
"","html-keyboard-response","82","147363","0.0-130.0","jpla3shf","2048","1152","","","","","","","","","","","null","+","Fixation - short","","null","","","","","","","","","","","","","","","","",""
"","html-keyboard-response","83","149213","0.0-131.0","jpla3shf","","","","","","","","","","","","","1848","ivr","Cue practice","","j","","Practice","5","13","false","false","false","both pre & post","RIGHT","RIGHT","j","1","true","","","",""
"","html-keyboard-response","84","149965","0.0-134.0","jpla3shf","2048","1152","","","","","","","","","","","null","+","Fixation - short","","null","","","","","","","","","","","","","","","","",""
"","html-keyboard-response","85","150472","0.0-135.0","jpla3shf","","","","","","","","","","","","","507","ivr","Cue practice","","j","","Practice","6","13","false","false","false","both pre & post","RIGHT","RIGHT","j","1","true","","","",""
"","html-keyboard-response","86","151223","0.0-138.0","jpla3shf","2048","1152","","","","","","","","","","","null","+","Fixation - short","","null","","","","","","","","","","","","","","","","",""
"","html-keyboard-response","87","151845","0.0-139.0","jpla3shf","","","","","","","","","","","","","622","mmo","Cue practice","","f","","Practice","7","13","false","false","true","both pre & post","LEFT","LEFT","f","1","true","","","",""
"","html-keyboard-response","88","152596","0.0-142.0","jpla3shf","2048","1152","","","","","","","","","","","null","+","Fixation - short","","null","","","","","","","","","","","","","","","","",""
"","html-keyboard-response","89","153105","0.0-143.0","jpla3shf","","","","","","","","","","","","","508","ivr","Cue practice","","f","","Practice","8","13","false","false","true","both pre & post","RIGHT","LEFT","f","1","false","","","",""
"","html-keyboard-response","90","153857","0.0-146.0","jpla3shf","2048","1152","","","","","","","","","","","null","+","Fixation - short","","null","","","","","","","","","","","","","","","","",""
"","html-keyboard-response","91","154477","0.0-147.0","jpla3shf","","","","","","","","","","","","","620","mmo","Cue practice","","j","","Practice","9","13","false","false","false","both pre & post","LEFT","RIGHT","j","1","false","","","",""
"","html-keyboard-response","92","155229","0.0-150.0","jpla3shf","2048","1152","","","","","","","","","","","null","+","Fixation - short","","null","","","","","","","","","","","","","","","","",""
"","html-keyboard-response","93","155760","0.0-151.0","jpla3shf","","","","","","","","","","","","","530","mmo","Cue practice","","j","","Practice","10","13","false","false","true","both pre & post","LEFT","LEFT","f","0","true","","","",""
"","call-function","94","155760","0.0-153.0-0.0","jpla3shf","","","","","","","","","","","","","","","","","","","","","","","","","","","","","","","","","",""
"","html-keyboard-response","95","156062","0.0-153.0-1.0","jpla3shf","2048","1152","","","","","","","","","","","null","Wrong","Feedback","","null","","","","","","","","","","","","","","","","",""
"","call-function","96","156062","0.0-153.0-2.0","jpla3shf","","","","","","","","","","","","","","","","","","","","","","","","","","","","","","","","","",""
"","html-keyboard-response","97","156813","0.0-154.0","jpla3shf","2048","1152","","","","","","","","","","","null","+","Fixation - short","","null","","","","","","","","","","","","","","","","",""
"","html-keyboard-response","98","157470","0.0-155.0","jpla3shf","","","","","","","","","","","","","655","ivr","Cue practice","","f","","Practice","11","13","false","false","true","both pre & post","RIGHT","LEFT","f","1","false","","","",""
"","html-keyboard-response","99","158221","0.0-158.0","jpla3shf","2048","1152","","","","","","","","","","","null","+","Fixation - short","","null","","","","","","","","","","","","","","","","",""
"","html-keyboard-response","100","158662","0.0-159.0","jpla3shf","","","","","","","","","","","","","440","mmo","Cue practice","","j","","Practice","12","13","false","false","false","both pre & post","LEFT","RIGHT","j","1","false","","","",""
"","html-keyboard-response","101","159414","0.0-162.0","jpla3shf","2048","1152","","","","","","","","","","","null","+","Fixation - short","","null","","","","","","","","","","","","","","","","",""
"","canvas-keyboard-response","102","160667","0.0-163.0","jpla3shf","","","","","","","","","","","","","null","Cue","Cue","","null","","Practice","12","","","false","","","","","","","","","","",""
"","html-keyboard-response","103","161419","0.0-164.0","jpla3shf","2048","1152","","","","","","","","","","","null","+","Fixation - short","","null","","","","","","","","","","","","","","","","",""
"","html-keyboard-response","104","162960","0.0-165.0","jpla3shf","","","","","","","","","","","","","1540","mmo","Cue practice","","f","","Practice","13","13","true","false","false","both pre & post","LEFT","RIGHT","j","0","false","","","",""
"","call-function","105","162960","0.0-167.0-0.0","jpla3shf","","","","","","","","","","","","","","","","","","","","","","","","","","","","","","","","","",""
"","html-keyboard-response","106","163261","0.0-167.0-1.0","jpla3shf","2048","1152","","","","","","","","","","","null","Wrong","Feedback","","null","","","","","","","","","","","","","","","","",""
"","call-function","107","163262","0.0-167.0-2.0","jpla3shf","","","","","","","","","","","","","","","","","","","","","","","","","","","","","","","","","",""
"","html-keyboard-response","108","164013","0.0-168.0","jpla3shf","2048","1152","","","","","","","","","","","null","+","Fixation - short","","null","","","","","","","","","","","","","","","","",""
"","html-keyboard-response","109","165075","0.0-169.0","jpla3shf","","","","","","","","","","","","","1061","mmo","Cue practice","","f","","Practice","14","13","true","false","true","both pre & post","LEFT","LEFT","f","1","true","","","",""
"","html-keyboard-response","110","165827","0.0-172.0","jpla3shf","2048","1152","","","","","","","","","","","null","+","Fixation - short","","null","","","","","","","","","","","","","","","","",""
"","html-keyboard-response","111","166492","0.0-173.0","jpla3shf","","","","","","","","","","","","","664","ivr","Cue practice","","f","","Practice","15","13","true","false","true","both pre & post","RIGHT","LEFT","f","1","false","","","",""
"","html-keyboard-response","112","167244","0.0-176.0","jpla3shf","2048","1152","","","","","","","","","","","null","+","Fixation - short","","null","","","","","","","","","","","","","","","","",""
"","html-keyboard-response","113","169012","0.0-177.0","jpla3shf","","","","","","","","","","","","","1767","ivr","Inducer practice","","j","","Practice","","","","true","","","","","j","1","","false","RIGHT","",""
"","html-keyboard-response","114","169764","0.0-180.0","jpla3shf","2048","1152","","","","","","","","","","","null","+","Fixation - short","","null","","","","","","","","","","","","","","","","",""
"","instructions","115","174680","0.0-181.0","jpla3shf","","","","","","","","","","","","[{""page_index"":0,""viewing_time"":4915}]","4915","End practice","End of practice","","","","","","","","","","","","","","","","","","",""
"","html-keyboard-response","116","177682","0.0-182.0","jpla3shf","2048","1152","","","","","","","","","","","null","+","Fixation - long","","null","","","","","","","","","","","","","","","","",""
"","html-keyboard-response","117","181770","0.0-183.0","jpla3shf","","","","","","","","","","","","","4087","If mda press LEFT | If ila press RIGHT","Inducer instructions",""," ","","0","","","","","","","","","","","","","","",""
"","html-keyboard-response","118","182521","0.0-184.0","jpla3shf","2048","1152","","","","","","","","","","","null","+","Fixation - short","","null","","","","","","","","","","","","","","","","",""
"","html-keyboard-response","119","183581","0.0-185.0","jpla3shf","","","","","","","","","","","","","1059","mda","Diagnostic trial","","f","","0","0","4","false","false","true","both pre & post","LEFT","LEFT","f","1","true","","","",""
"","html-keyboard-response","120","184332","0.0-188.0","jpla3shf","2048","1152","","","","","","","","","","","null","+","Fixation - short","","null","","","","","","","","","","","","","","","","",""
"","html-keyboard-response","121","184796","0.0-189.0","jpla3shf","","","","","","","","","","","","","463","ila","Diagnostic trial","","f","","0","1","4","false","false","false","both pre & post","RIGHT","RIGHT","j","0","true","","","",""
"","call-function","122","184797","0.0-191.0-0.0","jpla3shf","","","","","","","","","","","","","","","","","","","","","","","","","","","","","","","","","",""
"","html-keyboard-response","123","185097","0.0-191.0-1.0","jpla3shf","2048","1152","","","","","","","","","","","null","Wrong","Feedback","","null","","","","","","","","","","","","","","","","",""
"","call-function","124","185098","0.0-191.0-2.0","jpla3shf","","","","","","","","","","","","","","","","","","","","","","","","","","","","","","","","","",""
"","html-keyboard-response","125","185849","0.0-192.0","jpla3shf","2048","1152","","","","","","","","","","","null","+","Fixation - short","","null","","","","","","","","","","","","","","","","",""
"","html-keyboard-response","126","186753","0.0-193.0","jpla3shf","","","","","","","","","","","","","904","mda","Diagnostic trial","","j","","0","2","4","false","false","false","both pre & post","LEFT","RIGHT","j","1","false","","","",""
"","html-keyboard-response","127","187505","0.0-196.0","jpla3shf","2048","1152","","","","","","","","","","","null","+","Fixation - short","","null","","","","","","","","","","","","","","","","",""
"","html-keyboard-response","128","188171","0.0-197.0","jpla3shf","","","","","","","","","","","","","665","ila","Diagnostic trial","","f","","0","3","4","false","false","false","both pre & post","RIGHT","RIGHT","j","0","true","","","",""
"","call-function","129","188171","0.0-199.0-0.0","jpla3shf","","","","","","","","","","","","","","","","","","","","","","","","","","","","","","","","","",""
"","html-keyboard-response","130","188472","0.0-199.0-1.0","jpla3shf","2048","1152","","","","","","","","","","","null","Wrong","Feedback","","null","","","","","","","","","","","","","","","","",""
"","call-function","131","188472","0.0-199.0-2.0","jpla3shf","","","","","","","","","","","","","","","","","","","","","","","","","","","","","","","","","",""
"","html-keyboard-response","132","189223","0.0-200.0","jpla3shf","2048","1152","","","","","","","","","","","null","+","Fixation - short","","null","","","","","","","","","","","","","","","","",""
"","canvas-keyboard-response","133","190476","0.0-201.0","jpla3shf","","","","","","","","","","","","","null","Cue","Cue","","null","","0","3","","","false","","","","","","","","","","",""
"","html-keyboard-response","134","191227","0.0-202.0","jpla3shf","2048","1152","","","","","","","","","","","null","+","Fixation - short","","null","","","","","","","","","","","","","","","","",""
"","html-keyboard-response","135","192401","0.0-203.0","jpla3shf","","","","","","","","","","","","","1173","mda","Diagnostic trial","","f","","0","4","4","true","false","true","both pre & post","LEFT","LEFT","f","1","true","","","",""
"","html-keyboard-response","136","193153","0.0-206.0","jpla3shf","2048","1152","","","","","","","","","","","null","+","Fixation - short","","null","","","","","","","","","","","","","","","","",""
"","html-keyboard-response","137","193863","0.0-207.0","jpla3shf","","","","","","","","","","","","","710","ila","Diagnostic trial","","f","","0","5","4","true","false","true","both pre & post","RIGHT","LEFT","f","1","false","","","",""
"","html-keyboard-response","138","194615","0.0-210.0","jpla3shf","2048","1152","","","","","","","","","","","null","+","Fixation - short","","null","","","","","","","","","","","","","","","","",""
"","html-keyboard-response","139","195168","0.0-211.0","jpla3shf","","","","","","","","","","","","","553","ila","Diagnostic trial","","j","","0","6","4","true","false","false","both pre & post","RIGHT","RIGHT","j","1","true","","","",""
"","html-keyboard-response","140","195919","0.0-214.0","jpla3shf","2048","1152","","","","","","","","","","","null","+","Fixation - short","","null","","","","","","","","","","","","","","","","",""
"","html-keyboard-response","141","196541","0.0-215.0","jpla3shf","","","","","","","","","","","","","621","mda","Diagnostic trial","","f","","0","7","4","true","false","true","both pre & post","LEFT","LEFT","f","1","true","","","",""
"","html-keyboard-response","142","197292","0.0-218.0","jpla3shf","2048","1152","","","","","","","","","","","null","+","Fixation - short","","null","","","","","","","","","","","","","","","","",""
"","html-keyboard-response","143","198836","0.0-219.0","jpla3shf","","","","","","","","","","","","","1544","mda","Inducer trial","","f","","0","","","","true","","","","","f","1","","false","LEFT","",""
"","html-keyboard-response","144","199588","0.0-222.0","jpla3shf","2048","1152","","","","","","","","","","","null","+","Fixation - short","","null","","","","","","","","","","","","","","","","",""
"","html-keyboard-response","145","201537","0.0-223.0","jpla3shf","","","","","","","","","","","","","1948","If sdw press LEFT | If amb press RIGHT","Inducer instructions",""," ","","1","","","","","","","","","","","","","","",""
"","html-keyboard-response","146","202288","0.0-224.0","jpla3shf","2048","1152","","","","","","","","","","","null","+","Fixation - short","","null","","","","","","","","","","","","","","","","",""
"","html-keyboard-response","147","203854","0.0-225.0","jpla3shf","","","","","","","","","","","","","1565","amb","Diagnostic trial","","f","","1","0","11","false","false","true","both pre & post","RIGHT","LEFT","f","1","false","","","",""
"","html-keyboard-response","148","204605","0.0-228.0","jpla3shf","2048","1152","","","","","","","","","","","null","+","Fixation - short","","null","","","","","","","","","","","","","","","","",""
"","html-keyboard-response","149","205136","0.0-229.0","jpla3shf","","","","","","","","","","","","","531","sdw","Diagnostic trial","","f","","1","1","11","false","false","true","both pre & post","LEFT","LEFT","f","1","true","","","",""
"","html-keyboard-response","150","205887","0.0-232.0","jpla3shf","2048","1152","","","","","","","","","","","null","+","Fixation - short","","null","","","","","","","","","","","","","","","","",""
"","html-keyboard-response","151","206643","0.0-233.0","jpla3shf","","","","","","","","","","","","","756","sdw","Diagnostic trial","","j","","1","2","11","false","false","false","both pre & post","LEFT","RIGHT","j","1","false","","","",""
"","html-keyboard-response","152","207395","0.0-236.0","jpla3shf","2048","1152","","","","","","","","","","","null","+","Fixation - short","","null","","","","","","","","","","","","","","","","",""
"","html-keyboard-response","153","208016","0.0-237.0","jpla3shf","","","","","","","","","","","","","620","amb","Diagnostic trial","","f","","1","3","11","false","false","true","both pre & post","RIGHT","LEFT","f","1","false","","","",""
"","html-keyboard-response","154","208768","0.0-240.0","jpla3shf","2048","1152","","","","","","","","","","","null","+","Fixation - short","","null","","","","","","","","","","","","","","","","",""
"","html-keyboard-response","155","209434","0.0-241.0","jpla3shf","","","","","","","","","","","","","665","sdw","Diagnostic trial","","j","","1","4","11","false","false","false","both pre & post","LEFT","RIGHT","j","1","false","","","",""
"","html-keyboard-response","156","210185","0.0-244.0","jpla3shf","2048","1152","","","","","","","","","","","null","+","Fixation - short","","null","","","","","","","","","","","","","","","","",""
"","html-keyboard-response","157","210851","0.0-245.0","jpla3shf","","","","","","","","","","","","","665","amb","Diagnostic trial","","j","","1","5","11","false","false","false","both pre & post","RIGHT","RIGHT","j","1","true","","","",""
"","html-keyboard-response","158","211602","0.0-248.0","jpla3shf","2048","1152","","","","","","","","","","","null","+","Fixation - short","","null","","","","","","","","","","","","","","","","",""
"","html-keyboard-response","159","212066","0.0-249.0","jpla3shf","","","","","","","","","","","","","463","amb","Diagnostic trial","","j","","1","6","11","false","false","false","both pre & post","RIGHT","RIGHT","j","1","true","","","",""
"","html-keyboard-response","160","212817","0.0-252.0","jpla3shf","2048","1152","","","","","","","","","","","null","+","Fixation - short","","null","","","","","","","","","","","","","","","","",""
"","html-keyboard-response","161","213574","0.0-253.0","jpla3shf","","","","","","","","","","","","","756","sdw","Diagnostic trial","","f","","1","7","11","false","false","true","both pre & post","LEFT","LEFT","f","1","true","","","",""
"","html-keyboard-response","162","214325","0.0-256.0","jpla3shf","2048","1152","","","","","","","","","","","null","+","Fixation - short","","null","","","","","","","","","","","","","","","","",""
"","html-keyboard-response","163","214789","0.0-257.0","jpla3shf","","","","","","","","","","","","","463","amb","Diagnostic trial","","f","","1","8","11","false","false","true","both pre & post","RIGHT","LEFT","f","1","false","","","",""
"","html-keyboard-response","164","215540","0.0-260.0","jpla3shf","2048","1152","","","","","","","","","","","null","+","Fixation - short","","null","","","","","","","","","","","","","","","","",""
"","html-keyboard-response","165","216116","0.0-261.0","jpla3shf","","","","","","","","","","","","","576","amb","Diagnostic trial","","j","","1","9","11","false","false","false","both pre & post","RIGHT","RIGHT","j","1","true","","","",""
"","html-keyboard-response","166","216867","0.0-264.0","jpla3shf","2048","1152","","","","","","","","","","","null","+","Fixation - short","","null","","","","","","","","","","","","","","","","",""
"","html-keyboard-response","167","217557","0.0-265.0","jpla3shf","","","","","","","","","","","","","689","amb","Diagnostic trial","","f","","1","10","11","false","false","true","both pre & post","RIGHT","LEFT","f","1","false","","","",""
"","html-keyboard-response","168","218309","0.0-268.0","jpla3shf","2048","1152","","","","","","","","","","","null","+","Fixation - short","","null","","","","","","","","","","","","","","","","",""
"","canvas-keyboard-response","169","219561","0.0-269.0","jpla3shf","","","","","","","","","","","","","null","Cue","Cue","","null","","1","10","","","false","","","","","","","","","","",""
"","html-keyboard-response","170","220313","0.0-270.0","jpla3shf","2048","1152","","","","","","","","","","","null","+","Fixation - short","","null","","","","","","","","","","","","","","","","",""
"","html-keyboard-response","171","221134","0.0-271.0","jpla3shf","","","","","","","","","","","","","820","amb","Diagnostic trial","","j","","1","11","11","true","false","false","both pre & post","RIGHT","RIGHT","j","1","true","","","",""
"","html-keyboard-response","172","221885","0.0-274.0","jpla3shf","2048","1152","","","","","","","","","","","null","+","Fixation - short","","null","","","","","","","","","","","","","","","","",""
"","html-keyboard-response","173","222394","0.0-275.0","jpla3shf","","","","","","","","","","","","","509","sdw","Diagnostic trial","","f","","1","12","11","true","false","true","both pre & post","LEFT","LEFT","f","1","true","","","",""
"","html-keyboard-response","174","223145","0.0-278.0","jpla3shf","2048","1152","","","","","","","","","","","null","+","Fixation - short","","null","","","","","","","","","","","","","","","","",""
"","html-keyboard-response","175","223902","0.0-279.0","jpla3shf","","","","","","","","","","","","","756","amb","Diagnostic trial","","f","","1","13","11","true","false","true","both pre & post","RIGHT","LEFT","f","1","false","","","",""
"","html-keyboard-response","176","224653","0.0-282.0","jpla3shf","2048","1152","","","","","","","","","","","null","+","Fixation - short","","null","","","","","","","","","","","","","","","","",""
"","html-keyboard-response","177","225297","0.0-283.0","jpla3shf","","","","","","","","","","","","","643","amb","Diagnostic trial","","j","","1","14","11","true","false","false","both pre & post","RIGHT","RIGHT","j","1","true","","","",""
"","html-keyboard-response","178","226048","0.0-286.0","jpla3shf","2048","1152","","","","","","","","","","","null","+","Fixation - short","","null","","","","","","","","","","","","","","","","",""
"","html-keyboard-response","179","226916","0.0-287.0","jpla3shf","","","","","","","","","","","","","868","amb","Inducer trial","","j","","1","","","","true","","","","","j","1","","false","RIGHT","",""
"","html-keyboard-response","180","227668","0.0-290.0","jpla3shf","2048","1152","","","","","","","","","","","null","+","Fixation - short","","null","","","","","","","","","","","","","","","","",""
"","html-keyboard-response","181","229639","0.0-291.0","jpla3shf","","","","","","","","","","","","","1971","If frn press LEFT | If cui press RIGHT","Inducer instructions",""," ","","2","","","","","","","","","","","","","","",""
"","html-keyboard-response","182","230391","0.0-292.0","jpla3shf","2048","1152","","","","","","","","","","","null","+","Fixation - short","","null","","","","","","","","","","","","","","","","",""
"","html-keyboard-response","183","231293","0.0-293.0","jpla3shf","","","","","","","","","","","","","901","frn","Diagnostic trial","","j","","2","0","9","false","false","false","both pre & post","LEFT","RIGHT","j","1","false","","","",""
"","html-keyboard-response","184","232044","0.0-296.0","jpla3shf","2048","1152","","","","","","","","","","","null","+","Fixation - short","","null","","","","","","","","","","","","","","","","",""
"","html-keyboard-response","185","232576","0.0-297.0","jpla3shf","","","","","","","","","","","","","531","cui","Diagnostic trial","","f","","2","1","9","false","false","true","both pre & post","RIGHT","LEFT","f","1","false","","","",""
"","html-keyboard-response","186","233328","0.0-300.0","jpla3shf","2048","1152","","","","","","","","","","","null","+","Fixation - short","","null","","","","","","","","","","","","","","","","",""
"","html-keyboard-response","187","233925","0.0-301.0","jpla3shf","","","","","","","","","","","","","597","frn","Diagnostic trial","","j","","2","2","9","false","false","false","both pre & post","LEFT","RIGHT","j","1","false","","","",""
"","html-keyboard-response","188","234677","0.0-304.0","jpla3shf","2048","1152","","","","","","","","","","","null","+","Fixation - short","","null","","","","","","","","","","","","","","","","",""
"","html-keyboard-response","189","235185","0.0-305.0","jpla3shf","","","","","","","","","","","","","507","cui","Diagnostic trial","","j","","2","3","9","false","false","false","both pre & post","RIGHT","RIGHT","j","1","true","","","",""
"","html-keyboard-response","190","235937","0.0-308.0","jpla3shf","2048","1152","","","","","","","","","","","null","+","Fixation - short","","null","","","","","","","","","","","","","","","","",""
"","html-keyboard-response","191","236693","0.0-309.0","jpla3shf","","","","","","","","","","","","","754","frn","Diagnostic trial","","j","","2","4","9","false","false","false","both pre & post","LEFT","RIGHT","j","1","false","","","",""
"","html-keyboard-response","192","237445","0.0-312.0","jpla3shf","2048","1152","","","","","","","","","","","null","+","Fixation - short","","null","","","","","","","","","","","","","","","","",""
"","html-keyboard-response","193","238065","0.0-313.0","jpla3shf","","","","","","","","","","","","","620","frn","Diagnostic trial","","f","","2","5","9","false","false","true","both pre & post","LEFT","LEFT","f","1","true","","","",""
"","html-keyboard-response","194","238817","0.0-316.0","jpla3shf","2048","1152","","","","","","","","","","","null","+","Fixation - short","","null","","","","","","","","","","","","","","","","",""
"","html-keyboard-response","195","239551","0.0-317.0","jpla3shf","","","","","","","","","","","","","733","cui","Diagnostic trial","","f","","2","6","9","false","false","true","both pre & post","RIGHT","LEFT","f","1","false","","","",""
"","html-keyboard-response","196","240303","0.0-320.0","jpla3shf","2048","1152","","","","","","","","","","","null","+","Fixation - short","","null","","","","","","","","","","","","","","","","",""
"","html-keyboard-response","197","240833","0.0-321.0","jpla3shf","","","","","","","","","","","","","529","frn","Diagnostic trial","","j","","2","7","9","false","false","false","both pre & post","LEFT","RIGHT","j","1","false","","","",""
"","html-keyboard-response","198","241585","0.0-324.0","jpla3shf","2048","1152","","","","","","","","","","","null","+","Fixation - short","","null","","","","","","","","","","","","","","","","",""
"","html-keyboard-response","199","242183","0.0-325.0","jpla3shf","","","","","","","","","","","","","597","frn","Diagnostic trial","","f","","2","8","9","false","false","true","both pre & post","LEFT","LEFT","f","1","true","","","",""
"","html-keyboard-response","200","242934","0.0-328.0","jpla3shf","2048","1152","","","","","","","","","","","null","+","Fixation - short","","null","","","","","","","","","","","","","","","","",""
"","canvas-keyboard-response","201","244186","0.0-329.0","jpla3shf","","","","","","","","","","","","","null","Cue","Cue","","null","","2","8","","","false","","","","","","","","","","",""
"","html-keyboard-response","202","244938","0.0-330.0","jpla3shf","2048","1152","","","","","","","","","","","null","+","Fixation - short","","null","","","","","","","","","","","","","","","","",""
"","html-keyboard-response","203","245963","0.0-331.0","jpla3shf","","","","","","","","","","","","","1025","frn","Diagnostic trial","","f","","2","9","9","true","false","true","both pre & post","LEFT","LEFT","f","1","true","","","",""
"","html-keyboard-response","204","246715","0.0-334.0","jpla3shf","2048","1152","","","","","","","","","","","null","+","Fixation - short","","null","","","","","","","","","","","","","","","","",""
"","html-keyboard-response","205","247425","0.0-335.0","jpla3shf","","","","","","","","","","","","","710","cui","Inducer trial","","j","","2","","","","true","","","","","j","1","","false","RIGHT","",""
"","html-keyboard-response","206","248177","0.0-338.0","jpla3shf","2048","1152","","","","","","","","","","","null","+","Fixation - short","","null","","","","","","","","","","","","","","","","",""
"","html-keyboard-response","207","252241","0.0-339.0","jpla3shf","","","","","","","","","","","","","4062","If psl press LEFT | If idy press RIGHT","Inducer instructions",""," ","","3","","","","","","","","","","","","","","",""
"","html-keyboard-response","208","252992","0.0-340.0","jpla3shf","2048","1152","","","","","","","","","","","null","+","Fixation - short","","null","","","","","","","","","","","","","","","","",""
"","html-keyboard-response","209","253703","0.0-341.0","jpla3shf","","","","","","","","","","","","","710","psl","Diagnostic trial","","j","","3","0","8","false","false","false","both pre & post","LEFT","RIGHT","j","1","false","","","",""
"","html-keyboard-response","210","254454","0.0-344.0","jpla3shf","2048","1152","","","","","","","","","","","null","+","Fixation - short","","null","","","","","","","","","","","","","","","","",""
"","html-keyboard-response","211","254985","0.0-345.0","jpla3shf","","","","","","","","","","","","","530","psl","Diagnostic trial","","f","","3","1","8","false","false","true","both pre & post","LEFT","LEFT","f","1","true","","","",""
"","html-keyboard-response","212","255737","0.0-348.0","jpla3shf","2048","1152","","","","","","","","","","","null","+","Fixation - short","","null","","","","","","","","","","","","","","","","",""
"","html-keyboard-response","213","256493","0.0-349.0","jpla3shf","","","","","","","","","","","","","755","idy","Diagnostic trial","","j","","3","2","8","false","false","false","both pre & post","RIGHT","RIGHT","j","1","true","","","",""
"","html-keyboard-response","214","257244","0.0-352.0","jpla3shf","2048","1152","","","","","","","","","","","null","+","Fixation - short","","null","","","","","","","","","","","","","","","","",""
"","html-keyboard-response","215","257663","0.0-353.0","jpla3shf","","","","","","","","","","","","","418","idy","Diagnostic trial","","j","","3","3","8","false","false","false","both pre & post","RIGHT","RIGHT","j","1","true","","","",""
"","html-keyboard-response","216","258414","0.0-356.0","jpla3shf","2048","1152","","","","","","","","","","","null","+","Fixation - short","","null","","","","","","","","","","","","","","","","",""
"","html-keyboard-response","217","258991","0.0-357.0","jpla3shf","","","","","","","","","","","","","576","psl","Diagnostic trial","","j","","3","4","8","false","false","false","both pre & post","LEFT","RIGHT","j","1","false","","","",""
"","html-keyboard-response","218","259743","0.0-360.0","jpla3shf","2048","1152","","","","","","","","","","","null","+","Fixation - short","","null","","","","","","","","","","","","","","","","",""
"","html-keyboard-response","219","260296","0.0-361.0","jpla3shf","","","","","","","","","","","","","552","psl","Diagnostic trial","","j","","3","5","8","false","false","false","both pre & post","LEFT","RIGHT","j","1","false","","","",""
"","html-keyboard-response","220","261047","0.0-364.0","jpla3shf","2048","1152","","","","","","","","","","","null","+","Fixation - short","","null","","","","","","","","","","","","","","","","",""
"","html-keyboard-response","221","261511","0.0-365.0","jpla3shf","","","","","","","","","","","","","463","psl","Diagnostic trial","","f","","3","6","8","false","false","true","both pre & post","LEFT","LEFT","f","1","true","","","",""
"","html-keyboard-response","222","262263","0.0-368.0","jpla3shf","2048","1152","","","","","","","","","","","null","+","Fixation - short","","null","","","","","","","","","","","","","","","","",""
"","html-keyboard-response","223","262883","0.0-369.0","jpla3shf","","","","","","","","","","","","","620","psl","Diagnostic trial","","j","","3","7","8","false","false","false","both pre & post","LEFT","RIGHT","j","1","false","","","",""
"","html-keyboard-response","224","263635","0.0-372.0","jpla3shf","2048","1152","","","","","","","","","","","null","+","Fixation - short","","null","","","","","","","","","","","","","","","","",""
"","canvas-keyboard-response","225","264886","0.0-373.0","jpla3shf","","","","","","","","","","","","","null","Cue","Cue","","null","","3","7","","","false","","","","","","","","","","",""
"","html-keyboard-response","226","265638","0.0-374.0","jpla3shf","2048","1152","","","","","","","","","","","null","+","Fixation - short","","null","","","","","","","","","","","","","","","","",""
"","html-keyboard-response","227","266753","0.0-375.0","jpla3shf","","","","","","","","","","","","","1114","idy","Diagnostic trial","","j","","3","8","8","true","false","false","both pre & post","RIGHT","RIGHT","j","1","true","","","",""
"","html-keyboard-response","228","267504","0.0-378.0","jpla3shf","2048","1152","","","","","","","","","","","null","+","Fixation - short","","null","","","","","","","","","","","","","","","","",""
"","html-keyboard-response","229","268283","0.0-379.0","jpla3shf","","","","","","","","","","","","","778","psl","Diagnostic trial","","j","","3","9","8","true","false","false","both pre & post","LEFT","RIGHT","j","1","false","","","",""
"","html-keyboard-response","230","269035","0.0-382.0","jpla3shf","2048","1152","","","","","","","","","","","null","+","Fixation - short","","null","","","","","","","","","","","","","","","","",""
"","html-keyboard-response","231","270353","0.0-383.0","jpla3shf","","","","","","","","","","","","","1318","psl","Inducer trial","","f","","3","","","","true","","","","","f","1","","false","LEFT","",""
"","html-keyboard-response","232","271105","0.0-386.0","jpla3shf","2048","1152","","","","","","","","","","","null","+","Fixation - short","","null","","","","","","","","","","","","","","","","",""
"","html-keyboard-response","233","273345","0.0-387.0","jpla3shf","","","","","","","","","","","","","2240","If ydi press LEFT | If csp press RIGHT","Inducer instructions",""," ","","4","","","","","","","","","","","","","","",""
"","html-keyboard-response","234","274096","0.0-388.0","jpla3shf","2048","1152","","","","","","","","","","","null","+","Fixation - short","","null","","","","","","","","","","","","","","","","",""
"","html-keyboard-response","235","274786","0.0-389.0","jpla3shf","","","","","","","","","","","","","689","csp","Diagnostic trial","","j","","4","0","4","false","false","false","both pre & post","RIGHT","RIGHT","j","1","true","","","",""
"","html-keyboard-response","236","275538","0.0-392.0","jpla3shf","2048","1152","","","","","","","","","","","null","+","Fixation - short","","null","","","","","","","","","","","","","","","","",""
"","html-keyboard-response","237","276068","0.0-393.0","jpla3shf","","","","","","","","","","","","","530","csp","Diagnostic trial","","j","","4","1","4","false","false","true","both pre & post","RIGHT","LEFT","f","0","false","","","",""
"","call-function","238","276069","0.0-395.0-0.0","jpla3shf","","","","","","","","","","","","","","","","","","","","","","","","","","","","","","","","","",""
"","html-keyboard-response","239","276370","0.0-395.0-1.0","jpla3shf","2048","1152","","","","","","","","","","","null","Wrong","Feedback","","null","","","","","","","","","","","","","","","","",""
"","call-function","240","276371","0.0-395.0-2.0","jpla3shf","","","","","","","","","","","","","","","","","","","","","","","","","","","","","","","","","",""
"","html-keyboard-response","241","277122","0.0-396.0","jpla3shf","2048","1152","","","","","","","","","","","null","+","Fixation - short","","null","","","","","","","","","","","","","","","","",""
"","html-keyboard-response","242","277666","0.0-397.0","jpla3shf","","","","","","","","","","","","","543","ydi","Diagnostic trial","","f","","4","2","4","false","false","true","both pre & post","LEFT","LEFT","f","1","true","","","",""
"","html-keyboard-response","243","278418","0.0-400.0","jpla3shf","2048","1152","","","","","","","","","","","null","+","Fixation - short","","null","","","","","","","","","","","","","","","","",""
"","html-keyboard-response","244","279016","0.0-401.0","jpla3shf","","","","","","","","","","","","","598","csp","Diagnostic trial","","f","","4","3","4","false","false","true","both pre & post","RIGHT","LEFT","f","1","false","","","",""
"","html-keyboard-response","245","279768","0.0-404.0","jpla3shf","2048","1152","","","","","","","","","","","null","+","Fixation - short","","null","","","","","","","","","","","","","","","","",""
"","canvas-keyboard-response","246","281020","0.0-405.0","jpla3shf","","","","","","","","","","","","","null","Cue","Cue","","null","","4","3","","","false","","","","","","","","","","",""
"","html-keyboard-response","247","281772","0.0-406.0","jpla3shf","2048","1152","","","","","","","","","","","null","+","Fixation - short","","null","","","","","","","","","","","","","","","","",""
"","html-keyboard-response","248","282413","0.0-407.0","jpla3shf","","","","","","","","","","","","","641","csp","Diagnostic trial","","f","","4","4","4","true","false","true","both pre & post","RIGHT","LEFT","f","1","false","","","",""
"","html-keyboard-response","249","283165","0.0-410.0","jpla3shf","2048","1152","","","","","","","","","","","null","+","Fixation - short","","null","","","","","","","","","","","","","","","","",""
"","html-keyboard-response","250","283741","0.0-411.0","jpla3shf","","","","","","","","","","","","","575","csp","Inducer trial","","j","","4","","","","true","","","","","j","1","","false","RIGHT","",""
"","html-keyboard-response","251","284492","0.0-414.0","jpla3shf","2048","1152","","","","","","","","","","","null","+","Fixation - short","","null","","","","","","","","","","","","","","","","",""
"","html-keyboard-response","252","285968","0.0-415.0","jpla3shf","","","","","","","","","","","","","1476","If mts press LEFT | If gdn press RIGHT","Inducer instructions",""," ","","5","","","","","","","","","","","","","","",""
"","html-keyboard-response","253","286720","0.0-416.0","jpla3shf","2048","1152","","","","","","","","","","","null","+","Fixation - short","","null","","","","","","","","","","","","","","","","",""
"","html-keyboard-response","254","287476","0.0-417.0","jpla3shf","","","","","","","","","","","","","755","gdn","Diagnostic trial","","f","","5","0","11","false","false","true","both pre & post","RIGHT","LEFT","f","1","false","","","",""
"","html-keyboard-response","255","288228","0.0-420.0","jpla3shf","2048","1152","","","","","","","","","","","null","+","Fixation - short","","null","","","","","","","","","","","","","","","","",""
"","html-keyboard-response","256","288736","0.0-421.0","jpla3shf","","","","","","","","","","","","","507","mts","Diagnostic trial","","j","","5","1","11","false","false","false","both pre & post","LEFT","RIGHT","j","1","false","","","",""
"","html-keyboard-response","257","289488","0.0-424.0","jpla3shf","2048","1152","","","","","","","","","","","null","+","Fixation - short","","null","","","","","","","","","","","","","","","","",""
"","html-keyboard-response","258","289951","0.0-425.0","jpla3shf","","","","","","","","","","","","","463","gdn","Diagnostic trial","","j","","5","2","11","false","false","false","both pre & post","RIGHT","RIGHT","j","1","true","","","",""
"","html-keyboard-response","259","290702","0.0-428.0","jpla3shf","2048","1152","","","","","","","","","","","null","+","Fixation - short","","null","","","","","","","","","","","","","","","","",""
"","html-keyboard-response","260","291233","0.0-429.0","jpla3shf","","","","","","","","","","","","","530","gdn","Diagnostic trial","","f","","5","3","11","false","false","true","both pre & post","RIGHT","LEFT","f","1","false","","","",""
"","html-keyboard-response","261","291985","0.0-432.0","jpla3shf","2048","1152","","","","","","","","","","","null","+","Fixation - short","","null","","","","","","","","","","","","","","","","",""
"","html-keyboard-response","262","292628","0.0-433.0","jpla3shf","","","","","","","","","","","","","642","gdn","Diagnostic trial","","f","","5","4","11","false","false","true","both pre & post","RIGHT","LEFT","f","1","false","","","",""
"","html-keyboard-response","263","293380","0.0-436.0","jpla3shf","2048","1152","","","","","","","","","","","null","+","Fixation - short","","null","","","","","","","","","","","","","","","","",""
"","html-keyboard-response","264","293798","0.0-437.0","jpla3shf","","","","","","","","","","","","","417","gdn","Diagnostic trial","","f","","5","5","11","false","false","true","both pre & post","RIGHT","LEFT","f","1","false","","","",""
"","html-keyboard-response","265","294550","0.0-440.0","jpla3shf","2048","1152","","","","","","","","","","","null","+","Fixation - short","","null","","","","","","","","","","","","","","","","",""
"","html-keyboard-response","266","295104","0.0-441.0","jpla3shf","","","","","","","","","","","","","553","gdn","Diagnostic trial","","f","","5","6","11","false","false","true","both pre & post","RIGHT","LEFT","f","1","false","","","",""
"","html-keyboard-response","267","295855","0.0-444.0","jpla3shf","2048","1152","","","","","","","","","","","null","+","Fixation - short","","null","","","","","","","","","","","","","","","","",""
"","html-keyboard-response","268","296498","0.0-445.0","jpla3shf","","","","","","","","","","","","","643","gdn","Diagnostic trial","","j","","5","7","11","false","false","false","both pre & post","RIGHT","RIGHT","j","1","true","","","",""
"","html-keyboard-response","269","297250","0.0-448.0","jpla3shf","2048","1152","","","","","","","","","","","null","+","Fixation - short","","null","","","","","","","","","","","","","","","","",""
"","html-keyboard-response","270","297938","0.0-449.0","jpla3shf","","","","","","","","","","","","","688","gdn","Diagnostic trial","","f","","5","8","11","false","false","true","both pre & post","RIGHT","LEFT","f","1","false","","","",""
"","html-keyboard-response","271","298690","0.0-452.0","jpla3shf","2048","1152","","","","","","","","","","","null","+","Fixation - short","","null","","","","","","","","","","","","","","","","",""
"","html-keyboard-response","272","299581","0.0-453.0","jpla3shf","","","","","","","","","","","","","890","gdn","Diagnostic trial","","f","","5","9","11","false","false","true","both pre & post","RIGHT","LEFT","f","1","false","","","",""
"","html-keyboard-response","273","300333","0.0-456.0","jpla3shf","2048","1152","","","","","","","","","","","null","+","Fixation - short","","null","","","","","","","","","","","","","","","","",""
"","html-keyboard-response","274","300976","0.0-457.0","jpla3shf","","","","","","","","","","","","","642","mts","Diagnostic trial","","j","","5","10","11","false","false","false","both pre & post","LEFT","RIGHT","j","1","false","","","",""
"","html-keyboard-response","275","301728","0.0-460.0","jpla3shf","2048","1152","","","","","","","","","","","null","+","Fixation - short","","null","","","","","","","","","","","","","","","","",""
"","canvas-keyboard-response","276","302980","0.0-461.0","jpla3shf","","","","","","","","","","","","","null","Cue","Cue","","null","","5","10","","","false","","","","","","","","","","",""
"","html-keyboard-response","277","303732","0.0-462.0","jpla3shf","2048","1152","","","","","","","","","","","null","+","Fixation - short","","null","","","","","","","","","","","","","","","","",""
"","html-keyboard-response","278","304283","0.0-463.0","jpla3shf","","","","","","","","","","","","","551","gdn","Diagnostic trial","","j","","5","11","11","true","false","false","both pre & post","RIGHT","RIGHT","j","1","true","","","",""
"","html-keyboard-response","279","305035","0.0-466.0","jpla3shf","2048","1152","","","","","","","","","","","null","+","Fixation - short","","null","","","","","","","","","","","","","","","","",""
"","html-keyboard-response","280","305611","0.0-467.0","jpla3shf","","","","","","","","","","","","","575","mts","Diagnostic trial","","f","","5","12","11","true","false","true","both pre & post","LEFT","LEFT","f","1","true","","","",""
"","html-keyboard-response","281","306363","0.0-470.0","jpla3shf","2048","1152","","","","","","","","","","","null","+","Fixation - short","","null","","","","","","","","","","","","","","","","",""
"","html-keyboard-response","282","307276","0.0-471.0","jpla3shf","","","","","","","","","","","","","912","mts","Diagnostic trial","","j","","5","13","11","true","false","false","both pre & post","LEFT","RIGHT","j","1","false","","","",""
"","html-keyboard-response","283","308028","0.0-474.0","jpla3shf","2048","1152","","","","","","","","","","","null","+","Fixation - short","","null","","","","","","","","","","","","","","","","",""
"","html-keyboard-response","284","308648","0.0-475.0","jpla3shf","","","","","","","","","","","","","620","mts","Diagnostic trial","","f","","5","14","11","true","false","true","both pre & post","LEFT","LEFT","f","1","true","","","",""
"","html-keyboard-response","285","309400","0.0-478.0","jpla3shf","2048","1152","","","","","","","","","","","null","+","Fixation - short","","null","","","","","","","","","","","","","","","","",""
"","html-keyboard-response","286","310089","0.0-479.0","jpla3shf","","","","","","","","","","","","","688","gdn","Inducer trial","","j","","5","","","","true","","","","","j","1","","false","RIGHT","",""
"","html-keyboard-response","287","310841","0.0-482.0","jpla3shf","2048","1152","","","","","","","","","","","null","+","Fixation - short","","null","","","","","","","","","","","","","","","","",""
"","html-keyboard-response","288","312451","0.0-483.0","jpla3shf","","","","","","","","","","","","","1609","If pte press LEFT | If vib press RIGHT","Inducer instructions",""," ","","6","","","","","","","","","","","","","","",""
"","html-keyboard-response","289","313203","0.0-484.0","jpla3shf","2048","1152","","","","","","","","","","","null","+","Fixation - short","","null","","","","","","","","","","","","","","","","",""
"","html-keyboard-response","290","313936","0.0-485.0","jpla3shf","","","","","","","","","","","","","732","pte","Diagnostic trial","","f","","6","0","10","false","false","true","both pre & post","LEFT","LEFT","f","1","true","","","",""
"","html-keyboard-response","291","314688","0.0-488.0","jpla3shf","2048","1152","","","","","","","","","","","null","+","Fixation - short","","null","","","","","","","","","","","","","","","","",""
"","html-keyboard-response","292","315196","0.0-489.0","jpla3shf","","","","","","","","","","","","","507","vib","Diagnostic trial","","j","","6","1","10","false","false","false","both pre & post","RIGHT","RIGHT","j","1","true","","","",""
"","html-keyboard-response","293","315948","0.0-492.0","jpla3shf","2048","1152","","","","","","","","","","","null","+","Fixation - short","","null","","","","","","","","","","","","","","","","",""
"","html-keyboard-response","294","316501","0.0-493.0","jpla3shf","","","","","","","","","","","","","552","pte","Diagnostic trial","","f","","6","2","10","false","false","true","both pre & post","LEFT","LEFT","f","1","true","","","",""
"","html-keyboard-response","295","317253","0.0-496.0","jpla3shf","2048","1152","","","","","","","","","","","null","+","Fixation - short","","null","","","","","","","","","","","","","","","","",""
"","html-keyboard-response","296","317694","0.0-497.0","jpla3shf","","","","","","","","","","","","","440","vib","Diagnostic trial","","j","","6","3","10","false","false","false","both pre & post","RIGHT","RIGHT","j","1","true","","","",""
"","html-keyboard-response","297","318446","0.0-500.0","jpla3shf","2048","1152","","","","","","","","","","","null","+","Fixation - short","","null","","","","","","","","","","","","","","","","",""
"","html-keyboard-response","298","318909","0.0-501.0","jpla3shf","","","","","","","","","","","","","463","pte","Diagnostic trial","","f","","6","4","10","false","false","true","both pre & post","LEFT","LEFT","f","1","true","","","",""
"","html-keyboard-response","299","319661","0.0-504.0","jpla3shf","2048","1152","","","","","","","","","","","null","+","Fixation - short","","null","","","","","","","","","","","","","","","","",""
"","html-keyboard-response","300","320191","0.0-505.0","jpla3shf","","","","","","","","","","","","","530","pte","Diagnostic trial","","f","","6","5","10","false","false","true","both pre & post","LEFT","LEFT","f","1","true","","","",""
"","html-keyboard-response","301","320943","0.0-508.0","jpla3shf","2048","1152","","","","","","","","","","","null","+","Fixation - short","","null","","","","","","","","","","","","","","","","",""
"","html-keyboard-response","302","321474","0.0-509.0","jpla3shf","","","","","","","","","","","","","530","vib","Diagnostic trial","","j","","6","6","10","false","false","false","both pre & post","RIGHT","RIGHT","j","1","true","","","",""
"","html-keyboard-response","303","322226","0.0-512.0","jpla3shf","2048","1152","","","","","","","","","","","null","+","Fixation - short","","null","","","","","","","","","","","","","","","","",""
"","html-keyboard-response","304","322801","0.0-513.0","jpla3shf","","","","","","","","","","","","","575","vib","Diagnostic trial","","f","","6","7","10","false","false","true","both pre & post","RIGHT","LEFT","f","1","false","","","",""
"","html-keyboard-response","305","323553","0.0-516.0","jpla3shf","2048","1152","","","","","","","","","","","null","+","Fixation - short","","null","","","","","","","","","","","","","","","","",""
"","html-keyboard-response","306","324218","0.0-517.0","jpla3shf","","","","","","","","","","","","","665","pte","Diagnostic trial","","f","","6","8","10","false","false","true","both pre & post","LEFT","LEFT","f","1","true","","","",""
"","html-keyboard-response","307","324970","0.0-520.0","jpla3shf","2048","1152","","","","","","","","","","","null","+","Fixation - short","","null","","","","","","","","","","","","","","","","",""
"","html-keyboard-response","308","325546","0.0-521.0","jpla3shf","","","","","","","","","","","","","576","vib","Diagnostic trial","","j","","6","9","10","false","false","true","both pre & post","RIGHT","LEFT","f","0","false","","","",""
"","call-function","309","325547","0.0-523.0-0.0","jpla3shf","","","","","","","","","","","","","","","","","","","","","","","","","","","","","","","","","",""
"","html-keyboard-response","310","325848","0.0-523.0-1.0","jpla3shf","2048","1152","","","","","","","","","","","null","Wrong","Feedback","","null","","","","","","","","","","","","","","","","",""
"","call-function","311","325848","0.0-523.0-2.0","jpla3shf","","","","","","","","","","","","","","","","","","","","","","","","","","","","","","","","","",""
"","html-keyboard-response","312","326599","0.0-524.0","jpla3shf","2048","1152","","","","","","","","","","","null","+","Fixation - short","","null","","","","","","","","","","","","","","","","",""
"","canvas-keyboard-response","313","327851","0.0-525.0","jpla3shf","","","","","","","","","","","","","null","Cue","Cue","","null","","6","9","","","false","","","","","","","","","","",""
"","html-keyboard-response","314","328602","0.0-526.0","jpla3shf","2048","1152","","","","","","","","","","","null","+","Fixation - short","","null","","","","","","","","","","","","","","","","",""
"","html-keyboard-response","315","329191","0.0-527.0","jpla3shf","","","","","","","","","","","","","588","vib","Inducer trial","","j","","6","","","","true","","","","","j","1","","false","RIGHT","",""
"","html-keyboard-response","316","329943","0.0-530.0","jpla3shf","2048","1152","","","","","","","","","","","null","+","Fixation - short","","null","","","","","","","","","","","","","","","","",""
"","html-keyboard-response","317","332004","0.0-531.0","jpla3shf","","","","","","","","","","","","","2060","If jil press LEFT | If yoy press RIGHT","Inducer instructions",""," ","","7","","","","","","","","","","","","","","",""
"","html-keyboard-response","318","332755","0.0-532.0","jpla3shf","2048","1152","","","","","","","","","","","null","+","Fixation - short","","null","","","","","","","","","","","","","","","","",""
"","html-keyboard-response","319","333646","0.0-533.0","jpla3shf","","","","","","","","","","","","","891","yoy","Diagnostic trial","","j","","7","0","9","false","false","false","both pre & post","RIGHT","RIGHT","j","1","true","","","",""
"","html-keyboard-response","320","334398","0.0-536.0","jpla3shf","2048","1152","","","","","","","","","","","null","+","Fixation - short","","null","","","","","","","","","","","","","","","","",""
"","html-keyboard-response","321","334996","0.0-537.0","jpla3shf","","","","","","","","","","","","","598","yoy","Diagnostic trial","","f","","7","1","9","false","false","true","both pre & post","RIGHT","LEFT","f","1","false","","","",""
"","html-keyboard-response","322","335748","0.0-540.0","jpla3shf","2048","1152","","","","","","","","","","","null","+","Fixation - short","","null","","","","","","","","","","","","","","","","",""
"","html-keyboard-response","323","336279","0.0-541.0","jpla3shf","","","","","","","","","","","","","530","yoy","Diagnostic trial","","j","","7","2","9","false","false","false","both pre & post","RIGHT","RIGHT","j","1","true","","","",""
"","html-keyboard-response","324","337031","0.0-544.0","jpla3shf","2048","1152","","","","","","","","","","","null","+","Fixation - short","","null","","","","","","","","","","","","","","","","",""
"","html-keyboard-response","325","337832","0.0-545.0","jpla3shf","","","","","","","","","","","","","800","jil","Diagnostic trial","","f","","7","3","9","false","false","true","both pre & post","LEFT","LEFT","f","1","true","","","",""
"","html-keyboard-response","326","338583","0.0-548.0","jpla3shf","2048","1152","","","","","","","","","","","null","+","Fixation - short","","null","","","","","","","","","","","","","","","","",""
"","html-keyboard-response","327","339001","0.0-549.0","jpla3shf","","","","","","","","","","","","","418","jil","Diagnostic trial","","f","","7","4","9","false","false","false","both pre & post","LEFT","RIGHT","j","0","false","","","",""
"","call-function","328","339002","0.0-551.0-0.0","jpla3shf","","","","","","","","","","","","","","","","","","","","","","","","","","","","","","","","","",""
"","html-keyboard-response","329","339303","0.0-551.0-1.0","jpla3shf","2048","1152","","","","","","","","","","","null","Wrong","Feedback","","null","","","","","","","","","","","","","","","","",""
"","call-function","330","339303","0.0-551.0-2.0","jpla3shf","","","","","","","","","","","","","","","","","","","","","","","","","","","","","","","","","",""
"","html-keyboard-response","331","340055","0.0-552.0","jpla3shf","2048","1152","","","","","","","","","","","null","+","Fixation - short","","null","","","","","","","","","","","","","","","","",""
"","html-keyboard-response","332","340666","0.0-553.0","jpla3shf","","","","","","","","","","","","","611","jil","Diagnostic trial","","j","","7","5","9","false","false","false","both pre & post","LEFT","RIGHT","j","1","false","","","",""
"","html-keyboard-response","333","341418","0.0-556.0","jpla3shf","2048","1152","","","","","","","","","","","null","+","Fixation - short","","null","","","","","","","","","","","","","","","","",""
"","html-keyboard-response","334","341971","0.0-557.0","jpla3shf","","","","","","","","","","","","","553","jil","Diagnostic trial","","f","","7","6","9","false","false","true","both pre & post","LEFT","LEFT","f","1","true","","","",""
"","html-keyboard-response","335","342723","0.0-560.0","jpla3shf","2048","1152","","","","","","","","","","","null","+","Fixation - short","","null","","","","","","","","","","","","","","","","",""
"","html-keyboard-response","336","343321","0.0-561.0","jpla3shf","","","","","","","","","","","","","598","jil","Diagnostic trial","","j","","7","7","9","false","false","false","both pre & post","LEFT","RIGHT","j","1","false","","","",""
"","html-keyboard-response","337","344073","0.0-564.0","jpla3shf","2048","1152","","","","","","","","","","","null","+","Fixation - short","","null","","","","","","","","","","","","","","","","",""
"","html-keyboard-response","338","344694","0.0-565.0","jpla3shf","","","","","","","","","","","","","620","jil","Diagnostic trial","","j","","7","8","9","false","false","false","both pre & post","LEFT","RIGHT","j","1","false","","","",""
"","html-keyboard-response","339","345445","0.0-568.0","jpla3shf","2048","1152","","","","","","","","","","","null","+","Fixation - short","","null","","","","","","","","","","","","","","","","",""
"","canvas-keyboard-response","340","346697","0.0-569.0","jpla3shf","","","","","","","","","","","","","null","Cue","Cue","","null","","7","8","","","false","","","","","","","","","","",""
"","html-keyboard-response","341","347448","0.0-570.0","jpla3shf","2048","1152","","","","","","","","","","","null","+","Fixation - short","","null","","","","","","","","","","","","","","","","",""
"","html-keyboard-response","342","348361","0.0-571.0","jpla3shf","","","","","","","","","","","","","913","yoy","Diagnostic trial","","j","","7","9","9","true","false","false","both pre & post","RIGHT","RIGHT","j","1","true","","","",""
"","html-keyboard-response","343","349113","0.0-574.0","jpla3shf","2048","1152","","","","","","","","","","","null","+","Fixation - short","","null","","","","","","","","","","","","","","","","",""
"","html-keyboard-response","344","349621","0.0-575.0","jpla3shf","","","","","","","","","","","","","508","yoy","Diagnostic trial","","f","","7","10","9","true","false","true","both pre & post","RIGHT","LEFT","f","1","false","","","",""
"","html-keyboard-response","345","350373","0.0-578.0","jpla3shf","2048","1152","","","","","","","","","","","null","+","Fixation - short","","null","","","","","","","","","","","","","","","","",""
"","html-keyboard-response","346","350814","0.0-579.0","jpla3shf","","","","","","","","","","","","","439","yoy","Diagnostic trial","","j","","7","11","9","true","false","true","both pre & post","RIGHT","LEFT","f","0","false","","","",""
"","call-function","347","350815","0.0-581.0-0.0","jpla3shf","","","","","","","","","","","","","","","","","","","","","","","","","","","","","","","","","",""
"","html-keyboard-response","348","351116","0.0-581.0-1.0","jpla3shf","2048","1152","","","","","","","","","","","null","Wrong","Feedback","","null","","","","","","","","","","","","","","","","",""
"","call-function","349","351117","0.0-581.0-2.0","jpla3shf","","","","","","","","","","","","","","","","","","","","","","","","","","","","","","","","","",""
"","html-keyboard-response","350","351867","0.0-582.0","jpla3shf","2048","1152","","","","","","","","","","","null","+","Fixation - short","","null","","","","","","","","","","","","","","","","",""
"","html-keyboard-response","351","352625","0.0-583.0","jpla3shf","","","","","","","","","","","","","757","yoy","Diagnostic trial","","j","","7","12","9","true","false","false","both pre & post","RIGHT","RIGHT","j","1","true","","","",""
"","html-keyboard-response","352","353377","0.0-586.0","jpla3shf","2048","1152","","","","","","","","","","","null","+","Fixation - short","","null","","","","","","","","","","","","","","","","",""
"","html-keyboard-response","353","354200","0.0-587.0","jpla3shf","","","","","","","","","","","","","822","yoy","Inducer trial","","f","","7","","","","true","","","","","j","0","","false","RIGHT","",""
"","call-function","354","354200","0.0-589.0-0.0","jpla3shf","","","","","","","","","","","","","","","","","","","","","","","","","","","","","","","","","",""
"","html-keyboard-response","355","354502","0.0-589.0-1.0","jpla3shf","2048","1152","","","","","","","","","","","null","Wrong","Feedback","","null","","","","","","","","","","","","","","","","",""
"","call-function","356","354502","0.0-589.0-2.0","jpla3shf","","","","","","","","","","","","","","","","","","","","","","","","","","","","","","","","","",""
"","html-keyboard-response","357","355253","0.0-590.0","jpla3shf","2048","1152","","","","","","","","","","","null","+","Fixation - short","","null","","","","","","","","","","","","","","","","",""
"","html-keyboard-response","358","357305","0.0-591.0","jpla3shf","","","","","","","","","","","","","2052","If dgv press LEFT | If saj press RIGHT","Inducer instructions",""," ","","8","","","","","","","","","","","","","","",""
"","html-keyboard-response","359","358057","0.0-592.0","jpla3shf","2048","1152","","","","","","","","","","","null","+","Fixation - short","","null","","","","","","","","","","","","","","","","",""
"","html-keyboard-response","360","359285","0.0-593.0","jpla3shf","","","","","","","","","","","","","1228","saj","Diagnostic trial","","f","","8","0","5","false","false","true","both pre & post","RIGHT","LEFT","f","1","false","","","",""
"","html-keyboard-response","361","360037","0.0-596.0","jpla3shf","2048","1152","","","","","","","","","","","null","+","Fixation - short","","null","","","","","","","","","","","","","","","","",""
"","html-keyboard-response","362","360455","0.0-597.0","jpla3shf","","","","","","","","","","","","","418","dgv","Diagnostic trial","","j","","8","1","5","false","false","false","both pre & post","LEFT","RIGHT","j","1","false","","","",""
"","html-keyboard-response","363","361207","0.0-600.0","jpla3shf","2048","1152","","","","","","","","","","","null","+","Fixation - short","","null","","","","","","","","","","","","","","","","",""
"","html-keyboard-response","364","361872","0.0-601.0","jpla3shf","","","","","","","","","","","","","665","dgv","Diagnostic trial","","f","","8","2","5","false","false","true","both pre & post","LEFT","LEFT","f","1","true","","","",""
"","html-keyboard-response","365","362624","0.0-604.0","jpla3shf","2048","1152","","","","","","","","","","","null","+","Fixation - short","","null","","","","","","","","","","","","","","","","",""
"","html-keyboard-response","366","363380","0.0-605.0","jpla3shf","","","","","","","","","","","","","755","saj","Diagnostic trial","","j","","8","3","5","false","false","false","both pre & post","RIGHT","RIGHT","j","1","true","","","",""
"","html-keyboard-response","367","364132","0.0-608.0","jpla3shf","2048","1152","","","","","","","","","","","null","+","Fixation - short","","null","","","","","","","","","","","","","","","","",""
"","html-keyboard-response","368","364820","0.0-609.0","jpla3shf","","","","","","","","","","","","","688","dgv","Diagnostic trial","","f","","8","4","5","false","false","true","both pre & post","LEFT","LEFT","f","1","true","","","",""
"","html-keyboard-response","369","365572","0.0-612.0","jpla3shf","2048","1152","","","","","","","","","","","null","+","Fixation - short","","null","","","","","","","","","","","","","","","","",""
"","canvas-keyboard-response","370","366824","0.0-613.0","jpla3shf","","","","","","","","","","","","","null","Cue","Cue","","null","","8","4","","","false","","","","","","","","","","",""
"","html-keyboard-response","371","367576","0.0-614.0","jpla3shf","2048","1152","","","","","","","","","","","null","+","Fixation - short","","null","","","","","","","","","","","","","","","","",""
"","html-keyboard-response","372","368375","0.0-615.0","jpla3shf","","","","","","","","","","","","","799","dgv","Diagnostic trial","","j","","8","5","5","true","false","false","both pre & post","LEFT","RIGHT","j","1","false","","","",""
"","html-keyboard-response","373","369127","0.0-618.0","jpla3shf","2048","1152","","","","","","","","","","","null","+","Fixation - short","","null","","","","","","","","","","","","","","","","",""
"","html-keyboard-response","374","369928","0.0-619.0","jpla3shf","","","","","","","","","","","","","799","saj","Diagnostic trial","","j","","8","6","5","true","false","false","both pre & post","RIGHT","RIGHT","j","1","true","","","",""
"","html-keyboard-response","375","370679","0.0-622.0","jpla3shf","2048","1152","","","","","","","","","","","null","+","Fixation - short","","null","","","","","","","","","","","","","","","","",""
"","html-keyboard-response","376","371278","0.0-623.0","jpla3shf","","","","","","","","","","","","","597","saj","Inducer trial","","j","","8","","","","true","","","","","j","1","","false","RIGHT","",""
"","html-keyboard-response","377","372029","0.0-626.0","jpla3shf","2048","1152","","","","","","","","","","","null","+","Fixation - short","","null","","","","","","","","","","","","","","","","",""
"","html-keyboard-response","378","373888","0.0-627.0","jpla3shf","","","","","","","","","","","","","1858","If uen press LEFT | If ndm press RIGHT","Inducer instructions",""," ","","9","","","","","","","","","","","","","","",""
"","html-keyboard-response","379","374640","0.0-628.0","jpla3shf","2048","1152","","","","","","","","","","","null","+","Fixation - short","","null","","","","","","","","","","","","","","","","",""
"","html-keyboard-response","380","375193","0.0-629.0","jpla3shf","","","","","","","","","","","","","553","ndm","Diagnostic trial","","j","","9","0","4","false","false","false","both pre & post","RIGHT","RIGHT","j","1","true","","","",""
"","html-keyboard-response","381","375945","0.0-632.0","jpla3shf","2048","1152","","","","","","","","","","","null","+","Fixation - short","","null","","","","","","","","","","","","","","","","",""
"","html-keyboard-response","382","376520","0.0-633.0","jpla3shf","","","","","","","","","","","","","575","uen","Diagnostic trial","","j","","9","1","4","false","false","false","both pre & post","LEFT","RIGHT","j","1","false","","","",""
"","html-keyboard-response","383","377272","0.0-636.0","jpla3shf","2048","1152","","","","","","","","","","","null","+","Fixation - short","","null","","","","","","","","","","","","","","","","",""
"","html-keyboard-response","384","377690","0.0-637.0","jpla3shf","","","","","","","","","","","","","417","uen","Diagnostic trial","","f","","9","2","4","false","false","true","both pre & post","LEFT","LEFT","f","1","true","","","",""
"","html-keyboard-response","385","378442","0.0-640.0","jpla3shf","2048","1152","","","","","","","","","","","null","+","Fixation - short","","null","","","","","","","","","","","","","","","","",""
"","html-keyboard-response","386","378950","0.0-641.0","jpla3shf","","","","","","","","","","","","","507","uen","Diagnostic trial","","j","","9","3","4","false","false","false","both pre & post","LEFT","RIGHT","j","1","false","","","",""
"","html-keyboard-response","387","379702","0.0-644.0","jpla3shf","2048","1152","","","","","","","","","","","null","+","Fixation - short","","null","","","","","","","","","","","","","","","","",""
"","canvas-keyboard-response","388","380955","0.0-645.0","jpla3shf","","","","","","","","","","","","","null","Cue","Cue","","null","","9","3","","","false","","","","","","","","","","",""
"","html-keyboard-response","389","381705","0.0-646.0","jpla3shf","2048","1152","","","","","","","","","","","null","+","Fixation - short","","null","","","","","","","","","","","","","","","","",""
"","html-keyboard-response","390","382280","0.0-647.0","jpla3shf","","","","","","","","","","","","","574","uen","Diagnostic trial","","j","","9","4","4","true","false","false","both pre & post","LEFT","RIGHT","j","1","false","","","",""
"","html-keyboard-response","391","383032","0.0-650.0","jpla3shf","2048","1152","","","","","","","","","","","null","+","Fixation - short","","null","","","","","","","","","","","","","","","","",""
"","html-keyboard-response","392","384170","0.0-651.0","jpla3shf","","","","","","","","","","","","","1137","ndm","Inducer trial","","j","","9","","","","true","","","","","j","1","","false","RIGHT","",""
"","html-keyboard-response","393","384922","0.0-654.0","jpla3shf","2048","1152","","","","","","","","","","","null","+","Fixation - short","","null","","","","","","","","","","","","","","","","",""
"","html-keyboard-response","394","386556","0.0-655.0","jpla3shf","","","","","","","","","","","","","1632","If ori press LEFT | If imm press RIGHT","Inducer instructions",""," ","","10","","","","","","","","","","","","","","",""
"","html-keyboard-response","395","387307","0.0-656.0","jpla3shf","2048","1152","","","","","","","","","","","null","+","Fixation - short","","null","","","","","","","","","","","","","","","","",""
"","html-keyboard-response","396","387883","0.0-657.0","jpla3shf","","","","","","","","","","","","","575","imm","Diagnostic trial","","j","","10","0","4","false","false","false","both pre & post","RIGHT","RIGHT","j","1","true","","","",""
"","html-keyboard-response","397","388635","0.0-660.0","jpla3shf","2048","1152","","","","","","","","","","","null","+","Fixation - short","","null","","","","","","","","","","","","","","","","",""
"","html-keyboard-response","398","389199","0.0-661.0","jpla3shf","","","","","","","","","","","","","563","imm","Diagnostic trial","","j","","10","1","4","false","false","false","both pre & post","RIGHT","RIGHT","j","1","true","","","",""
"","html-keyboard-response","399","389951","0.0-664.0","jpla3shf","2048","1152","","","","","","","","","","","null","+","Fixation - short","","null","","","","","","","","","","","","","","","","",""
"","html-keyboard-response","400","390594","0.0-665.0","jpla3shf","","","","","","","","","","","","","642","imm","Diagnostic trial","","f","","10","2","4","false","false","true","both pre & post","RIGHT","LEFT","f","1","false","","","",""
"","html-keyboard-response","401","391346","0.0-668.0","jpla3shf","2048","1152","","","","","","","","","","","null","+","Fixation - short","","null","","","","","","","","","","","","","","","","",""
"","html-keyboard-response","402","392034","0.0-669.0","jpla3shf","","","","","","","","","","","","","688","imm","Diagnostic trial","","f","","10","3","4","false","false","true","both pre & post","RIGHT","LEFT","f","1","false","","","",""
"","html-keyboard-response","403","392786","0.0-672.0","jpla3shf","2048","1152","","","","","","","","","","","null","+","Fixation - short","","null","","","","","","","","","","","","","","","","",""
"","canvas-keyboard-response","404","394038","0.0-673.0","jpla3shf","","","","","","","","","","","","","null","Cue","Cue","","null","","10","3","","","false","","","","","","","","","","",""
"","html-keyboard-response","405","394790","0.0-674.0","jpla3shf","2048","1152","","","","","","","","","","","null","+","Fixation - short","","null","","","","","","","","","","","","","","","","",""
"","html-keyboard-response","406","395555","0.0-675.0","jpla3shf","","","","","","","","","","","","","765","ori","Diagnostic trial","","f","","10","4","4","true","false","true","both pre & post","LEFT","LEFT","f","1","true","","","",""
"","html-keyboard-response","407","396307","0.0-678.0","jpla3shf","2048","1152","","","","","","","","","","","null","+","Fixation - short","","null","","","","","","","","","","","","","","","","",""
"","html-keyboard-response","408","396838","0.0-679.0","jpla3shf","","","","","","","","","","","","","530","imm","Diagnostic trial","","f","","10","5","4","true","false","true","both pre & post","RIGHT","LEFT","f","1","false","","","",""
"","html-keyboard-response","409","397590","0.0-682.0","jpla3shf","2048","1152","","","","","","","","","","","null","+","Fixation - short","","null","","","","","","","","","","","","","","","","",""
"","html-keyboard-response","410","398188","0.0-683.0","jpla3shf","","","","","","","","","","","","","597","ori","Diagnostic trial","","f","","10","6","4","true","false","false","both pre & post","LEFT","RIGHT","j","0","false","","","",""
"","call-function","411","398189","0.0-685.0-0.0","jpla3shf","","","","","","","","","","","","","","","","","","","","","","","","","","","","","","","","","",""
"","html-keyboard-response","412","398490","0.0-685.0-1.0","jpla3shf","2048","1152","","","","","","","","","","","null","Wrong","Feedback","","null","","","","","","","","","","","","","","","","",""
"","call-function","413","398491","0.0-685.0-2.0","jpla3shf","","","","","","","","","","","","","","","","","","","","","","","","","","","","","","","","","",""
"","html-keyboard-response","414","399242","0.0-686.0","jpla3shf","2048","1152","","","","","","","","","","","null","+","Fixation - short","","null","","","","","","","","","","","","","","","","",""
"","html-keyboard-response","415","399921","0.0-687.0","jpla3shf","","","","","","","","","","","","","678","imm","Diagnostic trial","","f","","10","7","4","true","false","true","both pre & post","RIGHT","LEFT","f","1","false","","","",""
"","html-keyboard-response","416","400672","0.0-690.0","jpla3shf","2048","1152","","","","","","","","","","","null","+","Fixation - short","","null","","","","","","","","","","","","","","","","",""
"","html-keyboard-response","417","401405","0.0-691.0","jpla3shf","","","","","","","","","","","","","734","imm","Inducer trial","","j","","10","","","","true","","","","","j","1","","false","RIGHT","",""
"","html-keyboard-response","418","402157","0.0-694.0","jpla3shf","2048","1152","","","","","","","","","","","null","+","Fixation - short","","null","","","","","","","","","","","","","","","","",""
"","html-keyboard-response","419","404263","0.0-695.0","jpla3shf","","","","","","","","","","","","","2105","If otr press LEFT | If mvv press RIGHT","Inducer instructions",""," ","","11","","","","","","","","","","","","","","",""
"","html-keyboard-response","420","405015","0.0-696.0","jpla3shf","2048","1152","","","","","","","","","","","null","+","Fixation - short","","null","","","","","","","","","","","","","","","","",""
"","html-keyboard-response","421","405995","0.0-697.0","jpla3shf","","","","","","","","","","","","","980","otr","Diagnostic trial","","j","","11","0","7","false","false","false","both pre & post","LEFT","RIGHT","j","1","false","","","",""
"","html-keyboard-response","422","406747","0.0-700.0","jpla3shf","2048","1152","","","","","","","","","","","null","+","Fixation - short","","null","","","","","","","","","","","","","","","","",""
"","html-keyboard-response","423","407368","0.0-701.0","jpla3shf","","","","","","","","","","","","","620","mvv","Diagnostic trial","","j","","11","1","7","false","false","false","both pre & post","RIGHT","RIGHT","j","1","true","","","",""
"","html-keyboard-response","424","408120","0.0-704.0","jpla3shf","2048","1152","","","","","","","","","","","null","+","Fixation - short","","null","","","","","","","","","","","","","","","","",""
"","html-keyboard-response","425","410121","0.0-705.0","jpla3shf","","","","","","","","","","","","","null","mvv","Diagnostic trial","","null","","11","2","7","false","false","true","both pre & post","RIGHT","LEFT","f","NaN","false","","","",""
"","call-function","426","410122","0.0-706.0-0.0","jpla3shf","","","","","","","","","","","","","","","","","","","","","","","","","","","","","","","","","",""
"","html-keyboard-response","427","410423","0.0-706.0-1.0","jpla3shf","2048","1152","","","","","","","","","","","null","Slow","Feedback","","null","","","","","","","","","","","","","","","","",""
"","call-function","428","410424","0.0-706.0-2.0","jpla3shf","","","","","","","","","","","","","","","","","","","","","","","","","","","","","","","","","",""
"","html-keyboard-response","429","411175","0.0-708.0","jpla3shf","2048","1152","","","","","","","","","","","null","+","Fixation - short","","null","","","","","","","","","","","","","","","","",""
"","html-keyboard-response","430","412565","0.0-709.0","jpla3shf","","","","","","","","","","","","","1390","mvv","Diagnostic trial","","f","","11","3","7","false","false","true","both pre & post","RIGHT","LEFT","f","1","false","","","",""
"","html-keyboard-response","431","413317","0.0-712.0","jpla3shf","2048","1152","","","","","","","","","","","null","+","Fixation - short","","null","","","","","","","","","","","","","","","","",""
"","html-keyboard-response","432","413871","0.0-713.0","jpla3shf","","","","","","","","","","","","","553","mvv","Diagnostic trial","","f","","11","4","7","false","false","true","both pre & post","RIGHT","LEFT","f","1","false","","","",""
"","html-keyboard-response","433","414623","0.0-716.0","jpla3shf","2048","1152","","","","","","","","","","","null","+","Fixation - short","","null","","","","","","","","","","","","","","","","",""
"","html-keyboard-response","434","415310","0.0-717.0","jpla3shf","","","","","","","","","","","","","688","otr","Diagnostic trial","","j","","11","5","7","false","false","false","both pre & post","LEFT","RIGHT","j","1","false","","","",""
"","html-keyboard-response","435","416062","0.0-720.0","jpla3shf","2048","1152","","","","","","","","","","","null","+","Fixation - short","","null","","","","","","","","","","","","","","","","",""
"","html-keyboard-response","436","416638","0.0-721.0","jpla3shf","","","","","","","","","","","","","575","otr","Diagnostic trial","","f","","11","6","7","false","false","true","both pre & post","LEFT","LEFT","f","1","true","","","",""
"","html-keyboard-response","437","417390","0.0-724.0","jpla3shf","2048","1152","","","","","","","","","","","null","+","Fixation - short","","null","","","","","","","","","","","","","","","","",""
"","canvas-keyboard-response","438","418642","0.0-725.0","jpla3shf","","","","","","","","","","","","","null","Cue","Cue","","null","","11","6","","","false","","","","","","","","","","",""
"","html-keyboard-response","439","419394","0.0-726.0","jpla3shf","2048","1152","","","","","","","","","","","null","+","Fixation - short","","null","","","","","","","","","","","","","","","","",""
"","html-keyboard-response","440","420035","0.0-727.0","jpla3shf","","","","","","","","","","","","","642","otr","Diagnostic trial","","j","","11","7","7","true","false","false","both pre & post","LEFT","RIGHT","j","1","false","","","",""
"","html-keyboard-response","441","420787","0.0-730.0","jpla3shf","2048","1152","","","","","","","","","","","null","+","Fixation - short","","null","","","","","","","","","","","","","","","","",""
"","html-keyboard-response","442","421340","0.0-731.0","jpla3shf","","","","","","","","","","","","","553","otr","Diagnostic trial","","f","","11","8","7","true","false","true","both pre & post","LEFT","LEFT","f","1","true","","","",""
"","html-keyboard-response","443","422092","0.0-734.0","jpla3shf","2048","1152","","","","","","","","","","","null","+","Fixation - short","","null","","","","","","","","","","","","","","","","",""
"","html-keyboard-response","444","422601","0.0-735.0","jpla3shf","","","","","","","","","","","","","508","otr","Diagnostic trial","","f","","11","9","7","true","false","true","both pre & post","LEFT","LEFT","f","1","true","","","",""
"","html-keyboard-response","445","423352","0.0-738.0","jpla3shf","2048","1152","","","","","","","","","","","null","+","Fixation - short","","null","","","","","","","","","","","","","","","","",""
"","html-keyboard-response","446","424176","0.0-739.0","jpla3shf","","","","","","","","","","","","","823","otr","Inducer trial","","f","","11","","","","true","","","","","f","1","","false","LEFT","",""
"","html-keyboard-response","447","424927","0.0-742.0","jpla3shf","2048","1152","","","","","","","","","","","null","+","Fixation - short","","null","","","","","","","","","","","","","","","","",""
"","html-keyboard-response","448","427056","0.0-743.0","jpla3shf","","","","","","","","","","","","","2128","If xlv press LEFT | If iei press RIGHT","Inducer instructions",""," ","","12","","","","","","","","","","","","","","",""
"","html-keyboard-response","449","427808","0.0-744.0","jpla3shf","2048","1152","","","","","","","","","","","null","+","Fixation - short","","null","","","","","","","","","","","","","","","","",""
"","html-keyboard-response","450","429351","0.0-745.0","jpla3shf","","","","","","","","","","","","","1543","iei","Diagnostic trial","","j","","12","0","4","false","false","false","both pre & post","RIGHT","RIGHT","j","1","true","","","",""
"","html-keyboard-response","451","430102","0.0-748.0","jpla3shf","2048","1152","","","","","","","","","","","null","+","Fixation - short","","null","","","","","","","","","","","","","","","","",""
"","html-keyboard-response","452","430633","0.0-749.0","jpla3shf","","","","","","","","","","","","","531","xlv","Diagnostic trial","","f","","12","1","4","false","false","true","both pre & post","LEFT","LEFT","f","1","true","","","",""
"","html-keyboard-response","453","431385","0.0-752.0","jpla3shf","2048","1152","","","","","","","","","","","null","+","Fixation - short","","null","","","","","","","","","","","","","","","","",""
"","html-keyboard-response","454","431983","0.0-753.0","jpla3shf","","","","","","","","","","","","","598","xlv","Diagnostic trial","","j","","12","2","4","false","false","false","both pre & post","LEFT","RIGHT","j","1","false","","","",""
"","html-keyboard-response","455","432735","0.0-756.0","jpla3shf","2048","1152","","","","","","","","","","","null","+","Fixation - short","","null","","","","","","","","","","","","","","","","",""
"","html-keyboard-response","456","433536","0.0-757.0","jpla3shf","","","","","","","","","","","","","800","iei","Diagnostic trial","","j","","12","3","4","false","false","false","both pre & post","RIGHT","RIGHT","j","1","true","","","",""
"","html-keyboard-response","457","434288","0.0-760.0","jpla3shf","2048","1152","","","","","","","","","","","null","+","Fixation - short","","null","","","","","","","","","","","","","","","","",""
"","canvas-keyboard-response","458","435540","0.0-761.0","jpla3shf","","","","","","","","","","","","","null","Cue","Cue","","null","","12","3","","","false","","","","","","","","","","",""
"","html-keyboard-response","459","436292","0.0-762.0","jpla3shf","2048","1152","","","","","","","","","","","null","+","Fixation - short","","null","","","","","","","","","","","","","","","","",""
