"value","trial_type","trial_index","time_elapsed","internal_node_id","id","width","height","webaudio","browser","browser_version","mobile","os","fullscreen","vsync_rate","webcam","microphone","view_history","rt","stimulus","trial_info","success","response","exp_parameters","inducer_run","diagnostic_run","cue_num","post_cue","inducer_trial","italic","forced_equal_run","correct_inducer_response_side","correct_diag_response_side","correct_response_key","correct_response","congruent","force_equal","correct_indu_response_side","accuracy","interactive"
"","call-function","0","1","0.0-0.0","yfpp9st5","","","","","","","","","","","","","","","","","","","","","","","","","","","","","","","","","",""
"","browser-check","1","1008","0.0-1.0","yfpp9st5","1440","720","true","safari","17.4.0","false","Mac OS","true","60","true","true","","","","","","","","","","","","","","","","","","","","","","",""
"","instructions","2","58594","0.0-2.0","yfpp9st5","","","","","","","","","","","","[{""page_index"":0,""viewing_time"":20931},{""page_index"":1,""viewing_time"":31592},{""page_index"":2,""viewing_time"":5062}]","57586","The experiment and consent","The experiment and consent","","","","","","","","","","","","","","","","","","",""
"","fullscreen","3","62715","0.0-3.0","yfpp9st5","","","","","","","","","","","","","3115","","Full screen","true","","","","","","","","","","","","","","","","","",""
"","instructions","4","94798","0.0-4.0","yfpp9st5","","","","","","","","","","","","[{""page_index"":0,""viewing_time"":20410},{""page_index"":1,""viewing_time"":11672}]","32082","Instructions","Basic overview explanation","","","","","","","","","","","","","","","","","","",""
"","html-keyboard-response","5","107975","0.0-5.0","yfpp9st5","","","","","","","","","","","","","11671","If italic press RIGHT | If upright press LEFT","Diagnostic instructions",""," ","{""debug"":false,""skip_instructions"":false,""skip_practice"":false,""save_local_data"":false,""studu_name"":""exp2"",""default_background_colour"":""#cccccc"",""wrong_response_colour"":""#d22d2d"",""instruction_delay"":20000,""trial_duration"":2000,""short_fixation"":750,""long_fixation"":1500,""wrong_response_delay"":300,""too_slow_delay"":300,""instruction_font_size"":""24px"",""general_font_size"":""42px"",""fixation_size"":""48px"",""allowed_responses"":[""f"",""j""],""cue_min_length"":0,""cue_max_length"":4,""tot_post_cue_len"":72,""cue_colour"":""blue"",""cue_shape"":""Circle"",""cue_size"":70,""cue_duration"":1250,""avg_number_of_cues"":3,""inducer_colour"":""yellow"",""number_of_inducers"":24,""pre_cue_italic_forced_equal"":true,""post_cue_italic_forced_equal"":true,""prac_diagnostic_rounds"":16,""prac_inducer_rounds"":6,""prac_cue_rounds"":16,""prac_post_cue_num"":3}","","","","","","","","","","","","","","","",""
"","html-keyboard-response","6","108729","0.0-6.0","yfpp9st5","1440","900","","","","","","","","","","","null","+","Fixation - short","","null","","","","","","","","","","","","","","","","",""
"","html-keyboard-response","7","112239","0.0-7.0","yfpp9st5","","","","","","","","","","","","","3507","dpa","Diagnostic practice","","f","","Diagnostic practice","0","-84","true","false","false","prac equal","LEFT","LEFT","f","1","true","","","",""
"","html-keyboard-response","8","112993","0.0-10.0","yfpp9st5","1440","900","","","","","","","","","","","null","+","Fixation - short","","null","","","","","","","","","","","","","","","","",""
"","html-keyboard-response","9","115766","0.0-11.0","yfpp9st5","","","","","","","","","","","","","2770","dpa","Diagnostic practice","","f","","Diagnostic practice","1","-84","true","false","false","prac equal","LEFT","LEFT","f","1","true","","","",""
"","html-keyboard-response","10","116520","0.0-14.0","yfpp9st5","1440","900","","","","","","","","","","","null","+","Fixation - short","","null","","","","","","","","","","","","","","","","",""
"","html-keyboard-response","11","123251","0.0-15.0","yfpp9st5","","","","","","","","","","","","","6729","dpa","Diagnostic practice","","f","","Diagnostic practice","2","-84","true","false","true","prac equal","LEFT","RIGHT","j","0","false","","","",""
"","call-function","12","123253","0.0-17.0-0.0","yfpp9st5","","","","","","","","","","","","","","","","","","","","","","","","","","","","","","","","","",""
"","html-keyboard-response","13","123556","0.0-17.0-1.0","yfpp9st5","1440","900","","","","","","","","","","","null","Wrong","Feedback","","null","","","","","","","","","","","","","","","","",""
"","call-function","14","123557","0.0-17.0-2.0","yfpp9st5","","","","","","","","","","","","","","","","","","","","","","","","","","","","","","","","","",""
"","html-keyboard-response","15","124310","0.0-18.0","yfpp9st5","1440","900","","","","","","","","","","","null","+","Fixation - short","","null","","","","","","","","","","","","","","","","",""
"","html-keyboard-response","16","135089","0.0-19.0","yfpp9st5","","","","","","","","","","","","","10776","dpa","Diagnostic practice","","j","","Diagnostic practice","3","-84","true","false","true","prac equal","LEFT","RIGHT","j","1","false","","","",""
"","html-keyboard-response","17","135842","0.0-22.0","yfpp9st5","1440","900","","","","","","","","","","","null","+","Fixation - short","","null","","","","","","","","","","","","","","","","",""
"","html-keyboard-response","18","137146","0.0-23.0","yfpp9st5","","","","","","","","","","","","","1301","dpa","Diagnostic practice","","j","","Diagnostic practice","4","-84","true","false","true","prac equal","LEFT","RIGHT","j","1","false","","","",""
"","html-keyboard-response","19","137899","0.0-26.0","yfpp9st5","1440","900","","","","","","","","","","","null","+","Fixation - short","","null","","","","","","","","","","","","","","","","",""
"","html-keyboard-response","20","138962","0.0-27.0","yfpp9st5","","","","","","","","","","","","","1061","mda","Diagnostic practice","","f","","Diagnostic practice","5","-84","true","false","false","prac equal","RIGHT","LEFT","f","1","false","","","",""
"","html-keyboard-response","21","139716","0.0-30.0","yfpp9st5","1440","900","","","","","","","","","","","null","+","Fixation - short","","null","","","","","","","","","","","","","","","","",""
"","html-keyboard-response","22","140442","0.0-31.0","yfpp9st5","","","","","","","","","","","","","724","mda","Diagnostic practice","","f","","Diagnostic practice","6","-84","true","false","false","prac equal","RIGHT","LEFT","f","1","false","","","",""
"","html-keyboard-response","23","141195","0.0-34.0","yfpp9st5","1440","900","","","","","","","","","","","null","+","Fixation - short","","null","","","","","","","","","","","","","","","","",""
"","html-keyboard-response","24","141975","0.0-35.0","yfpp9st5","","","","","","","","","","","","","777","mda","Diagnostic practice","","j","","Diagnostic practice","7","-84","true","false","true","prac equal","RIGHT","RIGHT","j","1","true","","","",""
"","html-keyboard-response","25","142728","0.0-38.0","yfpp9st5","1440","900","","","","","","","","","","","null","+","Fixation - short","","null","","","","","","","","","","","","","","","","",""
"","html-keyboard-response","26","143712","0.0-39.0","yfpp9st5","","","","","","","","","","","","","981","dpa","Diagnostic practice","","j","","Diagnostic practice","8","-84","true","false","true","prac equal","LEFT","RIGHT","j","1","false","","","",""
"","html-keyboard-response","27","144465","0.0-42.0","yfpp9st5","1440","900","","","","","","","","","","","null","+","Fixation - short","","null","","","","","","","","","","","","","","","","",""
"","html-keyboard-response","28","145021","0.0-43.0","yfpp9st5","","","","","","","","","","","","","555","dpa","Diagnostic practice","","f","","Diagnostic practice","9","-84","true","false","false","prac equal","LEFT","LEFT","f","1","true","","","",""
"","html-keyboard-response","29","145775","0.0-46.0","yfpp9st5","1440","900","","","","","","","","","","","null","+","Fixation - short","","null","","","","","","","","","","","","","","","","",""
"","html-keyboard-response","30","146474","0.0-47.0","yfpp9st5","","","","","","","","","","","","","697","dpa","Diagnostic practice","","f","","Diagnostic practice","10","-84","true","false","false","prac equal","LEFT","LEFT","f","1","true","","","",""
"","html-keyboard-response","31","147227","0.0-50.0","yfpp9st5","1440","900","","","","","","","","","","","null","+","Fixation - short","","null","","","","","","","","","","","","","","","","",""
"","html-keyboard-response","32","147802","0.0-51.0","yfpp9st5","","","","","","","","","","","","","573","mda","Diagnostic practice","","j","","Diagnostic practice","11","-84","true","false","true","prac equal","RIGHT","RIGHT","j","1","true","","","",""
"","html-keyboard-response","33","148555","0.0-54.0","yfpp9st5","1440","900","","","","","","","","","","","null","+","Fixation - short","","null","","","","","","","","","","","","","","","","",""
"","html-keyboard-response","34","151346","0.0-55.0","yfpp9st5","","","","","","","","","","","","","2790","dpa","Diagnostic practice","","j","","Diagnostic practice","12","-84","true","false","false","prac equal","LEFT","LEFT","f","0","true","","","",""
"","call-function","35","151348","0.0-57.0-0.0","yfpp9st5","","","","","","","","","","","","","","","","","","","","","","","","","","","","","","","","","",""
"","html-keyboard-response","36","151651","0.0-57.0-1.0","yfpp9st5","1440","900","","","","","","","","","","","null","Wrong","Feedback","","null","","","","","","","","","","","","","","","","",""
"","call-function","37","151652","0.0-57.0-2.0","yfpp9st5","","","","","","","","","","","","","","","","","","","","","","","","","","","","","","","","","",""
"","html-keyboard-response","38","152405","0.0-58.0","yfpp9st5","1440","900","","","","","","","","","","","null","+","Fixation - short","","null","","","","","","","","","","","","","","","","",""
"","html-keyboard-response","39","153128","0.0-59.0","yfpp9st5","","","","","","","","","","","","","722","mda","Diagnostic practice","","j","","Diagnostic practice","13","-84","true","false","true","prac equal","RIGHT","RIGHT","j","1","true","","","",""
"","html-keyboard-response","40","153882","0.0-62.0","yfpp9st5","1440","900","","","","","","","","","","","null","+","Fixation - short","","null","","","","","","","","","","","","","","","","",""
"","html-keyboard-response","41","154520","0.0-63.0","yfpp9st5","","","","","","","","","","","","","637","dpa","Diagnostic practice","","j","","Diagnostic practice","14","-84","true","false","true","prac equal","LEFT","RIGHT","j","1","false","","","",""
"","html-keyboard-response","42","155274","0.0-66.0","yfpp9st5","1440","900","","","","","","","","","","","null","+","Fixation - short","","null","","","","","","","","","","","","","","","","",""
"","html-keyboard-response","43","155918","0.0-67.0","yfpp9st5","","","","","","","","","","","","","643","mda","Diagnostic practice","","f","","Diagnostic practice","15","-84","true","false","false","prac equal","RIGHT","LEFT","f","1","false","","","",""
"","html-keyboard-response","44","156671","0.0-70.0","yfpp9st5","1440","900","","","","","","","","","","","null","+","Fixation - short","","null","","","","","","","","","","","","","","","","",""
"","instructions","45","165408","0.0-71.0","yfpp9st5","","","","","","","","","","","","[{""page_index"":0,""viewing_time"":8734}]","8735","Instructions","Final experiment explanation","","","","","","","","","","","","","","","","","","",""
"","html-keyboard-response","46","182356","0.0-72.0","yfpp9st5","","","","","","","","","","","","","15445","If geb press RIGHT | If dlg press LEFT","Inducer practice",""," ","","Practice","","","","","","","","","","","","","","",""
"","html-keyboard-response","47","183108","0.0-73.0","yfpp9st5","1440","900","","","","","","","","","","","null","+","Fixation - short","","null","","","","","","","","","","","","","","","","",""
"","html-keyboard-response","48","185669","0.0-74.0","yfpp9st5","","","","","","","","","","","","","2559","geb","Inducer practice","","f","","Practice","","","","true","","","","","j","0","","true","RIGHT","",""
"","call-function","49","185671","0.0-76.0-0.0","yfpp9st5","","","","","","","","","","","","","","","","","","","","","","","","","","","","","","","","","",""
"","html-keyboard-response","50","185973","0.0-76.0-1.0","yfpp9st5","1440","900","","","","","","","","","","","null","Wrong","Feedback","","null","","","","","","","","","","","","","","","","",""
"","call-function","51","185974","0.0-76.0-2.0","yfpp9st5","","","","","","","","","","","","","","","","","","","","","","","","","","","","","","","","","",""
"","html-keyboard-response","52","186727","0.0-77.0","yfpp9st5","1440","900","","","","","","","","","","","null","+","Fixation - short","","null","","","","","","","","","","","","","","","","",""
"","html-keyboard-response","53","190632","0.0-78.0","yfpp9st5","","","","","","","","","","","","","3902","If pph press RIGHT | If cta press LEFT","Inducer practice",""," ","","Practice","","","","","","","","","","","","","","",""
"","html-keyboard-response","54","191385","0.0-79.0","yfpp9st5","1440","900","","","","","","","","","","","null","+","Fixation - short","","null","","","","","","","","","","","","","","","","",""
"","html-keyboard-response","55","192127","0.0-80.0","yfpp9st5","","","","","","","","","","","","","741","pph","Inducer practice","","j","","Practice","","","","true","","","","","j","1","","true","RIGHT","",""
"","html-keyboard-response","56","192880","0.0-83.0","yfpp9st5","1440","900","","","","","","","","","","","null","+","Fixation - short","","null","","","","","","","","","","","","","","","","",""
"","html-keyboard-response","57","194872","0.0-84.0","yfpp9st5","","","","","","","","","","","","","1989","If kue press RIGHT | If yrp press LEFT","Inducer practice",""," ","","Practice","","","","","","","","","","","","","","",""
"","html-keyboard-response","58","195625","0.0-85.0","yfpp9st5","1440","900","","","","","","","","","","","null","+","Fixation - short","","null","","","","","","","","","","","","","","","","",""
"","html-keyboard-response","59","196534","0.0-86.0","yfpp9st5","","","","","","","","","","","","","908","yrp","Inducer practice","","f","","Practice","","","","true","","","","","f","1","","true","LEFT","",""
"","html-keyboard-response","60","197287","0.0-89.0","yfpp9st5","1440","900","","","","","","","","","","","null","+","Fixation - short","","null","","","","","","","","","","","","","","","","",""
"","html-keyboard-response","61","200262","0.0-90.0","yfpp9st5","","","","","","","","","","","","","2972","If jil press RIGHT | If cpt press LEFT","Inducer practice",""," ","","Practice","","","","","","","","","","","","","","",""
"","html-keyboard-response","62","201015","0.0-91.0","yfpp9st5","1440","900","","","","","","","","","","","null","+","Fixation - short","","null","","","","","","","","","","","","","","","","",""
"","html-keyboard-response","63","201638","0.0-92.0","yfpp9st5","","","","","","","","","","","","","622","jil","Inducer practice","","j","","Practice","","","","true","","","","","j","1","","true","RIGHT","",""
"","html-keyboard-response","64","202391","0.0-95.0","yfpp9st5","1440","900","","","","","","","","","","","null","+","Fixation - short","","null","","","","","","","","","","","","","","","","",""
"","html-keyboard-response","65","205145","0.0-96.0","yfpp9st5","","","","","","","","","","","","","2753","If ydi press RIGHT | If cmj press LEFT","Inducer practice",""," ","","Practice","","","","","","","","","","","","","","",""
"","html-keyboard-response","66","205898","0.0-97.0","yfpp9st5","1440","900","","","","","","","","","","","null","+","Fixation - short","","null","","","","","","","","","","","","","","","","",""
"","html-keyboard-response","67","206411","0.0-98.0","yfpp9st5","","","","","","","","","","","","","510","cmj","Inducer practice","","f","","Practice","","","","true","","","","","f","1","","true","LEFT","",""
"","html-keyboard-response","68","207163","0.0-101.0","yfpp9st5","1440","900","","","","","","","","","","","null","+","Fixation - short","","null","","","","","","","","","","","","","","","","",""
"","html-keyboard-response","69","208479","0.0-102.0","yfpp9st5","","","","","","","","","","","","","1314","If dgv press RIGHT | If ume press LEFT","Inducer practice",""," ","","Practice","","","","","","","","","","","","","","",""
"","html-keyboard-response","70","209232","0.0-103.0","yfpp9st5","1440","900","","","","","","","","","","","null","+","Fixation - short","","null","","","","","","","","","","","","","","","","",""
"","html-keyboard-response","71","209934","0.0-104.0","yfpp9st5","","","","","","","","","","","","","700","ume","Inducer practice","","f","","Practice","","","","true","","","","","f","1","","true","LEFT","",""
"","html-keyboard-response","72","210687","0.0-107.0","yfpp9st5","1440","900","","","","","","","","","","","null","+","Fixation - short","","null","","","","","","","","","","","","","","","","",""
"","instructions","73","242525","0.0-108.0","yfpp9st5","","","","","","","","","","","","[{""page_index"":0,""viewing_time"":31836}]","31836","Instructions","Final experiment explanation","","","","","","","","","","","","","","","","","","",""
"","html-keyboard-response","74","246227","0.0-109.0","yfpp9st5","","","","","","","","","","","","","2199","If crf press RIGHT | If quy press LEFT","Cue practice",""," ","","Practice","","","","","","","","","","","","","","",""
"","html-keyboard-response","75","246980","0.0-110.0","yfpp9st5","1440","900","","","","","","","","","","","null","+","Fixation - short","","null","","","","","","","","","","","","","","","","",""
"","html-keyboard-response","76","250081","0.0-111.0","yfpp9st5","","","","","","","","","","","","","3099","crf","Cue practice","","j","","Practice","0","13","false","false","true","both pre & post","RIGHT","RIGHT","j","1","true","","","",""
"","html-keyboard-response","77","250834","0.0-114.0","yfpp9st5","1440","900","","","","","","","","","","","null","+","Fixation - short","","null","","","","","","","","","","","","","","","","",""
"","html-keyboard-response","78","252103","0.0-115.0","yfpp9st5","","","","","","","","","","","","","1267","quy","Cue practice","","j","","Practice","1","13","false","false","true","both pre & post","LEFT","RIGHT","j","1","false","","","",""
"","html-keyboard-response","79","252856","0.0-118.0","yfpp9st5","1440","900","","","","","","","","","","","null","+","Fixation - short","","null","","","","","","","","","","","","","","","","",""
"","html-keyboard-response","80","253811","0.0-119.0","yfpp9st5","","","","","","","","","","","","","953","crf","Cue practice","","f","","Practice","2","13","false","false","false","both pre & post","RIGHT","LEFT","f","1","false","","","",""
"","html-keyboard-response","81","254564","0.0-122.0","yfpp9st5","1440","900","","","","","","","","","","","null","+","Fixation - short","","null","","","","","","","","","","","","","","","","",""
"","html-keyboard-response","82","255178","0.0-123.0","yfpp9st5","","","","","","","","","","","","","612","crf","Cue practice","","f","","Practice","3","13","false","false","false","both pre & post","RIGHT","LEFT","f","1","false","","","",""
"","html-keyboard-response","83","255931","0.0-126.0","yfpp9st5","1440","900","","","","","","","","","","","null","+","Fixation - short","","null","","","","","","","","","","","","","","","","",""
"","html-keyboard-response","84","256858","0.0-127.0","yfpp9st5","","","","","","","","","","","","","926","crf","Cue practice","","j","","Practice","4","13","false","false","true","both pre & post","RIGHT","RIGHT","j","1","true","","","",""
"","html-keyboard-response","85","257612","0.0-130.0","yfpp9st5","1440","900","","","","","","","","","","","null","+","Fixation - short","","null","","","","","","","","","","","","","","","","",""
"","html-keyboard-response","86","258408","0.0-131.0","yfpp9st5","","","","","","","","","","","","","794","crf","Cue practice","","j","","Practice","5","13","false","false","true","both pre & post","RIGHT","RIGHT","j","1","true","","","",""
"","html-keyboard-response","87","259161","0.0-134.0","yfpp9st5","1440","900","","","","","","","","","","","null","+","Fixation - short","","null","","","","","","","","","","","","","","","","",""
"","html-keyboard-response","88","259997","0.0-135.0","yfpp9st5","","","","","","","","","","","","","835","crf","Cue practice","","j","","Practice","6","13","false","false","true","both pre & post","RIGHT","RIGHT","j","1","true","","","",""
"","html-keyboard-response","89","260750","0.0-138.0","yfpp9st5","1440","900","","","","","","","","","","","null","+","Fixation - short","","null","","","","","","","","","","","","","","","","",""
"","html-keyboard-response","90","262319","0.0-139.0","yfpp9st5","","","","","","","","","","","","","1566","quy","Cue practice","","f","","Practice","7","13","false","false","false","both pre & post","LEFT","LEFT","f","1","true","","","",""
"","html-keyboard-response","91","263072","0.0-142.0","yfpp9st5","1440","900","","","","","","","","","","","null","+","Fixation - short","","null","","","","","","","","","","","","","","","","",""
"","html-keyboard-response","92","263825","0.0-143.0","yfpp9st5","","","","","","","","","","","","","751","quy","Cue practice","","j","","Practice","8","13","false","false","true","both pre & post","LEFT","RIGHT","j","1","false","","","",""
"","html-keyboard-response","93","264578","0.0-146.0","yfpp9st5","1440","900","","","","","","","","","","","null","+","Fixation - short","","null","","","","","","","","","","","","","","","","",""
"","html-keyboard-response","94","265443","0.0-147.0","yfpp9st5","","","","","","","","","","","","","863","crf","Cue practice","","f","","Practice","9","13","false","false","false","both pre & post","RIGHT","LEFT","f","1","false","","","",""
"","html-keyboard-response","95","266196","0.0-150.0","yfpp9st5","1440","900","","","","","","","","","","","null","+","Fixation - short","","null","","","","","","","","","","","","","","","","",""
"","html-keyboard-response","96","267013","0.0-151.0","yfpp9st5","","","","","","","","","","","","","816","quy","Cue practice","","f","","Practice","10","13","false","false","false","both pre & post","LEFT","LEFT","f","1","true","","","",""
"","html-keyboard-response","97","267766","0.0-154.0","yfpp9st5","1440","900","","","","","","","","","","","null","+","Fixation - short","","null","","","","","","","","","","","","","","","","",""
"","html-keyboard-response","98","268305","0.0-155.0","yfpp9st5","","","","","","","","","","","","","536","crf","Cue practice","","j","","Practice","11","13","false","false","false","both pre & post","RIGHT","LEFT","f","0","false","","","",""
"","call-function","99","268306","0.0-157.0-0.0","yfpp9st5","","","","","","","","","","","","","","","","","","","","","","","","","","","","","","","","","",""
"","html-keyboard-response","100","268609","0.0-157.0-1.0","yfpp9st5","1440","900","","","","","","","","","","","null","Wrong","Feedback","","null","","","","","","","","","","","","","","","","",""
"","call-function","101","268610","0.0-157.0-2.0","yfpp9st5","","","","","","","","","","","","","","","","","","","","","","","","","","","","","","","","","",""
"","html-keyboard-response","102","269362","0.0-158.0","yfpp9st5","1440","900","","","","","","","","","","","null","+","Fixation - short","","null","","","","","","","","","","","","","","","","",""
"","html-keyboard-response","103","270371","0.0-159.0","yfpp9st5","","","","","","","","","","","","","1006","quy","Cue practice","","j","","Practice","12","13","false","false","true","both pre & post","LEFT","RIGHT","j","1","false","","","",""
"","html-keyboard-response","104","271124","0.0-162.0","yfpp9st5","1440","900","","","","","","","","","","","null","+","Fixation - short","","null","","","","","","","","","","","","","","","","",""
"","canvas-keyboard-response","105","272380","0.0-163.0","yfpp9st5","","","","","","","","","","","","","null","Cue","Cue","","null","","Practice","12","","","false","","","","","","","","","","",""
"","html-keyboard-response","106","273132","0.0-164.0","yfpp9st5","1440","900","","","","","","","","","","","null","+","Fixation - short","","null","","","","","","","","","","","","","","","","",""
"","html-keyboard-response","107","273924","0.0-165.0","yfpp9st5","","","","","","","","","","","","","789","quy","Cue practice","","j","","Practice","13","13","true","false","true","both pre & post","LEFT","RIGHT","j","1","false","","","",""
"","html-keyboard-response","108","274676","0.0-168.0","yfpp9st5","1440","900","","","","","","","","","","","null","+","Fixation - short","","null","","","","","","","","","","","","","","","","",""
"","html-keyboard-response","109","275349","0.0-169.0","yfpp9st5","","","","","","","","","","","","","671","quy","Cue practice","","j","","Practice","14","13","true","false","true","both pre & post","LEFT","RIGHT","j","1","false","","","",""
"","html-keyboard-response","110","276102","0.0-172.0","yfpp9st5","1440","900","","","","","","","","","","","null","+","Fixation - short","","null","","","","","","","","","","","","","","","","",""
"","html-keyboard-response","111","276981","0.0-173.0","yfpp9st5","","","","","","","","","","","","","877","quy","Cue practice","","f","","Practice","15","13","true","false","false","both pre & post","LEFT","LEFT","f","1","true","","","",""
"","html-keyboard-response","112","277734","0.0-176.0","yfpp9st5","1440","900","","","","","","","","","","","null","+","Fixation - short","","null","","","","","","","","","","","","","","","","",""
"","html-keyboard-response","113","278380","0.0-177.0","yfpp9st5","","","","","","","","","","","","","644","crf","Inducer practice","","j","","Practice","","","","true","","","","","j","1","","false","RIGHT","",""
"","html-keyboard-response","114","279133","0.0-180.0","yfpp9st5","1440","900","","","","","","","","","","","null","+","Fixation - short","","null","","","","","","","","","","","","","","","","",""
"","instructions","115","284438","0.0-181.0","yfpp9st5","","","","","","","","","","","","[{""page_index"":0,""viewing_time"":5303}]","5303","End practice","End of practice","","","","","","","","","","","","","","","","","","",""
"","html-keyboard-response","116","287442","0.0-182.0","yfpp9st5","1440","900","","","","","","","","","","","null","+","Fixation - long","","null","","","","","","","","","","","","","","","","",""
"","html-keyboard-response","117","291613","0.0-183.0","yfpp9st5","","","","","","","","","","","","","4169","If amb press RIGHT | If psl press LEFT","Inducer instructions",""," ","","0","","","","","","","","","","","","","","",""
"","html-keyboard-response","118","292367","0.0-184.0","yfpp9st5","1440","900","","","","","","","","","","","null","+","Fixation - short","","null","","","","","","","","","","","","","","","","",""
"","html-keyboard-response","119","293017","0.0-185.0","yfpp9st5","","","","","","","","","","","","","648","amb","Diagnostic trial","","j","","0","0","11","false","false","true","both pre & post","RIGHT","RIGHT","j","1","true","","","",""
"","html-keyboard-response","120","293770","0.0-188.0","yfpp9st5","1440","900","","","","","","","","","","","null","+","Fixation - short","","null","","","","","","","","","","","","","","","","",""
"","html-keyboard-response","121","294449","0.0-189.0","yfpp9st5","","","","","","","","","","","","","678","amb","Diagnostic trial","","f","","0","1","11","false","false","false","both pre & post","RIGHT","LEFT","f","1","false","","","",""
"","html-keyboard-response","122","295202","0.0-192.0","yfpp9st5","1440","900","","","","","","","","","","","null","+","Fixation - short","","null","","","","","","","","","","","","","","","","",""
"","html-keyboard-response","123","295853","0.0-193.0","yfpp9st5","","","","","","","","","","","","","648","amb","Diagnostic trial","","f","","0","2","11","false","false","false","both pre & post","RIGHT","LEFT","f","1","false","","","",""
"","html-keyboard-response","124","296606","0.0-196.0","yfpp9st5","1440","900","","","","","","","","","","","null","+","Fixation - short","","null","","","","","","","","","","","","","","","","",""
"","html-keyboard-response","125","297253","0.0-197.0","yfpp9st5","","","","","","","","","","","","","646","psl","Diagnostic trial","","j","","0","3","11","false","false","true","both pre & post","LEFT","RIGHT","j","1","false","","","",""
"","html-keyboard-response","126","298006","0.0-200.0","yfpp9st5","1440","900","","","","","","","","","","","null","+","Fixation - short","","null","","","","","","","","","","","","","","","","",""
"","html-keyboard-response","127","299216","0.0-201.0","yfpp9st5","","","","","","","","","","","","","1208","amb","Diagnostic trial","","f","","0","4","11","false","false","false","both pre & post","RIGHT","LEFT","f","1","false","","","",""
"","html-keyboard-response","128","299969","0.0-204.0","yfpp9st5","1440","900","","","","","","","","","","","null","+","Fixation - short","","null","","","","","","","","","","","","","","","","",""
"","html-keyboard-response","129","300695","0.0-205.0","yfpp9st5","","","","","","","","","","","","","724","psl","Diagnostic trial","","f","","0","5","11","false","false","false","both pre & post","LEFT","LEFT","f","1","true","","","",""
"","html-keyboard-response","130","301448","0.0-208.0","yfpp9st5","1440","900","","","","","","","","","","","null","+","Fixation - short","","null","","","","","","","","","","","","","","","","",""
"","html-keyboard-response","131","302166","0.0-209.0","yfpp9st5","","","","","","","","","","","","","716","amb","Diagnostic trial","","j","","0","6","11","false","false","true","both pre & post","RIGHT","RIGHT","j","1","true","","","",""
"","html-keyboard-response","132","302919","0.0-212.0","yfpp9st5","1440","900","","","","","","","","","","","null","+","Fixation - short","","null","","","","","","","","","","","","","","","","",""
"","html-keyboard-response","133","303490","0.0-213.0","yfpp9st5","","","","","","","","","","","","","569","psl","Diagnostic trial","","j","","0","7","11","false","false","true","both pre & post","LEFT","RIGHT","j","1","false","","","",""
"","html-keyboard-response","134","304243","0.0-216.0","yfpp9st5","1440","900","","","","","","","","","","","null","+","Fixation - short","","null","","","","","","","","","","","","","","","","",""
"","html-keyboard-response","135","304849","0.0-217.0","yfpp9st5","","","","","","","","","","","","","604","amb","Diagnostic trial","","f","","0","8","11","false","false","false","both pre & post","RIGHT","LEFT","f","1","false","","","",""
"","html-keyboard-response","136","305602","0.0-220.0","yfpp9st5","1440","900","","","","","","","","","","","null","+","Fixation - short","","null","","","","","","","","","","","","","","","","",""
"","html-keyboard-response","137","306139","0.0-221.0","yfpp9st5","","","","","","","","","","","","","535","psl","Diagnostic trial","","j","","0","9","11","false","false","false","both pre & post","LEFT","LEFT","f","0","true","","","",""
"","call-function","138","306141","0.0-223.0-0.0","yfpp9st5","","","","","","","","","","","","","","","","","","","","","","","","","","","","","","","","","",""
"","html-keyboard-response","139","306443","0.0-223.0-1.0","yfpp9st5","1440","900","","","","","","","","","","","null","Wrong","Feedback","","null","","","","","","","","","","","","","","","","",""
"","call-function","140","306444","0.0-223.0-2.0","yfpp9st5","","","","","","","","","","","","","","","","","","","","","","","","","","","","","","","","","",""
"","html-keyboard-response","141","307197","0.0-224.0","yfpp9st5","1440","900","","","","","","","","","","","null","+","Fixation - short","","null","","","","","","","","","","","","","","","","",""
"","html-keyboard-response","142","307916","0.0-225.0","yfpp9st5","","","","","","","","","","","","","718","amb","Diagnostic trial","","f","","0","10","11","false","false","false","both pre & post","RIGHT","LEFT","f","1","false","","","",""
"","html-keyboard-response","143","308668","0.0-228.0","yfpp9st5","1440","900","","","","","","","","","","","null","+","Fixation - short","","null","","","","","","","","","","","","","","","","",""
"","canvas-keyboard-response","144","309922","0.0-229.0","yfpp9st5","","","","","","","","","","","","","null","Cue","Cue","","null","","0","10","","","false","","","","","","","","","","",""
"","html-keyboard-response","145","310675","0.0-230.0","yfpp9st5","1440","900","","","","","","","","","","","null","+","Fixation - short","","null","","","","","","","","","","","","","","","","",""
"","html-keyboard-response","146","311460","0.0-231.0","yfpp9st5","","","","","","","","","","","","","784","amb","Diagnostic trial","","j","","0","11","11","true","false","true","both pre & post","RIGHT","RIGHT","j","1","true","","","",""
"","html-keyboard-response","147","312213","0.0-234.0","yfpp9st5","1440","900","","","","","","","","","","","null","+","Fixation - short","","null","","","","","","","","","","","","","","","","",""
"","html-keyboard-response","148","312951","0.0-235.0","yfpp9st5","","","","","","","","","","","","","737","amb","Diagnostic trial","","j","","0","12","11","true","false","true","both pre & post","RIGHT","RIGHT","j","1","true","","","",""
"","html-keyboard-response","149","313703","0.0-238.0","yfpp9st5","1440","900","","","","","","","","","","","null","+","Fixation - short","","null","","","","","","","","","","","","","","","","",""
"","html-keyboard-response","150","314321","0.0-239.0","yfpp9st5","","","","","","","","","","","","","616","amb","Diagnostic trial","","j","","0","13","11","true","false","false","both pre & post","RIGHT","LEFT","f","0","false","","","",""
"","call-function","151","314322","0.0-241.0-0.0","yfpp9st5","","","","","","","","","","","","","","","","","","","","","","","","","","","","","","","","","",""
"","html-keyboard-response","152","314625","0.0-241.0-1.0","yfpp9st5","1440","900","","","","","","","","","","","null","Wrong","Feedback","","null","","","","","","","","","","","","","","","","",""
"","call-function","153","314626","0.0-241.0-2.0","yfpp9st5","","","","","","","","","","","","","","","","","","","","","","","","","","","","","","","","","",""
"","html-keyboard-response","154","315378","0.0-242.0","yfpp9st5","1440","900","","","","","","","","","","","null","+","Fixation - short","","null","","","","","","","","","","","","","","","","",""
"","html-keyboard-response","155","316125","0.0-243.0","yfpp9st5","","","","","","","","","","","","","744","psl","Diagnostic trial","","j","","0","14","11","true","false","true","both pre & post","LEFT","RIGHT","j","1","false","","","",""
"","html-keyboard-response","156","316878","0.0-246.0","yfpp9st5","1440","900","","","","","","","","","","","null","+","Fixation - short","","null","","","","","","","","","","","","","","","","",""
"","html-keyboard-response","157","317924","0.0-247.0","yfpp9st5","","","","","","","","","","","","","1044","psl","Inducer trial","","f","","0","","","","true","","","","","f","1","","false","LEFT","",""
"","html-keyboard-response","158","318677","0.0-250.0","yfpp9st5","1440","900","","","","","","","","","","","null","+","Fixation - short","","null","","","","","","","","","","","","","","","","",""
"","html-keyboard-response","159","321802","0.0-251.0","yfpp9st5","","","","","","","","","","","","","3123","If oez press RIGHT | If rpw press LEFT","Inducer instructions",""," ","","1","","","","","","","","","","","","","","",""
"","html-keyboard-response","160","322555","0.0-252.0","yfpp9st5","1440","900","","","","","","","","","","","null","+","Fixation - short","","null","","","","","","","","","","","","","","","","",""
"","html-keyboard-response","161","323689","0.0-253.0","yfpp9st5","","","","","","","","","","","","","1133","rpw","Diagnostic trial","","j","","1","0","6","false","false","true","both pre & post","LEFT","RIGHT","j","1","false","","","",""
"","html-keyboard-response","162","324442","0.0-256.0","yfpp9st5","1440","900","","","","","","","","","","","null","+","Fixation - short","","null","","","","","","","","","","","","","","","","",""
"","html-keyboard-response","163","325060","0.0-257.0","yfpp9st5","","","","","","","","","","","","","616","oez","Diagnostic trial","","j","","1","1","6","false","false","true","both pre & post","RIGHT","RIGHT","j","1","true","","","",""
"","html-keyboard-response","164","325813","0.0-260.0","yfpp9st5","1440","900","","","","","","","","","","","null","+","Fixation - short","","null","","","","","","","","","","","","","","","","",""
"","html-keyboard-response","165","326436","0.0-261.0","yfpp9st5","","","","","","","","","","","","","620","oez","Diagnostic trial","","f","","1","2","6","false","false","false","both pre & post","RIGHT","LEFT","f","1","false","","","",""
"","html-keyboard-response","166","327189","0.0-264.0","yfpp9st5","1440","900","","","","","","","","","","","null","+","Fixation - short","","null","","","","","","","","","","","","","","","","",""
"","html-keyboard-response","167","328145","0.0-265.0","yfpp9st5","","","","","","","","","","","","","955","rpw","Diagnostic trial","","j","","1","3","6","false","false","true","both pre & post","LEFT","RIGHT","j","1","false","","","",""
"","html-keyboard-response","168","328898","0.0-268.0","yfpp9st5","1440","900","","","","","","","","","","","null","+","Fixation - short","","null","","","","","","","","","","","","","","","","",""
"","html-keyboard-response","169","329668","0.0-269.0","yfpp9st5","","","","","","","","","","","","","768","oez","Diagnostic trial","","f","","1","4","6","false","false","false","both pre & post","RIGHT","LEFT","f","1","false","","","",""
"","html-keyboard-response","170","330421","0.0-272.0","yfpp9st5","1440","900","","","","","","","","","","","null","+","Fixation - short","","null","","","","","","","","","","","","","","","","",""
"","html-keyboard-response","171","331164","0.0-273.0","yfpp9st5","","","","","","","","","","","","","741","oez","Diagnostic trial","","j","","1","5","6","false","false","true","both pre & post","RIGHT","RIGHT","j","1","true","","","",""
"","html-keyboard-response","172","331917","0.0-276.0","yfpp9st5","1440","900","","","","","","","","","","","null","+","Fixation - short","","null","","","","","","","","","","","","","","","","",""
"","canvas-keyboard-response","173","333170","0.0-277.0","yfpp9st5","","","","","","","","","","","","","null","Cue","Cue","","null","","1","5","","","false","","","","","","","","","","",""
"","html-keyboard-response","174","333922","0.0-278.0","yfpp9st5","1440","900","","","","","","","","","","","null","+","Fixation - short","","null","","","","","","","","","","","","","","","","",""
"","html-keyboard-response","175","334702","0.0-279.0","yfpp9st5","","","","","","","","","","","","","778","oez","Diagnostic trial","","f","","1","6","6","true","false","false","both pre & post","RIGHT","LEFT","f","1","false","","","",""
"","html-keyboard-response","176","335455","0.0-282.0","yfpp9st5","1440","900","","","","","","","","","","","null","+","Fixation - short","","null","","","","","","","","","","","","","","","","",""
"","html-keyboard-response","177","336311","0.0-283.0","yfpp9st5","","","","","","","","","","","","","855","oez","Diagnostic trial","","j","","1","7","6","true","false","true","both pre & post","RIGHT","RIGHT","j","1","true","","","",""
"","html-keyboard-response","178","337064","0.0-286.0","yfpp9st5","1440","900","","","","","","","","","","","null","+","Fixation - short","","null","","","","","","","","","","","","","","","","",""
"","html-keyboard-response","179","337794","0.0-287.0","yfpp9st5","","","","","","","","","","","","","729","oez","Inducer trial","","j","","1","","","","true","","","","","j","1","","false","RIGHT","",""
"","html-keyboard-response","180","338547","0.0-290.0","yfpp9st5","1440","900","","","","","","","","","","","null","+","Fixation - short","","null","","","","","","","","","","","","","","","","",""
"","html-keyboard-response","181","340094","0.0-291.0","yfpp9st5","","","","","","","","","","","","","1545","If ori press RIGHT | If hlb press LEFT","Inducer instructions",""," ","","2","","","","","","","","","","","","","","",""
"","html-keyboard-response","182","340847","0.0-292.0","yfpp9st5","1440","900","","","","","","","","","","","null","+","Fixation - short","","null","","","","","","","","","","","","","","","","",""
"","html-keyboard-response","183","341907","0.0-293.0","yfpp9st5","","","","","","","","","","","","","1058","hlb","Diagnostic trial","","j","","2","0","4","false","false","true","both pre & post","LEFT","RIGHT","j","1","false","","","",""
"","html-keyboard-response","184","342660","0.0-296.0","yfpp9st5","1440","900","","","","","","","","","","","null","+","Fixation - short","","null","","","","","","","","","","","","","","","","",""
"","html-keyboard-response","185","343300","0.0-297.0","yfpp9st5","","","","","","","","","","","","","639","ori","Diagnostic trial","","f","","2","1","4","false","false","false","both pre & post","RIGHT","LEFT","f","1","false","","","",""
"","html-keyboard-response","186","344053","0.0-300.0","yfpp9st5","1440","900","","","","","","","","","","","null","+","Fixation - short","","null","","","","","","","","","","","","","","","","",""
"","html-keyboard-response","187","344804","0.0-301.0","yfpp9st5","","","","","","","","","","","","","750","hlb","Diagnostic trial","","j","","2","2","4","false","false","true","both pre & post","LEFT","RIGHT","j","1","false","","","",""
"","html-keyboard-response","188","345556","0.0-304.0","yfpp9st5","1440","900","","","","","","","","","","","null","+","Fixation - short","","null","","","","","","","","","","","","","","","","",""
"","html-keyboard-response","189","346187","0.0-305.0","yfpp9st5","","","","","","","","","","","","","629","ori","Diagnostic trial","","f","","2","3","4","false","false","false","both pre & post","RIGHT","LEFT","f","1","false","","","",""
"","html-keyboard-response","190","346939","0.0-308.0","yfpp9st5","1440","900","","","","","","","","","","","null","+","Fixation - short","","null","","","","","","","","","","","","","","","","",""
"","canvas-keyboard-response","191","348192","0.0-309.0","yfpp9st5","","","","","","","","","","","","","null","Cue","Cue","","null","","2","3","","","false","","","","","","","","","","",""
"","html-keyboard-response","192","348945","0.0-310.0","yfpp9st5","1440","900","","","","","","","","","","","null","+","Fixation - short","","null","","","","","","","","","","","","","","","","",""
"","html-keyboard-response","193","349699","0.0-311.0","yfpp9st5","","","","","","","","","","","","","752","hlb","Diagnostic trial","","j","","2","4","4","true","false","true","both pre & post","LEFT","RIGHT","j","1","false","","","",""
"","html-keyboard-response","194","350451","0.0-314.0","yfpp9st5","1440","900","","","","","","","","","","","null","+","Fixation - short","","null","","","","","","","","","","","","","","","","",""
"","html-keyboard-response","195","351246","0.0-315.0","yfpp9st5","","","","","","","","","","","","","793","ori","Diagnostic trial","","j","","2","5","4","true","false","true","both pre & post","RIGHT","RIGHT","j","1","true","","","",""
"","html-keyboard-response","196","351999","0.0-318.0","yfpp9st5","1440","900","","","","","","","","","","","null","+","Fixation - short","","null","","","","","","","","","","","","","","","","",""
"","html-keyboard-response","197","352927","0.0-319.0","yfpp9st5","","","","","","","","","","","","","926","ori","Diagnostic trial","","j","","2","6","4","true","false","true","both pre & post","RIGHT","RIGHT","j","1","true","","","",""
"","html-keyboard-response","198","353680","0.0-322.0","yfpp9st5","1440","900","","","","","","","","","","","null","+","Fixation - short","","null","","","","","","","","","","","","","","","","",""
"","html-keyboard-response","199","354464","0.0-323.0","yfpp9st5","","","","","","","","","","","","","782","ori","Diagnostic trial","","j","","2","7","4","true","false","true","both pre & post","RIGHT","RIGHT","j","1","true","","","",""
"","html-keyboard-response","200","355216","0.0-326.0","yfpp9st5","1440","900","","","","","","","","","","","null","+","Fixation - short","","null","","","","","","","","","","","","","","","","",""
"","html-keyboard-response","201","355887","0.0-327.0","yfpp9st5","","","","","","","","","","","","","669","ori","Inducer trial","","j","","2","","","","true","","","","","j","1","","false","RIGHT","",""
"","html-keyboard-response","202","356639","0.0-330.0","yfpp9st5","1440","900","","","","","","","","","","","null","+","Fixation - short","","null","","","","","","","","","","","","","","","","",""
"","html-keyboard-response","203","357845","0.0-331.0","yfpp9st5","","","","","","","","","","","","","1203","If csp press RIGHT | If frn press LEFT","Inducer instructions",""," ","","3","","","","","","","","","","","","","","",""
"","html-keyboard-response","204","358597","0.0-332.0","yfpp9st5","1440","900","","","","","","","","","","","null","+","Fixation - short","","null","","","","","","","","","","","","","","","","",""
"","html-keyboard-response","205","359759","0.0-333.0","yfpp9st5","","","","","","","","","","","","","1160","csp","Diagnostic trial","","j","","3","0","4","false","false","true","both pre & post","RIGHT","RIGHT","j","1","true","","","",""
"","html-keyboard-response","206","360512","0.0-336.0","yfpp9st5","1440","900","","","","","","","","","","","null","+","Fixation - short","","null","","","","","","","","","","","","","","","","",""
"","html-keyboard-response","207","361125","0.0-337.0","yfpp9st5","","","","","","","","","","","","","611","frn","Diagnostic trial","","j","","3","1","4","false","false","true","both pre & post","LEFT","RIGHT","j","1","false","","","",""
"","html-keyboard-response","208","361878","0.0-340.0","yfpp9st5","1440","900","","","","","","","","","","","null","+","Fixation - short","","null","","","","","","","","","","","","","","","","",""
"","html-keyboard-response","209","362470","0.0-341.0","yfpp9st5","","","","","","","","","","","","","590","frn","Diagnostic trial","","f","","3","2","4","false","false","false","both pre & post","LEFT","LEFT","f","1","true","","","",""
"","html-keyboard-response","210","363223","0.0-344.0","yfpp9st5","1440","900","","","","","","","","","","","null","+","Fixation - short","","null","","","","","","","","","","","","","","","","",""
"","html-keyboard-response","211","364228","0.0-345.0","yfpp9st5","","","","","","","","","","","","","1003","frn","Diagnostic trial","","f","","3","3","4","false","false","false","both pre & post","LEFT","LEFT","f","1","true","","","",""
"","html-keyboard-response","212","364981","0.0-348.0","yfpp9st5","1440","900","","","","","","","","","","","null","+","Fixation - short","","null","","","","","","","","","","","","","","","","",""
"","canvas-keyboard-response","213","366234","0.0-349.0","yfpp9st5","","","","","","","","","","","","","null","Cue","Cue","","null","","3","3","","","false","","","","","","","","","","",""
"","html-keyboard-response","214","366987","0.0-350.0","yfpp9st5","1440","900","","","","","","","","","","","null","+","Fixation - short","","null","","","","","","","","","","","","","","","","",""
"","html-keyboard-response","215","367592","0.0-351.0","yfpp9st5","","","","","","","","","","","","","604","frn","Diagnostic trial","","j","","3","4","4","true","false","true","both pre & post","LEFT","RIGHT","j","1","false","","","",""
"","html-keyboard-response","216","368345","0.0-354.0","yfpp9st5","1440","900","","","","","","","","","","","null","+","Fixation - short","","null","","","","","","","","","","","","","","","","",""
"","html-keyboard-response","217","369378","0.0-355.0","yfpp9st5","","","","","","","","","","","","","1032","csp","Diagnostic trial","","f","","3","5","4","true","false","true","both pre & post","RIGHT","RIGHT","j","0","true","","","",""
"","call-function","218","369379","0.0-357.0-0.0","yfpp9st5","","","","","","","","","","","","","","","","","","","","","","","","","","","","","","","","","",""
"","html-keyboard-response","219","369681","0.0-357.0-1.0","yfpp9st5","1440","900","","","","","","","","","","","null","Wrong","Feedback","","null","","","","","","","","","","","","","","","","",""
"","call-function","220","369683","0.0-357.0-2.0","yfpp9st5","","","","","","","","","","","","","","","","","","","","","","","","","","","","","","","","","",""
"","html-keyboard-response","221","370435","0.0-358.0","yfpp9st5","1440","900","","","","","","","","","","","null","+","Fixation - short","","null","","","","","","","","","","","","","","","","",""
"","html-keyboard-response","222","371612","0.0-359.0","yfpp9st5","","","","","","","","","","","","","1176","csp","Diagnostic trial","","j","","3","6","4","true","false","true","both pre & post","RIGHT","RIGHT","j","1","true","","","",""
"","html-keyboard-response","223","372365","0.0-362.0","yfpp9st5","1440","900","","","","","","","","","","","null","+","Fixation - short","","null","","","","","","","","","","","","","","","","",""
"","html-keyboard-response","224","373047","0.0-363.0","yfpp9st5","","","","","","","","","","","","","681","csp","Diagnostic trial","","f","","3","7","4","true","false","false","both pre & post","RIGHT","LEFT","f","1","false","","","",""
"","html-keyboard-response","225","373800","0.0-366.0","yfpp9st5","1440","900","","","","","","","","","","","null","+","Fixation - short","","null","","","","","","","","","","","","","","","","",""
"","html-keyboard-response","226","374304","0.0-367.0","yfpp9st5","","","","","","","","","","","","","503","csp","Inducer trial","","j","","3","","","","true","","","","","j","1","","false","RIGHT","",""
"","html-keyboard-response","227","375057","0.0-370.0","yfpp9st5","1440","900","","","","","","","","","","","null","+","Fixation - short","","null","","","","","","","","","","","","","","","","",""
"","html-keyboard-response","228","375823","0.0-371.0","yfpp9st5","","","","","","","","","","","","","765","If guf press RIGHT | If sdw press LEFT","Inducer instructions",""," ","","4","","","","","","","","","","","","","","",""
"","html-keyboard-response","229","376575","0.0-372.0","yfpp9st5","1440","900","","","","","","","","","","","null","+","Fixation - short","","null","","","","","","","","","","","","","","","","",""
"","html-keyboard-response","230","377365","0.0-373.0","yfpp9st5","","","","","","","","","","","","","788","sdw","Diagnostic trial","","j","","4","0","6","false","false","true","both pre & post","LEFT","RIGHT","j","1","false","","","",""
"","html-keyboard-response","231","378117","0.0-376.0","yfpp9st5","1440","900","","","","","","","","","","","null","+","Fixation - short","","null","","","","","","","","","","","","","","","","",""
"","html-keyboard-response","232","378728","0.0-377.0","yfpp9st5","","","","","","","","","","","","","609","sdw","Diagnostic trial","","f","","4","1","6","false","false","false","both pre & post","LEFT","LEFT","f","1","true","","","",""
"","html-keyboard-response","233","379480","0.0-380.0","yfpp9st5","1440","900","","","","","","","","","","","null","+","Fixation - short","","null","","","","","","","","","","","","","","","","",""
"","html-keyboard-response","234","380195","0.0-381.0","yfpp9st5","","","","","","","","","","","","","713","sdw","Diagnostic trial","","f","","4","2","6","false","false","false","both pre & post","LEFT","LEFT","f","1","true","","","",""
"","html-keyboard-response","235","380947","0.0-384.0","yfpp9st5","1440","900","","","","","","","","","","","null","+","Fixation - short","","null","","","","","","","","","","","","","","","","",""
"","html-keyboard-response","236","381548","0.0-385.0","yfpp9st5","","","","","","","","","","","","","599","sdw","Diagnostic trial","","j","","4","3","6","false","false","true","both pre & post","LEFT","RIGHT","j","1","false","","","",""
"","html-keyboard-response","237","382300","0.0-388.0","yfpp9st5","1440","900","","","","","","","","","","","null","+","Fixation - short","","null","","","","","","","","","","","","","","","","",""
"","html-keyboard-response","238","383160","0.0-389.0","yfpp9st5","","","","","","","","","","","","","858","guf","Diagnostic trial","","j","","4","4","6","false","false","true","both pre & post","RIGHT","RIGHT","j","1","true","","","",""
"","html-keyboard-response","239","383913","0.0-392.0","yfpp9st5","1440","900","","","","","","","","","","","null","+","Fixation - short","","null","","","","","","","","","","","","","","","","",""
"","html-keyboard-response","240","384507","0.0-393.0","yfpp9st5","","","","","","","","","","","","","593","sdw","Diagnostic trial","","j","","4","5","6","false","false","true","both pre & post","LEFT","RIGHT","j","1","false","","","",""
"","html-keyboard-response","241","385260","0.0-396.0","yfpp9st5","1440","900","","","","","","","","","","","null","+","Fixation - short","","null","","","","","","","","","","","","","","","","",""
"","canvas-keyboard-response","242","386513","0.0-397.0","yfpp9st5","","","","","","","","","","","","","null","Cue","Cue","","null","","4","5","","","false","","","","","","","","","","",""
"","html-keyboard-response","243","387265","0.0-398.0","yfpp9st5","1440","900","","","","","","","","","","","null","+","Fixation - short","","null","","","","","","","","","","","","","","","","",""
"","html-keyboard-response","244","387790","0.0-399.0","yfpp9st5","","","","","","","","","","","","","523","sdw","Diagnostic trial","","f","","4","6","6","true","false","false","both pre & post","LEFT","LEFT","f","1","true","","","",""
"","html-keyboard-response","245","388543","0.0-402.0","yfpp9st5","1440","900","","","","","","","","","","","null","+","Fixation - short","","null","","","","","","","","","","","","","","","","",""
"","html-keyboard-response","246","389301","0.0-403.0","yfpp9st5","","","","","","","","","","","","","757","guf","Diagnostic trial","","f","","4","7","6","true","false","false","both pre & post","RIGHT","LEFT","f","1","false","","","",""
"","html-keyboard-response","247","390054","0.0-406.0","yfpp9st5","1440","900","","","","","","","","","","","null","+","Fixation - short","","null","","","","","","","","","","","","","","","","",""
"","html-keyboard-response","248","390870","0.0-407.0","yfpp9st5","","","","","","","","","","","","","814","guf","Diagnostic trial","","j","","4","8","6","true","false","true","both pre & post","RIGHT","RIGHT","j","1","true","","","",""
"","html-keyboard-response","249","391623","0.0-410.0","yfpp9st5","1440","900","","","","","","","","","","","null","+","Fixation - short","","null","","","","","","","","","","","","","","","","",""
"","html-keyboard-response","250","392763","0.0-411.0","yfpp9st5","","","","","","","","","","","","","1139","sdw","Diagnostic trial","","j","","4","9","6","true","false","true","both pre & post","LEFT","RIGHT","j","1","false","","","",""
"","html-keyboard-response","251","393516","0.0-414.0","yfpp9st5","1440","900","","","","","","","","","","","null","+","Fixation - short","","null","","","","","","","","","","","","","","","","",""
"","html-keyboard-response","252","394458","0.0-415.0","yfpp9st5","","","","","","","","","","","","","941","sdw","Inducer trial","","f","","4","","","","true","","","","","f","1","","false","LEFT","",""
"","html-keyboard-response","253","395211","0.0-418.0","yfpp9st5","1440","900","","","","","","","","","","","null","+","Fixation - short","","null","","","","","","","","","","","","","","","","",""
"","html-keyboard-response","254","396544","0.0-419.0","yfpp9st5","","","","","","","","","","","","","1332","If jsf press RIGHT | If zpl press LEFT","Inducer instructions",""," ","","5","","","","","","","","","","","","","","",""
"","html-keyboard-response","255","397297","0.0-420.0","yfpp9st5","1440","900","","","","","","","","","","","null","+","Fixation - short","","null","","","","","","","","","","","","","","","","",""
"","html-keyboard-response","256","398006","0.0-421.0","yfpp9st5","","","","","","","","","","","","","707","zpl","Diagnostic trial","","f","","5","0","10","false","false","false","both pre & post","LEFT","LEFT","f","1","true","","","",""
"","html-keyboard-response","257","398759","0.0-424.0","yfpp9st5","1440","900","","","","","","","","","","","null","+","Fixation - short","","null","","","","","","","","","","","","","","","","",""
"","html-keyboard-response","258","399594","0.0-425.0","yfpp9st5","","","","","","","","","","","","","834","jsf","Diagnostic trial","","f","","5","1","10","false","false","false","both pre & post","RIGHT","LEFT","f","1","false","","","",""
"","html-keyboard-response","259","400347","0.0-428.0","yfpp9st5","1440","900","","","","","","","","","","","null","+","Fixation - short","","null","","","","","","","","","","","","","","","","",""
"","html-keyboard-response","260","400980","0.0-429.0","yfpp9st5","","","","","","","","","","","","","632","jsf","Diagnostic trial","","f","","5","2","10","false","false","false","both pre & post","RIGHT","LEFT","f","1","false","","","",""
"","html-keyboard-response","261","401732","0.0-432.0","yfpp9st5","1440","900","","","","","","","","","","","null","+","Fixation - short","","null","","","","","","","","","","","","","","","","",""
"","html-keyboard-response","262","402255","0.0-433.0","yfpp9st5","","","","","","","","","","","","","521","jsf","Diagnostic trial","","f","","5","3","10","false","false","false","both pre & post","RIGHT","LEFT","f","1","false","","","",""
"","html-keyboard-response","263","403008","0.0-436.0","yfpp9st5","1440","900","","","","","","","","","","","null","+","Fixation - short","","null","","","","","","","","","","","","","","","","",""
"","html-keyboard-response","264","403595","0.0-437.0","yfpp9st5","","","","","","","","","","","","","586","jsf","Diagnostic trial","","f","","5","4","10","false","false","false","both pre & post","RIGHT","LEFT","f","1","false","","","",""
"","html-keyboard-response","265","404347","0.0-440.0","yfpp9st5","1440","900","","","","","","","","","","","null","+","Fixation - short","","null","","","","","","","","","","","","","","","","",""
"","html-keyboard-response","266","404930","0.0-441.0","yfpp9st5","","","","","","","","","","","","","581","jsf","Diagnostic trial","","f","","5","5","10","false","false","false","both pre & post","RIGHT","LEFT","f","1","false","","","",""
"","html-keyboard-response","267","405682","0.0-444.0","yfpp9st5","1440","900","","","","","","","","","","","null","+","Fixation - short","","null","","","","","","","","","","","","","","","","",""
"","html-keyboard-response","268","406558","0.0-445.0","yfpp9st5","","","","","","","","","","","","","874","zpl","Diagnostic trial","","j","","5","6","10","false","false","true","both pre & post","LEFT","RIGHT","j","1","false","","","",""
"","html-keyboard-response","269","407310","0.0-448.0","yfpp9st5","1440","900","","","","","","","","","","","null","+","Fixation - short","","null","","","","","","","","","","","","","","","","",""
"","html-keyboard-response","270","407994","0.0-449.0","yfpp9st5","","","","","","","","","","","","","682","jsf","Diagnostic trial","","j","","5","7","10","false","false","true","both pre & post","RIGHT","RIGHT","j","1","true","","","",""
"","html-keyboard-response","271","408747","0.0-452.0","yfpp9st5","1440","900","","","","","","","","","","","null","+","Fixation - short","","null","","","","","","","","","","","","","","","","",""
"","html-keyboard-response","272","409391","0.0-453.0","yfpp9st5","","","","","","","","","","","","","643","jsf","Diagnostic trial","","f","","5","8","10","false","false","false","both pre & post","RIGHT","LEFT","f","1","false","","","",""
"","html-keyboard-response","273","410144","0.0-456.0","yfpp9st5","1440","900","","","","","","","","","","","null","+","Fixation - short","","null","","","","","","","","","","","","","","","","",""
"","html-keyboard-response","274","410590","0.0-457.0","yfpp9st5","","","","","","","","","","","","","446","jsf","Diagnostic trial","","f","","5","9","10","false","false","false","both pre & post","RIGHT","LEFT","f","1","false","","","",""
"","html-keyboard-response","275","411343","0.0-460.0","yfpp9st5","1440","900","","","","","","","","","","","null","+","Fixation - short","","null","","","","","","","","","","","","","","","","",""
"","canvas-keyboard-response","276","412596","0.0-461.0","yfpp9st5","","","","","","","","","","","","","null","Cue","Cue","","null","","5","9","","","false","","","","","","","","","","",""
"","html-keyboard-response","277","413348","0.0-462.0","yfpp9st5","1440","900","","","","","","","","","","","null","+","Fixation - short","","null","","","","","","","","","","","","","","","","",""
"","html-keyboard-response","278","413944","0.0-463.0","yfpp9st5","","","","","","","","","","","","","594","jsf","Diagnostic trial","","j","","5","10","10","true","false","true","both pre & post","RIGHT","RIGHT","j","1","true","","","",""
"","html-keyboard-response","279","414697","0.0-466.0","yfpp9st5","1440","900","","","","","","","","","","","null","+","Fixation - short","","null","","","","","","","","","","","","","","","","",""
"","html-keyboard-response","280","415428","0.0-467.0","yfpp9st5","","","","","","","","","","","","","729","zpl","Diagnostic trial","","j","","5","11","10","true","false","true","both pre & post","LEFT","RIGHT","j","1","false","","","",""
"","html-keyboard-response","281","416181","0.0-470.0","yfpp9st5","1440","900","","","","","","","","","","","null","+","Fixation - short","","null","","","","","","","","","","","","","","","","",""
"","html-keyboard-response","282","416953","0.0-471.0","yfpp9st5","","","","","","","","","","","","","770","jsf","Inducer trial","","f","","5","","","","true","","","","","j","0","","false","RIGHT","",""
"","call-function","283","416954","0.0-473.0-0.0","yfpp9st5","","","","","","","","","","","","","","","","","","","","","","","","","","","","","","","","","",""
"","html-keyboard-response","284","417256","0.0-473.0-1.0","yfpp9st5","1440","900","","","","","","","","","","","null","Wrong","Feedback","","null","","","","","","","","","","","","","","","","",""
"","call-function","285","417257","0.0-473.0-2.0","yfpp9st5","","","","","","","","","","","","","","","","","","","","","","","","","","","","","","","","","",""
"","html-keyboard-response","286","418010","0.0-474.0","yfpp9st5","1440","900","","","","","","","","","","","null","+","Fixation - short","","null","","","","","","","","","","","","","","","","",""
"","html-keyboard-response","287","419494","0.0-475.0","yfpp9st5","","","","","","","","","","","","","1482","If uus press RIGHT | If pte press LEFT","Inducer instructions",""," ","","6","","","","","","","","","","","","","","",""
"","html-keyboard-response","288","420247","0.0-476.0","yfpp9st5","1440","900","","","","","","","","","","","null","+","Fixation - short","","null","","","","","","","","","","","","","","","","",""
"","html-keyboard-response","289","421060","0.0-477.0","yfpp9st5","","","","","","","","","","","","","812","uus","Diagnostic trial","","f","","6","0","9","false","false","false","both pre & post","RIGHT","LEFT","f","1","false","","","",""
"","html-keyboard-response","290","421813","0.0-480.0","yfpp9st5","1440","900","","","","","","","","","","","null","+","Fixation - short","","null","","","","","","","","","","","","","","","","",""
"","html-keyboard-response","291","422320","0.0-481.0","yfpp9st5","","","","","","","","","","","","","506","uus","Diagnostic trial","","f","","6","1","9","false","false","false","both pre & post","RIGHT","LEFT","f","1","false","","","",""
"","html-keyboard-response","292","423073","0.0-484.0","yfpp9st5","1440","900","","","","","","","","","","","null","+","Fixation - short","","null","","","","","","","","","","","","","","","","",""
"","html-keyboard-response","293","423672","0.0-485.0","yfpp9st5","","","","","","","","","","","","","597","uus","Diagnostic trial","","f","","6","2","9","false","false","false","both pre & post","RIGHT","LEFT","f","1","false","","","",""
"","html-keyboard-response","294","424424","0.0-488.0","yfpp9st5","1440","900","","","","","","","","","","","null","+","Fixation - short","","null","","","","","","","","","","","","","","","","",""
"","html-keyboard-response","295","425025","0.0-489.0","yfpp9st5","","","","","","","","","","","","","599","pte","Diagnostic trial","","f","","6","3","9","false","false","false","both pre & post","LEFT","LEFT","f","1","true","","","",""
"","html-keyboard-response","296","425777","0.0-492.0","yfpp9st5","1440","900","","","","","","","","","","","null","+","Fixation - short","","null","","","","","","","","","","","","","","","","",""
"","html-keyboard-response","297","426657","0.0-493.0","yfpp9st5","","","","","","","","","","","","","878","uus","Diagnostic trial","","j","","6","4","9","false","false","true","both pre & post","RIGHT","RIGHT","j","1","true","","","",""
"","html-keyboard-response","298","427410","0.0-496.0","yfpp9st5","1440","900","","","","","","","","","","","null","+","Fixation - short","","null","","","","","","","","","","","","","","","","",""
"","html-keyboard-response","299","429413","0.0-497.0","yfpp9st5","","","","","","","","","","","","","null","pte","Diagnostic trial","","null","","6","5","9","false","false","false","both pre & post","LEFT","LEFT","f","NaN","true","","","",""
"","call-function","300","429414","0.0-498.0-0.0","yfpp9st5","","","","","","","","","","","","","","","","","","","","","","","","","","","","","","","","","",""
"","html-keyboard-response","301","429717","0.0-498.0-1.0","yfpp9st5","1440","900","","","","","","","","","","","null","Slow","Feedback","","null","","","","","","","","","","","","","","","","",""
"","call-function","302","429718","0.0-498.0-2.0","yfpp9st5","","","","","","","","","","","","","","","","","","","","","","","","","","","","","","","","","",""
"","html-keyboard-response","303","430471","0.0-500.0","yfpp9st5","1440","900","","","","","","","","","","","null","+","Fixation - short","","null","","","","","","","","","","","","","","","","",""
"","html-keyboard-response","304","431154","0.0-501.0","yfpp9st5","","","","","","","","","","","","","681","uus","Diagnostic trial","","j","","6","6","9","false","false","true","both pre & post","RIGHT","RIGHT","j","1","true","","","",""
"","html-keyboard-response","305","431907","0.0-504.0","yfpp9st5","1440","900","","","","","","","","","","","null","+","Fixation - short","","null","","","","","","","","","","","","","","","","",""
"","html-keyboard-response","306","432540","0.0-505.0","yfpp9st5","","","","","","","","","","","","","631","pte","Diagnostic trial","","j","","6","7","9","false","false","true","both pre & post","LEFT","RIGHT","j","1","false","","","",""
"","html-keyboard-response","307","433293","0.0-508.0","yfpp9st5","1440","900","","","","","","","","","","","null","+","Fixation - short","","null","","","","","","","","","","","","","","","","",""
"","html-keyboard-response","308","433787","0.0-509.0","yfpp9st5","","","","","","","","","","","","","492","pte","Diagnostic trial","","f","","6","8","9","false","false","false","both pre & post","LEFT","LEFT","f","1","true","","","",""
"","html-keyboard-response","309","434540","0.0-512.0","yfpp9st5","1440","900","","","","","","","","","","","null","+","Fixation - short","","null","","","","","","","","","","","","","","","","",""
"","canvas-keyboard-response","310","435793","0.0-513.0","yfpp9st5","","","","","","","","","","","","","null","Cue","Cue","","null","","6","8","","","false","","","","","","","","","","",""
"","html-keyboard-response","311","436546","0.0-514.0","yfpp9st5","1440","900","","","","","","","","","","","null","+","Fixation - short","","null","","","","","","","","","","","","","","","","",""
"","html-keyboard-response","312","437181","0.0-515.0","yfpp9st5","","","","","","","","","","","","","634","uus","Diagnostic trial","","f","","6","9","9","true","false","false","both pre & post","RIGHT","LEFT","f","1","false","","","",""
"","html-keyboard-response","313","437934","0.0-518.0","yfpp9st5","1440","900","","","","","","","","","","","null","+","Fixation - short","","null","","","","","","","","","","","","","","","","",""
"","html-keyboard-response","314","438401","0.0-519.0","yfpp9st5","","","","","","","","","","","","","465","uus","Diagnostic trial","","f","","6","10","9","true","false","false","both pre & post","RIGHT","LEFT","f","1","false","","","",""
"","html-keyboard-response","315","439154","0.0-522.0","yfpp9st5","1440","900","","","","","","","","","","","null","+","Fixation - short","","null","","","","","","","","","","","","","","","","",""
"","html-keyboard-response","316","439581","0.0-523.0","yfpp9st5","","","","","","","","","","","","","425","uus","Diagnostic trial","","f","","6","11","9","true","false","false","both pre & post","RIGHT","LEFT","f","1","false","","","",""
"","html-keyboard-response","317","440333","0.0-526.0","yfpp9st5","1440","900","","","","","","","","","","","null","+","Fixation - short","","null","","","","","","","","","","","","","","","","",""
"","html-keyboard-response","318","440868","0.0-527.0","yfpp9st5","","","","","","","","","","","","","533","uus","Diagnostic trial","","f","","6","12","9","true","false","true","both pre & post","RIGHT","RIGHT","j","0","true","","","",""
"","call-function","319","440869","0.0-529.0-0.0","yfpp9st5","","","","","","","","","","","","","","","","","","","","","","","","","","","","","","","","","",""
"","html-keyboard-response","320","441171","0.0-529.0-1.0","yfpp9st5","1440","900","","","","","","","","","","","null","Wrong","Feedback","","null","","","","","","","","","","","","","","","","",""
"","call-function","321","441173","0.0-529.0-2.0","yfpp9st5","","","","","","","","","","","","","","","","","","","","","","","","","","","","","","","","","",""
"","html-keyboard-response","322","441925","0.0-530.0","yfpp9st5","1440","900","","","","","","","","","","","null","+","Fixation - short","","null","","","","","","","","","","","","","","","","",""
"","html-keyboard-response","323","442914","0.0-531.0","yfpp9st5","","","","","","","","","","","","","987","uus","Inducer trial","","j","","6","","","","true","","","","","j","1","","false","RIGHT","",""
"","html-keyboard-response","324","443667","0.0-534.0","yfpp9st5","1440","900","","","","","","","","","","","null","+","Fixation - short","","null","","","","","","","","","","","","","","","","",""
"","html-keyboard-response","325","445057","0.0-535.0","yfpp9st5","","","","","","","","","","","","","1388","If ecl press RIGHT | If idy press LEFT","Inducer instructions",""," ","","7","","","","","","","","","","","","","","",""
"","html-keyboard-response","326","445810","0.0-536.0","yfpp9st5","1440","900","","","","","","","","","","","null","+","Fixation - short","","null","","","","","","","","","","","","","","","","",""
"","html-keyboard-response","327","446501","0.0-537.0","yfpp9st5","","","","","","","","","","","","","689","idy","Diagnostic trial","","f","","7","0","5","false","false","false","both pre & post","LEFT","LEFT","f","1","true","","","",""
"","html-keyboard-response","328","447254","0.0-540.0","yfpp9st5","1440","900","","","","","","","","","","","null","+","Fixation - short","","null","","","","","","","","","","","","","","","","",""
"","html-keyboard-response","329","447870","0.0-541.0","yfpp9st5","","","","","","","","","","","","","614","idy","Diagnostic trial","","j","","7","1","5","false","false","true","both pre & post","LEFT","RIGHT","j","1","false","","","",""
"","html-keyboard-response","330","448623","0.0-544.0","yfpp9st5","1440","900","","","","","","","","","","","null","+","Fixation - short","","null","","","","","","","","","","","","","","","","",""
"","html-keyboard-response","331","449241","0.0-545.0","yfpp9st5","","","","","","","","","","","","","618","idy","Diagnostic trial","","f","","7","2","5","false","false","false","both pre & post","LEFT","LEFT","f","1","true","","","",""
"","html-keyboard-response","332","449994","0.0-548.0","yfpp9st5","1440","900","","","","","","","","","","","null","+","Fixation - short","","null","","","","","","","","","","","","","","","","",""
"","html-keyboard-response","333","450720","0.0-549.0","yfpp9st5","","","","","","","","","","","","","724","idy","Diagnostic trial","","j","","7","3","5","false","false","false","both pre & post","LEFT","LEFT","f","0","true","","","",""
"","call-function","334","450721","0.0-551.0-0.0","yfpp9st5","","","","","","","","","","","","","","","","","","","","","","","","","","","","","","","","","",""
"","html-keyboard-response","335","451023","0.0-551.0-1.0","yfpp9st5","1440","900","","","","","","","","","","","null","Wrong","Feedback","","null","","","","","","","","","","","","","","","","",""
"","call-function","336","451024","0.0-551.0-2.0","yfpp9st5","","","","","","","","","","","","","","","","","","","","","","","","","","","","","","","","","",""
"","html-keyboard-response","337","451777","0.0-552.0","yfpp9st5","1440","900","","","","","","","","","","","null","+","Fixation - short","","null","","","","","","","","","","","","","","","","",""
"","html-keyboard-response","338","452313","0.0-553.0","yfpp9st5","","","","","","","","","","","","","535","idy","Diagnostic trial","","j","","7","4","5","false","false","true","both pre & post","LEFT","RIGHT","j","1","false","","","",""
"","html-keyboard-response","339","453065","0.0-556.0","yfpp9st5","1440","900","","","","","","","","","","","null","+","Fixation - short","","null","","","","","","","","","","","","","","","","",""
"","canvas-keyboard-response","340","454318","0.0-557.0","yfpp9st5","","","","","","","","","","","","","null","Cue","Cue","","null","","7","4","","","false","","","","","","","","","","",""
"","html-keyboard-response","341","455071","0.0-558.0","yfpp9st5","1440","900","","","","","","","","","","","null","+","Fixation - short","","null","","","","","","","","","","","","","","","","",""
"","html-keyboard-response","342","455913","0.0-559.0","yfpp9st5","","","","","","","","","","","","","842","ecl","Diagnostic trial","","j","","7","5","5","true","false","true","both pre & post","RIGHT","RIGHT","j","1","true","","","",""
"","html-keyboard-response","343","456666","0.0-562.0","yfpp9st5","1440","900","","","","","","","","","","","null","+","Fixation - short","","null","","","","","","","","","","","","","","","","",""
"","html-keyboard-response","344","457733","0.0-563.0","yfpp9st5","","","","","","","","","","","","","1065","idy","Inducer trial","","f","","7","","","","true","","","","","f","1","","false","LEFT","",""
"","html-keyboard-response","345","458485","0.0-566.0","yfpp9st5","1440","900","","","","","","","","","","","null","+","Fixation - short","","null","","","","","","","","","","","","","","","","",""
"","html-keyboard-response","346","459322","0.0-567.0","yfpp9st5","","","","","","","","","","","","","835","If asn press RIGHT | If gfm press LEFT","Inducer instructions",""," ","","8","","","","","","","","","","","","","","",""
"","html-keyboard-response","347","460075","0.0-568.0","yfpp9st5","1440","900","","","","","","","","","","","null","+","Fixation - short","","null","","","","","","","","","","","","","","","","",""
"","html-keyboard-response","348","460928","0.0-569.0","yfpp9st5","","","","","","","","","","","","","851","asn","Diagnostic trial","","j","","8","0","8","false","false","true","both pre & post","RIGHT","RIGHT","j","1","true","","","",""
"","html-keyboard-response","349","461681","0.0-572.0","yfpp9st5","1440","900","","","","","","","","","","","null","+","Fixation - short","","null","","","","","","","","","","","","","","","","",""
"","html-keyboard-response","350","462419","0.0-573.0","yfpp9st5","","","","","","","","","","","","","737","asn","Diagnostic trial","","f","","8","1","8","false","false","false","both pre & post","RIGHT","LEFT","f","1","false","","","",""
"","html-keyboard-response","351","463171","0.0-576.0","yfpp9st5","1440","900","","","","","","","","","","","null","+","Fixation - short","","null","","","","","","","","","","","","","","","","",""
"","html-keyboard-response","352","463777","0.0-577.0","yfpp9st5","","","","","","","","","","","","","604","gfm","Diagnostic trial","","j","","8","2","8","false","false","true","both pre & post","LEFT","RIGHT","j","1","false","","","",""
"","html-keyboard-response","353","464530","0.0-580.0","yfpp9st5","1440","900","","","","","","","","","","","null","+","Fixation - short","","null","","","","","","","","","","","","","","","","",""
"","html-keyboard-response","354","465312","0.0-581.0","yfpp9st5","","","","","","","","","","","","","780","asn","Diagnostic trial","","f","","8","3","8","false","false","false","both pre & post","RIGHT","LEFT","f","1","false","","","",""
"","html-keyboard-response","355","466065","0.0-584.0","yfpp9st5","1440","900","","","","","","","","","","","null","+","Fixation - short","","null","","","","","","","","","","","","","","","","",""
"","html-keyboard-response","356","466686","0.0-585.0","yfpp9st5","","","","","","","","","","","","","620","asn","Diagnostic trial","","j","","8","4","8","false","false","true","both pre & post","RIGHT","RIGHT","j","1","true","","","",""
"","html-keyboard-response","357","467439","0.0-588.0","yfpp9st5","1440","900","","","","","","","","","","","null","+","Fixation - short","","null","","","","","","","","","","","","","","","","",""
"","html-keyboard-response","358","468085","0.0-589.0","yfpp9st5","","","","","","","","","","","","","645","gfm","Diagnostic trial","","f","","8","5","8","false","false","false","both pre & post","LEFT","LEFT","f","1","true","","","",""
"","html-keyboard-response","359","468838","0.0-592.0","yfpp9st5","1440","900","","","","","","","","","","","null","+","Fixation - short","","null","","","","","","","","","","","","","","","","",""
"","html-keyboard-response","360","469698","0.0-593.0","yfpp9st5","","","","","","","","","","","","","858","asn","Diagnostic trial","","f","","8","6","8","false","false","false","both pre & post","RIGHT","LEFT","f","1","false","","","",""
"","html-keyboard-response","361","470450","0.0-596.0","yfpp9st5","1440","900","","","","","","","","","","","null","+","Fixation - short","","null","","","","","","","","","","","","","","","","",""
"","html-keyboard-response","362","471088","0.0-597.0","yfpp9st5","","","","","","","","","","","","","636","asn","Diagnostic trial","","j","","8","7","8","false","false","true","both pre & post","RIGHT","RIGHT","j","1","true","","","",""
"","html-keyboard-response","363","471841","0.0-600.0","yfpp9st5","1440","900","","","","","","","","","","","null","+","Fixation - short","","null","","","","","","","","","","","","","","","","",""
"","canvas-keyboard-response","364","473093","0.0-601.0","yfpp9st5","","","","","","","","","","","","","null","Cue","Cue","","null","","8","7","","","false","","","","","","","","","","",""
"","html-keyboard-response","365","473846","0.0-602.0","yfpp9st5","1440","900","","","","","","","","","","","null","+","Fixation - short","","null","","","","","","","","","","","","","","","","",""
"","html-keyboard-response","366","474821","0.0-603.0","yfpp9st5","","","","","","","","","","","","","973","asn","Inducer trial","","j","","8","","","","true","","","","","j","1","","false","RIGHT","",""
"","html-keyboard-response","367","475574","0.0-606.0","yfpp9st5","1440","900","","","","","","","","","","","null","+","Fixation - short","","null","","","","","","","","","","","","","","","","",""
"","html-keyboard-response","368","476183","0.0-607.0","yfpp9st5","","","","","","","","","","","","","608","If hfs press RIGHT | If flh press LEFT","Inducer instructions",""," ","","9","","","","","","","","","","","","","","",""
"","html-keyboard-response","369","476936","0.0-608.0","yfpp9st5","1440","900","","","","","","","","","","","null","+","Fixation - short","","null","","","","","","","","","","","","","","","","",""
"","html-keyboard-response","370","478198","0.0-609.0","yfpp9st5","","","","","","","","","","","","","1260","flh","Diagnostic trial","","j","","9","0","10","false","false","true","both pre & post","LEFT","RIGHT","j","1","false","","","",""
"","html-keyboard-response","371","478949","0.0-612.0","yfpp9st5","1440","900","","","","","","","","","","","null","+","Fixation - short","","null","","","","","","","","","","","","","","","","",""
"","html-keyboard-response","372","479511","0.0-613.0","yfpp9st5","","","","","","","","","","","","","560","hfs","Diagnostic trial","","j","","9","1","10","false","false","true","both pre & post","RIGHT","RIGHT","j","1","true","","","",""
"","html-keyboard-response","373","480262","0.0-616.0","yfpp9st5","1440","900","","","","","","","","","","","null","+","Fixation - short","","null","","","","","","","","","","","","","","","","",""
"","html-keyboard-response","374","480709","0.0-617.0","yfpp9st5","","","","","","","","","","","","","446","hfs","Diagnostic trial","","j","","9","2","10","false","false","true","both pre & post","RIGHT","RIGHT","j","1","true","","","",""
"","html-keyboard-response","375","481462","0.0-620.0","yfpp9st5","1440","900","","","","","","","","","","","null","+","Fixation - short","","null","","","","","","","","","","","","","","","","",""
"","html-keyboard-response","376","482166","0.0-621.0","yfpp9st5","","","","","","","","","","","","","703","flh","Diagnostic trial","","f","","9","3","10","false","false","false","both pre & post","LEFT","LEFT","f","1","true","","","",""
"","html-keyboard-response","377","482919","0.0-624.0","yfpp9st5","1440","900","","","","","","","","","","","null","+","Fixation - short","","null","","","","","","","","","","","","","","","","",""
"","html-keyboard-response","378","483561","0.0-625.0","yfpp9st5","","","","","","","","","","","","","640","flh","Diagnostic trial","","f","","9","4","10","false","false","false","both pre & post","LEFT","LEFT","f","1","true","","","",""
"","html-keyboard-response","379","484313","0.0-628.0","yfpp9st5","1440","900","","","","","","","","","","","null","+","Fixation - short","","null","","","","","","","","","","","","","","","","",""
"","html-keyboard-response","380","485039","0.0-629.0","yfpp9st5","","","","","","","","","","","","","724","hfs","Diagnostic trial","","f","","9","5","10","false","false","false","both pre & post","RIGHT","LEFT","f","1","false","","","",""
"","html-keyboard-response","381","485792","0.0-632.0","yfpp9st5","1440","900","","","","","","","","","","","null","+","Fixation - short","","null","","","","","","","","","","","","","","","","",""
"","html-keyboard-response","382","486431","0.0-633.0","yfpp9st5","","","","","","","","","","","","","638","flh","Diagnostic trial","","f","","9","6","10","false","false","false","both pre & post","LEFT","LEFT","f","1","true","","","",""
"","html-keyboard-response","383","487184","0.0-636.0","yfpp9st5","1440","900","","","","","","","","","","","null","+","Fixation - short","","null","","","","","","","","","","","","","","","","",""
"","html-keyboard-response","384","487668","0.0-637.0","yfpp9st5","","","","","","","","","","","","","482","flh","Diagnostic trial","","j","","9","7","10","false","false","true","both pre & post","LEFT","RIGHT","j","1","false","","","",""
"","html-keyboard-response","385","488421","0.0-640.0","yfpp9st5","1440","900","","","","","","","","","","","null","+","Fixation - short","","null","","","","","","","","","","","","","","","","",""
"","html-keyboard-response","386","488977","0.0-641.0","yfpp9st5","","","","","","","","","","","","","555","hfs","Diagnostic trial","","j","","9","8","10","false","false","true","both pre & post","RIGHT","RIGHT","j","1","true","","","",""
"","html-keyboard-response","387","489730","0.0-644.0","yfpp9st5","1440","900","","","","","","","","","","","null","+","Fixation - short","","null","","","","","","","","","","","","","","","","",""
"","html-keyboard-response","388","490294","0.0-645.0","yfpp9st5","","","","","","","","","","","","","562","hfs","Diagnostic trial","","j","","9","9","10","false","false","true","both pre & post","RIGHT","RIGHT","j","1","true","","","",""
"","html-keyboard-response","389","491046","0.0-648.0","yfpp9st5","1440","900","","","","","","","","","","","null","+","Fixation - short","","null","","","","","","","","","","","","","","","","",""
"","canvas-keyboard-response","390","492298","0.0-649.0","yfpp9st5","","","","","","","","","","","","","null","Cue","Cue","","null","","9","9","","","false","","","","","","","","","","",""
"","html-keyboard-response","391","493051","0.0-650.0","yfpp9st5","1440","900","","","","","","","","","","","null","+","Fixation - short","","null","","","","","","","","","","","","","","","","",""
"","html-keyboard-response","392","493668","0.0-651.0","yfpp9st5","","","","","","","","","","","","","615","hfs","Diagnostic trial","","j","","9","10","10","true","false","true","both pre & post","RIGHT","RIGHT","j","1","true","","","",""
"","html-keyboard-response","393","494420","0.0-654.0","yfpp9st5","1440","900","","","","","","","","","","","null","+","Fixation - short","","null","","","","","","","","","","","","","","","","",""
"","html-keyboard-response","394","495024","0.0-655.0","yfpp9st5","","","","","","","","","","","","","602","flh","Diagnostic trial","","f","","9","11","10","true","false","false","both pre & post","LEFT","LEFT","f","1","true","","","",""
"","html-keyboard-response","395","495777","0.0-658.0","yfpp9st5","1440","900","","","","","","","","","","","null","+","Fixation - short","","null","","","","","","","","","","","","","","","","",""
"","html-keyboard-response","396","496244","0.0-659.0","yfpp9st5","","","","","","","","","","","","","465","hfs","Diagnostic trial","","f","","9","12","10","true","false","true","both pre & post","RIGHT","RIGHT","j","0","true","","","",""
"","call-function","397","496245","0.0-661.0-0.0","yfpp9st5","","","","","","","","","","","","","","","","","","","","","","","","","","","","","","","","","",""
"","html-keyboard-response","398","496547","0.0-661.0-1.0","yfpp9st5","1440","900","","","","","","","","","","","null","Wrong","Feedback","","null","","","","","","","","","","","","","","","","",""
"","call-function","399","496548","0.0-661.0-2.0","yfpp9st5","","","","","","","","","","","","","","","","","","","","","","","","","","","","","","","","","",""
"","html-keyboard-response","400","497300","0.0-662.0","yfpp9st5","1440","900","","","","","","","","","","","null","+","Fixation - short","","null","","","","","","","","","","","","","","","","",""
"","html-keyboard-response","401","497934","0.0-663.0","yfpp9st5","","","","","","","","","","","","","633","hfs","Diagnostic trial","","j","","9","13","10","true","false","true","both pre & post","RIGHT","RIGHT","j","1","true","","","",""
"","html-keyboard-response","402","498687","0.0-666.0","yfpp9st5","1440","900","","","","","","","","","","","null","+","Fixation - short","","null","","","","","","","","","","","","","","","","",""
"","html-keyboard-response","403","499608","0.0-667.0","yfpp9st5","","","","","","","","","","","","","920","flh","Inducer trial","","f","","9","","","","true","","","","","f","1","","false","LEFT","",""
"","html-keyboard-response","404","500360","0.0-670.0","yfpp9st5","1440","900","","","","","","","","","","","null","+","Fixation - short","","null","","","","","","","","","","","","","","","","",""
"","html-keyboard-response","405","501015","0.0-671.0","yfpp9st5","","","","","","","","","","","","","653","If bwe press RIGHT | If ibg press LEFT","Inducer instructions",""," ","","10","","","","","","","","","","","","","","",""
"","html-keyboard-response","406","501767","0.0-672.0","yfpp9st5","1440","900","","","","","","","","","","","null","+","Fixation - short","","null","","","","","","","","","","","","","","","","",""
"","html-keyboard-response","407","502588","0.0-673.0","yfpp9st5","","","","","","","","","","","","","820","bwe","Diagnostic trial","","j","","10","0","6","false","false","true","both pre & post","RIGHT","RIGHT","j","1","true","","","",""
"","html-keyboard-response","408","503341","0.0-676.0","yfpp9st5","1440","900","","","","","","","","","","","null","+","Fixation - short","","null","","","","","","","","","","","","","","","","",""
"","html-keyboard-response","409","503847","0.0-677.0","yfpp9st5","","","","","","","","","","","","","505","ibg","Diagnostic trial","","j","","10","1","6","false","false","true","both pre & post","LEFT","RIGHT","j","1","false","","","",""
"","html-keyboard-response","410","504600","0.0-680.0","yfpp9st5","1440","900","","","","","","","","","","","null","+","Fixation - short","","null","","","","","","","","","","","","","","","","",""
"","html-keyboard-response","411","505322","0.0-681.0","yfpp9st5","","","","","","","","","","","","","720","ibg","Diagnostic trial","","f","","10","2","6","false","false","false","both pre & post","LEFT","LEFT","f","1","true","","","",""
"","html-keyboard-response","412","506074","0.0-684.0","yfpp9st5","1440","900","","","","","","","","","","","null","+","Fixation - short","","null","","","","","","","","","","","","","","","","",""
"","html-keyboard-response","413","506597","0.0-685.0","yfpp9st5","","","","","","","","","","","","","522","ibg","Diagnostic trial","","j","","10","3","6","false","false","true","both pre & post","LEFT","RIGHT","j","1","false","","","",""
"","html-keyboard-response","414","507350","0.0-688.0","yfpp9st5","1440","900","","","","","","","","","","","null","+","Fixation - short","","null","","","","","","","","","","","","","","","","",""
"","html-keyboard-response","415","508438","0.0-689.0","yfpp9st5","","","","","","","","","","","","","1086","bwe","Diagnostic trial","","f","","10","4","6","false","false","false","both pre & post","RIGHT","LEFT","f","1","false","","","",""
"","html-keyboard-response","416","509191","0.0-692.0","yfpp9st5","1440","900","","","","","","","","","","","null","+","Fixation - short","","null","","","","","","","","","","","","","","","","",""
"","html-keyboard-response","417","509875","0.0-693.0","yfpp9st5","","","","","","","","","","","","","682","bwe","Diagnostic trial","","j","","10","5","6","false","false","true","both pre & post","RIGHT","RIGHT","j","1","true","","","",""
"","html-keyboard-response","418","510628","0.0-696.0","yfpp9st5","1440","900","","","","","","","","","","","null","+","Fixation - short","","null","","","","","","","","","","","","","","","","",""
"","canvas-keyboard-response","419","511881","0.0-697.0","yfpp9st5","","","","","","","","","","","","","null","Cue","Cue","","null","","10","5","","","false","","","","","","","","","","",""
"","html-keyboard-response","420","512633","0.0-698.0","yfpp9st5","1440","900","","","","","","","","","","","null","+","Fixation - short","","null","","","","","","","","","","","","","","","","",""
"","html-keyboard-response","421","513278","0.0-699.0","yfpp9st5","","","","","","","","","","","","","643","ibg","Diagnostic trial","","j","","10","6","6","true","false","true","both pre & post","LEFT","RIGHT","j","1","false","","","",""
"","html-keyboard-response","422","514031","0.0-702.0","yfpp9st5","1440","900","","","","","","","","","","","null","+","Fixation - short","","null","","","","","","","","","","","","","","","","",""
"","html-keyboard-response","423","514772","0.0-703.0","yfpp9st5","","","","","","","","","","","","","739","bwe","Diagnostic trial","","f","","10","7","6","true","false","false","both pre & post","RIGHT","LEFT","f","1","false","","","",""
"","html-keyboard-response","424","515525","0.0-706.0","yfpp9st5","1440","900","","","","","","","","","","","null","+","Fixation - short","","null","","","","","","","","","","","","","","","","",""
"","html-keyboard-response","425","516222","0.0-707.0","yfpp9st5","","","","","","","","","","","","","695","ibg","Diagnostic trial","","j","","10","8","6","true","false","true","both pre & post","LEFT","RIGHT","j","1","false","","","",""
"","html-keyboard-response","426","516975","0.0-710.0","yfpp9st5","1440","900","","","","","","","","","","","null","+","Fixation - short","","null","","","","","","","","","","","","","","","","",""
"","html-keyboard-response","427","517584","0.0-711.0","yfpp9st5","","","","","","","","","","","","","608","ibg","Diagnostic trial","","f","","10","9","6","true","false","false","both pre & post","LEFT","LEFT","f","1","true","","","",""
"","html-keyboard-response","428","518337","0.0-714.0","yfpp9st5","1440","900","","","","","","","","","","","null","+","Fixation - short","","null","","","","","","","","","","","","","","","","",""
"","html-keyboard-response","429","518747","0.0-715.0","yfpp9st5","","","","","","","","","","","","","408","bwe","Inducer trial","","j","","10","","","","true","","","","","j","1","","false","RIGHT","",""
"","html-keyboard-response","430","519499","0.0-718.0","yfpp9st5","1440","900","","","","","","","","","","","null","+","Fixation - short","","null","","","","","","","","","","","","","","","","",""
"","html-keyboard-response","431","520074","0.0-719.0","yfpp9st5","","","","","","","","","","","","","573","If slu press RIGHT | If eeu press LEFT","Inducer instructions",""," ","","11","","","","","","","","","","","","","","",""
"","html-keyboard-response","432","520827","0.0-720.0","yfpp9st5","1440","900","","","","","","","","","","","null","+","Fixation - short","","null","","","","","","","","","","","","","","","","",""
"","html-keyboard-response","433","521715","0.0-721.0","yfpp9st5","","","","","","","","","","","","","887","slu","Diagnostic trial","","j","","11","0","5","false","false","true","both pre & post","RIGHT","RIGHT","j","1","true","","","",""
"","html-keyboard-response","434","522468","0.0-724.0","yfpp9st5","1440","900","","","","","","","","","","","null","+","Fixation - short","","null","","","","","","","","","","","","","","","","",""
"","html-keyboard-response","435","523133","0.0-725.0","yfpp9st5","","","","","","","","","","","","","664","eeu","Diagnostic trial","","f","","11","1","5","false","false","false","both pre & post","LEFT","LEFT","f","1","true","","","",""
"","html-keyboard-response","436","523886","0.0-728.0","yfpp9st5","1440","900","","","","","","","","","","","null","+","Fixation - short","","null","","","","","","","","","","","","","","","","",""
"","html-keyboard-response","437","524455","0.0-729.0","yfpp9st5","","","","","","","","","","","","","568","slu","Diagnostic trial","","j","","11","2","5","false","false","true","both pre & post","RIGHT","RIGHT","j","1","true","","","",""
"","html-keyboard-response","438","525208","0.0-732.0","yfpp9st5","1440","900","","","","","","","","","","","null","+","Fixation - short","","null","","","","","","","","","","","","","","","","",""
"","html-keyboard-response","439","525763","0.0-733.0","yfpp9st5","","","","","","","","","","","","","553","slu","Diagnostic trial","","j","","11","3","5","false","false","false","both pre & post","RIGHT","LEFT","f","0","false","","","",""
"","call-function","440","525765","0.0-735.0-0.0","yfpp9st5","","","","","","","","","","","","","","","","","","","","","","","","","","","","","","","","","",""
"","html-keyboard-response","441","526067","0.0-735.0-1.0","yfpp9st5","1440","900","","","","","","","","","","","null","Wrong","Feedback","","null","","","","","","","","","","","","","","","","",""
"","call-function","442","526068","0.0-735.0-2.0","yfpp9st5","","","","","","","","","","","","","","","","","","","","","","","","","","","","","","","","","",""
"","html-keyboard-response","443","526820","0.0-736.0","yfpp9st5","1440","900","","","","","","","","","","","null","+","Fixation - short","","null","","","","","","","","","","","","","","","","",""
"","html-keyboard-response","444","527441","0.0-737.0","yfpp9st5","","","","","","","","","","","","","620","slu","Diagnostic trial","","j","","11","4","5","false","false","true","both pre & post","RIGHT","RIGHT","j","1","true","","","",""
"","html-keyboard-response","445","528193","0.0-740.0","yfpp9st5","1440","900","","","","","","","","","","","null","+","Fixation - short","","null","","","","","","","","","","","","","","","","",""
"","canvas-keyboard-response","446","529446","0.0-741.0","yfpp9st5","","","","","","","","","","","","","null","Cue","Cue","","null","","11","4","","","false","","","","","","","","","","",""
"","html-keyboard-response","447","530199","0.0-742.0","yfpp9st5","1440","900","","","","","","","","","","","null","+","Fixation - short","","null","","","","","","","","","","","","","","","","",""
"","html-keyboard-response","448","531010","0.0-743.0","yfpp9st5","","","","","","","","","","","","","809","slu","Diagnostic trial","","f","","11","5","5","true","false","false","both pre & post","RIGHT","LEFT","f","1","false","","","",""
"","html-keyboard-response","449","531763","0.0-746.0","yfpp9st5","1440","900","","","","","","","","","","","null","+","Fixation - short","","null","","","","","","","","","","","","","","","","",""
"","html-keyboard-response","450","532298","0.0-747.0","yfpp9st5","","","","","","","","","","","","","533","slu","Diagnostic trial","","f","","11","6","5","true","false","false","both pre & post","RIGHT","LEFT","f","1","false","","","",""
"","html-keyboard-response","451","533051","0.0-750.0","yfpp9st5","1440","900","","","","","","","","","","","null","+","Fixation - short","","null","","","","","","","","","","","","","","","","",""
"","html-keyboard-response","452","533812","0.0-751.0","yfpp9st5","","","","","","","","","","","","","759","slu","Diagnostic trial","","j","","11","7","5","true","false","true","both pre & post","RIGHT","RIGHT","j","1","true","","","",""
"","html-keyboard-response","453","534565","0.0-754.0","yfpp9st5","1440","900","","","","","","","","","","","null","+","Fixation - short","","null","","","","","","","","","","","","","","","","",""
"","html-keyboard-response","454","535378","0.0-755.0","yfpp9st5","","","","","","","","","","","","","811","eeu","Diagnostic trial","","f","","11","8","5","true","false","false","both pre & post","LEFT","LEFT","f","1","true","","","",""
"","html-keyboard-response","455","536131","0.0-758.0","yfpp9st5","1440","900","","","","","","","","","","","null","+","Fixation - short","","null","","","","","","","","","","","","","","","","",""
"","html-keyboard-response","456","536611","0.0-759.0","yfpp9st5","","","","","","","","","","","","","479","eeu","Inducer trial","","f","","11","","","","true","","","","","f","1","","false","LEFT","",""
"","html-keyboard-response","457","537364","0.0-762.0","yfpp9st5","1440","900","","","","","","","","","","","null","+","Fixation - short","","null","","","","","","","","","","","","","","","","",""
"","html-keyboard-response","458","537946","0.0-763.0","yfpp9st5","","","","","","","","","","","","","581","If vnn press RIGHT | If glp press LEFT","Inducer instructions",""," ","","12","","","","","","","","","","","","","","",""
"","html-keyboard-response","459","538698","0.0-764.0","yfpp9st5","1440","900","","","","","","","","","","","null","+","Fixation - short","","null","","","","","","","","","","","","","","","","",""
"","html-keyboard-response","460","539372","0.0-765.0","yfpp9st5","","","","","","","","","","","","","672","glp","Diagnostic trial","","j","","12","0","8","false","false","false","both pre & post","LEFT","LEFT","f","0","true","","","",""
