"value","trial_type","trial_index","time_elapsed","internal_node_id","id","width","height","webaudio","browser","browser_version","mobile","os","fullscreen","vsync_rate","webcam","microphone","view_history","rt","stimulus","trial_info","success","response","exp_parameters","inducer_run","diagnostic_run","cue_num","post_cue","inducer_trial","italic","forced_equal_run","correct_inducer_response_side","correct_diag_response_side","correct_response_key","correct_response","congruent","force_equal","correct_indu_response_side","accuracy","interactive"
"","call-function","0","15","0.0-0.0","pysotzgo","","","","","","","","","","","","","","","","","","","","","","","","","","","","","","","","","",""
"","browser-check","1","1089","0.0-1.0","pysotzgo","1280","567","true","firefox","124.0.0","false","Windows 10","true","56.18","true","true","","","","","","","","","","","","","","","","","","","","","","",""
"","instructions","2","38317","0.0-2.0","pysotzgo","","","","","","","","","","","","[{""page_index"":0,""viewing_time"":22496},{""page_index"":1,""viewing_time"":12396},{""page_index"":2,""viewing_time"":2332}]","37225","The experiment and consent","The experiment and consent","","","","","","","","","","","","","","","","","","",""
"","fullscreen","3","43364","0.0-3.0","pysotzgo","","","","","","","","","","","","","3984","","Full screen","true","","","","","","","","","","","","","","","","","",""
"","instructions","4","64356","0.0-4.0","pysotzgo","","","","","","","","","","","","[{""page_index"":0,""viewing_time"":12024},{""page_index"":1,""viewing_time"":8965}]","20989","Instructions","Basic overview explanation","","","","","","","","","","","","","","","","","","",""
"","html-keyboard-response","5","74416","0.0-5.0","pysotzgo","","","","","","","","","","","","","8546","If italic press RIGHT | If upright press LEFT","Diagnostic instructions",""," ","{""debug"":false,""skip_instructions"":false,""skip_practice"":false,""save_local_data"":false,""studu_name"":""exp2"",""default_background_colour"":""#cccccc"",""wrong_response_colour"":""#d22d2d"",""instruction_delay"":20000,""trial_duration"":2000,""short_fixation"":750,""long_fixation"":1500,""wrong_response_delay"":300,""too_slow_delay"":300,""instruction_font_size"":""24px"",""general_font_size"":""42px"",""fixation_size"":""48px"",""allowed_responses"":[""f"",""j""],""cue_min_length"":0,""cue_max_length"":4,""tot_post_cue_len"":72,""cue_colour"":""yellow"",""cue_shape"":""Circle"",""cue_size"":70,""cue_duration"":1250,""avg_number_of_cues"":3,""inducer_colour"":""red"",""number_of_inducers"":24,""pre_cue_italic_forced_equal"":true,""post_cue_italic_forced_equal"":true,""prac_diagnostic_rounds"":16,""prac_inducer_rounds"":6,""prac_cue_rounds"":16,""prac_post_cue_num"":3}","","","","","","","","","","","","","","","",""
"","html-keyboard-response","6","75179","0.0-6.0","pysotzgo","1280","720","","","","","","","","","","","null","+","Fixation - short","","null","","","","","","","","","","","","","","","","",""
"","html-keyboard-response","7","76199","0.0-7.0","pysotzgo","","","","","","","","","","","","","1016","eht","Diagnostic practice","","f","","Diagnostic practice","0","-84","true","false","false","prac equal","RIGHT","LEFT","f","1","false","","","",""
"","html-keyboard-response","8","76960","0.0-10.0","pysotzgo","1280","720","","","","","","","","","","","null","+","Fixation - short","","null","","","","","","","","","","","","","","","","",""
"","html-keyboard-response","9","77556","0.0-11.0","pysotzgo","","","","","","","","","","","","","595","yrp","Diagnostic practice","","f","","Diagnostic practice","1","-84","true","false","false","prac equal","LEFT","LEFT","f","1","true","","","",""
"","html-keyboard-response","10","78315","0.0-14.0","pysotzgo","1280","720","","","","","","","","","","","null","+","Fixation - short","","null","","","","","","","","","","","","","","","","",""
"","html-keyboard-response","11","79111","0.0-15.0","pysotzgo","","","","","","","","","","","","","794","eht","Diagnostic practice","","j","","Diagnostic practice","2","-84","true","false","true","prac equal","RIGHT","RIGHT","j","1","true","","","",""
"","html-keyboard-response","12","79868","0.0-18.0","pysotzgo","1280","720","","","","","","","","","","","null","+","Fixation - short","","null","","","","","","","","","","","","","","","","",""
"","html-keyboard-response","13","80460","0.0-19.0","pysotzgo","","","","","","","","","","","","","590","yrp","Diagnostic practice","","f","","Diagnostic practice","3","-84","true","false","false","prac equal","LEFT","LEFT","f","1","true","","","",""
"","html-keyboard-response","14","81217","0.0-22.0","pysotzgo","1280","720","","","","","","","","","","","null","+","Fixation - short","","null","","","","","","","","","","","","","","","","",""
"","html-keyboard-response","15","81766","0.0-23.0","pysotzgo","","","","","","","","","","","","","547","eht","Diagnostic practice","","f","","Diagnostic practice","4","-84","true","false","false","prac equal","RIGHT","LEFT","f","1","false","","","",""
"","html-keyboard-response","16","82524","0.0-26.0","pysotzgo","1280","720","","","","","","","","","","","null","+","Fixation - short","","null","","","","","","","","","","","","","","","","",""
"","html-keyboard-response","17","83048","0.0-27.0","pysotzgo","","","","","","","","","","","","","523","eht","Diagnostic practice","","f","","Diagnostic practice","5","-84","true","false","false","prac equal","RIGHT","LEFT","f","1","false","","","",""
"","html-keyboard-response","18","83807","0.0-30.0","pysotzgo","1280","720","","","","","","","","","","","null","+","Fixation - short","","null","","","","","","","","","","","","","","","","",""
"","html-keyboard-response","19","84611","0.0-31.0","pysotzgo","","","","","","","","","","","","","802","yrp","Diagnostic practice","","j","","Diagnostic practice","6","-84","true","false","true","prac equal","LEFT","RIGHT","j","1","false","","","",""
"","html-keyboard-response","20","85366","0.0-34.0","pysotzgo","1280","720","","","","","","","","","","","null","+","Fixation - short","","null","","","","","","","","","","","","","","","","",""
"","html-keyboard-response","21","85922","0.0-35.0","pysotzgo","","","","","","","","","","","","","555","eht","Diagnostic practice","","j","","Diagnostic practice","7","-84","true","false","true","prac equal","RIGHT","RIGHT","j","1","true","","","",""
"","html-keyboard-response","22","86676","0.0-38.0","pysotzgo","1280","720","","","","","","","","","","","null","+","Fixation - short","","null","","","","","","","","","","","","","","","","",""
"","html-keyboard-response","23","87472","0.0-39.0","pysotzgo","","","","","","","","","","","","","793","yrp","Diagnostic practice","","f","","Diagnostic practice","8","-84","true","false","false","prac equal","LEFT","LEFT","f","1","true","","","",""
"","html-keyboard-response","24","88229","0.0-42.0","pysotzgo","1280","720","","","","","","","","","","","null","+","Fixation - short","","null","","","","","","","","","","","","","","","","",""
"","html-keyboard-response","25","88894","0.0-43.0","pysotzgo","","","","","","","","","","","","","662","eht","Diagnostic practice","","j","","Diagnostic practice","9","-84","true","false","true","prac equal","RIGHT","RIGHT","j","1","true","","","",""
"","html-keyboard-response","26","89647","0.0-46.0","pysotzgo","1280","720","","","","","","","","","","","null","+","Fixation - short","","null","","","","","","","","","","","","","","","","",""
"","html-keyboard-response","27","90229","0.0-47.0","pysotzgo","","","","","","","","","","","","","580","yrp","Diagnostic practice","","f","","Diagnostic practice","10","-84","true","false","false","prac equal","LEFT","LEFT","f","1","true","","","",""
"","html-keyboard-response","28","90989","0.0-50.0","pysotzgo","1280","720","","","","","","","","","","","null","+","Fixation - short","","null","","","","","","","","","","","","","","","","",""
"","html-keyboard-response","29","91534","0.0-51.0","pysotzgo","","","","","","","","","","","","","544","yrp","Diagnostic practice","","j","","Diagnostic practice","11","-84","true","false","true","prac equal","LEFT","RIGHT","j","1","false","","","",""
"","html-keyboard-response","30","92362","0.0-54.0","pysotzgo","1280","720","","","","","","","","","","","null","+","Fixation - short","","null","","","","","","","","","","","","","","","","",""
"","html-keyboard-response","31","93048","0.0-55.0","pysotzgo","","","","","","","","","","","","","685","eht","Diagnostic practice","","f","","Diagnostic practice","12","-84","true","false","false","prac equal","RIGHT","LEFT","f","1","false","","","",""
"","html-keyboard-response","32","93811","0.0-58.0","pysotzgo","1280","720","","","","","","","","","","","null","+","Fixation - short","","null","","","","","","","","","","","","","","","","",""
"","html-keyboard-response","33","94325","0.0-59.0","pysotzgo","","","","","","","","","","","","","512","eht","Diagnostic practice","","j","","Diagnostic practice","13","-84","true","false","true","prac equal","RIGHT","RIGHT","j","1","true","","","",""
"","html-keyboard-response","34","95082","0.0-62.0","pysotzgo","1280","720","","","","","","","","","","","null","+","Fixation - short","","null","","","","","","","","","","","","","","","","",""
"","html-keyboard-response","35","95754","0.0-63.0","pysotzgo","","","","","","","","","","","","","671","yrp","Diagnostic practice","","j","","Diagnostic practice","14","-84","true","false","true","prac equal","LEFT","RIGHT","j","1","false","","","",""
"","html-keyboard-response","36","96507","0.0-66.0","pysotzgo","1280","720","","","","","","","","","","","null","+","Fixation - short","","null","","","","","","","","","","","","","","","","",""
"","html-keyboard-response","37","97018","0.0-67.0","pysotzgo","","","","","","","","","","","","","510","yrp","Diagnostic practice","","j","","Diagnostic practice","15","-84","true","false","true","prac equal","LEFT","RIGHT","j","1","false","","","",""
"","html-keyboard-response","38","97778","0.0-70.0","pysotzgo","1280","720","","","","","","","","","","","null","+","Fixation - short","","null","","","","","","","","","","","","","","","","",""
"","instructions","39","105787","0.0-71.0","pysotzgo","","","","","","","","","","","","[{""page_index"":0,""viewing_time"":8007}]","8007","Instructions","Final experiment explanation","","","","","","","","","","","","","","","","","","",""
"","html-keyboard-response","40","113738","0.0-72.0","pysotzgo","","","","","","","","","","","","","6442","If rrd press RIGHT | If gso press LEFT","Inducer practice",""," ","","Practice","","","","","","","","","","","","","","",""
"","html-keyboard-response","41","114497","0.0-73.0","pysotzgo","1280","720","","","","","","","","","","","null","+","Fixation - short","","null","","","","","","","","","","","","","","","","",""
"","html-keyboard-response","42","115086","0.0-74.0","pysotzgo","","","","","","","","","","","","","589","gso","Inducer practice","","f","","Practice","","","","true","","","","","f","1","","true","LEFT","",""
"","html-keyboard-response","43","115842","0.0-77.0","pysotzgo","1280","720","","","","","","","","","","","null","+","Fixation - short","","null","","","","","","","","","","","","","","","","",""
"","html-keyboard-response","44","122979","0.0-78.0","pysotzgo","","","","","","","","","","","","","7135","If lff press RIGHT | If ufc press LEFT","Inducer practice",""," ","","Practice","","","","","","","","","","","","","","",""
"","html-keyboard-response","45","123735","0.0-79.0","pysotzgo","1280","720","","","","","","","","","","","null","+","Fixation - short","","null","","","","","","","","","","","","","","","","",""
"","html-keyboard-response","46","124372","0.0-80.0","pysotzgo","","","","","","","","","","","","","636","lff","Inducer practice","","j","","Practice","","","","true","","","","","j","1","","true","RIGHT","",""
"","html-keyboard-response","47","125131","0.0-83.0","pysotzgo","1280","720","","","","","","","","","","","null","+","Fixation - short","","null","","","","","","","","","","","","","","","","",""
"","html-keyboard-response","48","127965","0.0-84.0","pysotzgo","","","","","","","","","","","","","2833","If ois press RIGHT | If uen press LEFT","Inducer practice",""," ","","Practice","","","","","","","","","","","","","","",""
"","html-keyboard-response","49","128717","0.0-85.0","pysotzgo","1280","720","","","","","","","","","","","null","+","Fixation - short","","null","","","","","","","","","","","","","","","","",""
"","html-keyboard-response","50","129192","0.0-86.0","pysotzgo","","","","","","","","","","","","","473","ois","Inducer practice","","j","","Practice","","","","true","","","","","j","1","","true","RIGHT","",""
"","html-keyboard-response","51","129947","0.0-89.0","pysotzgo","1280","720","","","","","","","","","","","null","+","Fixation - short","","null","","","","","","","","","","","","","","","","",""
"","html-keyboard-response","52","132448","0.0-90.0","pysotzgo","","","","","","","","","","","","","2499","If hhd press RIGHT | If mda press LEFT","Inducer practice",""," ","","Practice","","","","","","","","","","","","","","",""
"","html-keyboard-response","53","133211","0.0-91.0","pysotzgo","1280","720","","","","","","","","","","","null","+","Fixation - short","","null","","","","","","","","","","","","","","","","",""
"","html-keyboard-response","54","133788","0.0-92.0","pysotzgo","","","","","","","","","","","","","576","mda","Inducer practice","","f","","Practice","","","","true","","","","","f","1","","true","LEFT","",""
"","html-keyboard-response","55","134551","0.0-95.0","pysotzgo","1280","720","","","","","","","","","","","null","+","Fixation - short","","null","","","","","","","","","","","","","","","","",""
"","html-keyboard-response","56","136496","0.0-96.0","pysotzgo","","","","","","","","","","","","","1944","If ori press RIGHT | If cui press LEFT","Inducer practice",""," ","","Practice","","","","","","","","","","","","","","",""
"","html-keyboard-response","57","137262","0.0-97.0","pysotzgo","1280","720","","","","","","","","","","","null","+","Fixation - short","","null","","","","","","","","","","","","","","","","",""
"","html-keyboard-response","58","137829","0.0-98.0","pysotzgo","","","","","","","","","","","","","565","cui","Inducer practice","","f","","Practice","","","","true","","","","","f","1","","true","LEFT","",""
"","html-keyboard-response","59","138580","0.0-101.0","pysotzgo","1280","720","","","","","","","","","","","null","+","Fixation - short","","null","","","","","","","","","","","","","","","","",""
"","html-keyboard-response","60","141201","0.0-102.0","pysotzgo","","","","","","","","","","","","","2620","If aor press RIGHT | If jup press LEFT","Inducer practice",""," ","","Practice","","","","","","","","","","","","","","",""
"","html-keyboard-response","61","141961","0.0-103.0","pysotzgo","1280","720","","","","","","","","","","","null","+","Fixation - short","","null","","","","","","","","","","","","","","","","",""
"","html-keyboard-response","62","142443","0.0-104.0","pysotzgo","","","","","","","","","","","","","479","aor","Inducer practice","","j","","Practice","","","","true","","","","","j","1","","true","RIGHT","",""
"","html-keyboard-response","63","143195","0.0-107.0","pysotzgo","1280","720","","","","","","","","","","","null","+","Fixation - short","","null","","","","","","","","","","","","","","","","",""
"","instructions","64","158866","0.0-108.0","pysotzgo","","","","","","","","","","","","[{""page_index"":0,""viewing_time"":15671}]","15671","Instructions","Final experiment explanation","","","","","","","","","","","","","","","","","","",""
"","html-keyboard-response","65","165338","0.0-109.0","pysotzgo","","","","","","","","","","","","","4964","If bwe press RIGHT | If uus press LEFT","Cue practice",""," ","","Practice","","","","","","","","","","","","","","",""
"","html-keyboard-response","66","166120","0.0-110.0","pysotzgo","1280","720","","","","","","","","","","","null","+","Fixation - short","","null","","","","","","","","","","","","","","","","",""
"","html-keyboard-response","67","170019","0.0-111.0","pysotzgo","","","","","","","","","","","","","3898","uus","Cue practice","","j","","Practice","0","13","false","false","true","both pre & post","LEFT","RIGHT","j","1","false","","","",""
"","html-keyboard-response","68","170785","0.0-114.0","pysotzgo","1280","720","","","","","","","","","","","null","+","Fixation - short","","null","","","","","","","","","","","","","","","","",""
"","html-keyboard-response","69","171582","0.0-115.0","pysotzgo","","","","","","","","","","","","","797","bwe","Cue practice","","j","","Practice","1","13","false","false","true","both pre & post","RIGHT","RIGHT","j","1","true","","","",""
"","html-keyboard-response","70","172341","0.0-118.0","pysotzgo","1280","720","","","","","","","","","","","null","+","Fixation - short","","null","","","","","","","","","","","","","","","","",""
"","html-keyboard-response","71","172857","0.0-119.0","pysotzgo","","","","","","","","","","","","","514","uus","Cue practice","","f","","Practice","2","13","false","false","false","both pre & post","LEFT","LEFT","f","1","true","","","",""
"","html-keyboard-response","72","173616","0.0-122.0","pysotzgo","1280","720","","","","","","","","","","","null","+","Fixation - short","","null","","","","","","","","","","","","","","","","",""
"","html-keyboard-response","73","175260","0.0-123.0","pysotzgo","","","","","","","","","","","","","1644","bwe","Cue practice","","j","","Practice","3","13","false","false","true","both pre & post","RIGHT","RIGHT","j","1","true","","","",""
"","html-keyboard-response","74","176027","0.0-126.0","pysotzgo","1280","720","","","","","","","","","","","null","+","Fixation - short","","null","","","","","","","","","","","","","","","","",""
"","html-keyboard-response","75","176538","0.0-127.0","pysotzgo","","","","","","","","","","","","","511","bwe","Cue practice","","j","","Practice","4","13","false","false","true","both pre & post","RIGHT","RIGHT","j","1","true","","","",""
"","html-keyboard-response","76","177295","0.0-130.0","pysotzgo","1280","720","","","","","","","","","","","null","+","Fixation - short","","null","","","","","","","","","","","","","","","","",""
"","html-keyboard-response","77","177877","0.0-131.0","pysotzgo","","","","","","","","","","","","","579","uus","Cue practice","","f","","Practice","5","13","false","false","false","both pre & post","LEFT","LEFT","f","1","true","","","",""
"","html-keyboard-response","78","178629","0.0-134.0","pysotzgo","1280","720","","","","","","","","","","","null","+","Fixation - short","","null","","","","","","","","","","","","","","","","",""
"","html-keyboard-response","79","179631","0.0-135.0","pysotzgo","","","","","","","","","","","","","1001","uus","Cue practice","","f","","Practice","6","13","false","false","true","both pre & post","LEFT","RIGHT","j","0","false","","","",""
"","call-function","80","179633","0.0-137.0-0.0","pysotzgo","","","","","","","","","","","","","","","","","","","","","","","","","","","","","","","","","",""
"","html-keyboard-response","81","179946","0.0-137.0-1.0","pysotzgo","1280","720","","","","","","","","","","","null","Wrong","Feedback","","null","","","","","","","","","","","","","","","","",""
"","call-function","82","179947","0.0-137.0-2.0","pysotzgo","","","","","","","","","","","","","","","","","","","","","","","","","","","","","","","","","",""
"","html-keyboard-response","83","180707","0.0-138.0","pysotzgo","1280","720","","","","","","","","","","","null","+","Fixation - short","","null","","","","","","","","","","","","","","","","",""
"","html-keyboard-response","84","181438","0.0-139.0","pysotzgo","","","","","","","","","","","","","730","bwe","Cue practice","","j","","Practice","7","13","false","false","true","both pre & post","RIGHT","RIGHT","j","1","true","","","",""
"","html-keyboard-response","85","182189","0.0-142.0","pysotzgo","1280","720","","","","","","","","","","","null","+","Fixation - short","","null","","","","","","","","","","","","","","","","",""
"","html-keyboard-response","86","182873","0.0-143.0","pysotzgo","","","","","","","","","","","","","682","uus","Cue practice","","f","","Practice","8","13","false","false","false","both pre & post","LEFT","LEFT","f","1","true","","","",""
"","html-keyboard-response","87","183628","0.0-146.0","pysotzgo","1280","720","","","","","","","","","","","null","+","Fixation - short","","null","","","","","","","","","","","","","","","","",""
"","html-keyboard-response","88","184307","0.0-147.0","pysotzgo","","","","","","","","","","","","","677","bwe","Cue practice","","f","","Practice","9","13","false","false","false","both pre & post","RIGHT","LEFT","f","1","false","","","",""
"","html-keyboard-response","89","185063","0.0-150.0","pysotzgo","1280","720","","","","","","","","","","","null","+","Fixation - short","","null","","","","","","","","","","","","","","","","",""
"","html-keyboard-response","90","185677","0.0-151.0","pysotzgo","","","","","","","","","","","","","612","uus","Cue practice","","j","","Practice","10","13","false","false","true","both pre & post","LEFT","RIGHT","j","1","false","","","",""
"","html-keyboard-response","91","186431","0.0-154.0","pysotzgo","1280","720","","","","","","","","","","","null","+","Fixation - short","","null","","","","","","","","","","","","","","","","",""
"","html-keyboard-response","92","187296","0.0-155.0","pysotzgo","","","","","","","","","","","","","863","uus","Cue practice","","f","","Practice","11","13","false","false","false","both pre & post","LEFT","LEFT","f","1","true","","","",""
"","html-keyboard-response","93","188053","0.0-158.0","pysotzgo","1280","720","","","","","","","","","","","null","+","Fixation - short","","null","","","","","","","","","","","","","","","","",""
"","html-keyboard-response","94","188588","0.0-159.0","pysotzgo","","","","","","","","","","","","","534","uus","Cue practice","","f","","Practice","12","13","false","false","false","both pre & post","LEFT","LEFT","f","1","true","","","",""
"","html-keyboard-response","95","189350","0.0-162.0","pysotzgo","1280","720","","","","","","","","","","","null","+","Fixation - short","","null","","","","","","","","","","","","","","","","",""
"","canvas-keyboard-response","96","190616","0.0-163.0","pysotzgo","","","","","","","","","","","","","null","Cue","Cue","","null","","Practice","12","","","false","","","","","","","","","","",""
"","html-keyboard-response","97","191369","0.0-164.0","pysotzgo","1280","720","","","","","","","","","","","null","+","Fixation - short","","null","","","","","","","","","","","","","","","","",""
"","html-keyboard-response","98","192074","0.0-165.0","pysotzgo","","","","","","","","","","","","","705","bwe","Cue practice","","j","","Practice","13","13","true","false","true","both pre & post","RIGHT","RIGHT","j","1","true","","","",""
"","html-keyboard-response","99","192826","0.0-168.0","pysotzgo","1280","720","","","","","","","","","","","null","+","Fixation - short","","null","","","","","","","","","","","","","","","","",""
"","html-keyboard-response","100","193275","0.0-169.0","pysotzgo","","","","","","","","","","","","","447","uus","Cue practice","","f","","Practice","14","13","true","false","false","both pre & post","LEFT","LEFT","f","1","true","","","",""
"","html-keyboard-response","101","194046","0.0-172.0","pysotzgo","1280","720","","","","","","","","","","","null","+","Fixation - short","","null","","","","","","","","","","","","","","","","",""
"","html-keyboard-response","102","194977","0.0-173.0","pysotzgo","","","","","","","","","","","","","929","uus","Cue practice","","j","","Practice","15","13","true","false","true","both pre & post","LEFT","RIGHT","j","1","false","","","",""
"","html-keyboard-response","103","195736","0.0-176.0","pysotzgo","1280","720","","","","","","","","","","","null","+","Fixation - short","","null","","","","","","","","","","","","","","","","",""
"","html-keyboard-response","104","197046","0.0-177.0","pysotzgo","","","","","","","","","","","","","1307","uus","Inducer practice","","f","","Practice","","","","true","","","","","f","1","","false","LEFT","",""
"","html-keyboard-response","105","197807","0.0-180.0","pysotzgo","1280","720","","","","","","","","","","","null","+","Fixation - short","","null","","","","","","","","","","","","","","","","",""
"","instructions","106","204106","0.0-181.0","pysotzgo","","","","","","","","","","","","[{""page_index"":0,""viewing_time"":6299}]","6299","End practice","End of practice","","","","","","","","","","","","","","","","","","",""
"","html-keyboard-response","107","207121","0.0-182.0","pysotzgo","1280","720","","","","","","","","","","","null","+","Fixation - long","","null","","","","","","","","","","","","","","","","",""
"","html-keyboard-response","108","212674","0.0-183.0","pysotzgo","","","","","","","","","","","","","5551","If pbz press RIGHT | If efg press LEFT","Inducer instructions",""," ","","0","","","","","","","","","","","","","","",""
"","html-keyboard-response","109","213438","0.0-184.0","pysotzgo","1280","720","","","","","","","","","","","null","+","Fixation - short","","null","","","","","","","","","","","","","","","","",""
"","html-keyboard-response","110","214162","0.0-185.0","pysotzgo","","","","","","","","","","","","","722","pbz","Diagnostic trial","","j","","0","0","4","false","false","true","both pre & post","RIGHT","RIGHT","j","1","true","","","",""
"","html-keyboard-response","111","214915","0.0-188.0","pysotzgo","1280","720","","","","","","","","","","","null","+","Fixation - short","","null","","","","","","","","","","","","","","","","",""
"","html-keyboard-response","112","215412","0.0-189.0","pysotzgo","","","","","","","","","","","","","497","efg","Diagnostic trial","","f","","0","1","4","false","false","false","both pre & post","LEFT","LEFT","f","1","true","","","",""
"","html-keyboard-response","113","216170","0.0-192.0","pysotzgo","1280","720","","","","","","","","","","","null","+","Fixation - short","","null","","","","","","","","","","","","","","","","",""
"","html-keyboard-response","114","217214","0.0-193.0","pysotzgo","","","","","","","","","","","","","1043","pbz","Diagnostic trial","","j","","0","2","4","false","false","false","both pre & post","RIGHT","LEFT","f","0","false","","","",""
"","call-function","115","217215","0.0-195.0-0.0","pysotzgo","","","","","","","","","","","","","","","","","","","","","","","","","","","","","","","","","",""
"","html-keyboard-response","116","217523","0.0-195.0-1.0","pysotzgo","1280","720","","","","","","","","","","","null","Wrong","Feedback","","null","","","","","","","","","","","","","","","","",""
"","call-function","117","217524","0.0-195.0-2.0","pysotzgo","","","","","","","","","","","","","","","","","","","","","","","","","","","","","","","","","",""
"","html-keyboard-response","118","218286","0.0-196.0","pysotzgo","1280","720","","","","","","","","","","","null","+","Fixation - short","","null","","","","","","","","","","","","","","","","",""
"","html-keyboard-response","119","219170","0.0-197.0","pysotzgo","","","","","","","","","","","","","883","pbz","Diagnostic trial","","j","","0","3","4","false","false","true","both pre & post","RIGHT","RIGHT","j","1","true","","","",""
"","html-keyboard-response","120","219923","0.0-200.0","pysotzgo","1280","720","","","","","","","","","","","null","+","Fixation - short","","null","","","","","","","","","","","","","","","","",""
"","canvas-keyboard-response","121","221277","0.0-201.0","pysotzgo","","","","","","","","","","","","","null","Cue","Cue","","null","","0","3","","","false","","","","","","","","","","",""
"","html-keyboard-response","122","222033","0.0-202.0","pysotzgo","1280","720","","","","","","","","","","","null","+","Fixation - short","","null","","","","","","","","","","","","","","","","",""
"","html-keyboard-response","123","222708","0.0-203.0","pysotzgo","","","","","","","","","","","","","673","pbz","Diagnostic trial","","f","","0","4","4","true","false","false","both pre & post","RIGHT","LEFT","f","1","false","","","",""
"","html-keyboard-response","124","223465","0.0-206.0","pysotzgo","1280","720","","","","","","","","","","","null","+","Fixation - short","","null","","","","","","","","","","","","","","","","",""
"","html-keyboard-response","125","224218","0.0-207.0","pysotzgo","","","","","","","","","","","","","753","efg","Diagnostic trial","","j","","0","5","4","true","false","true","both pre & post","LEFT","RIGHT","j","1","false","","","",""
"","html-keyboard-response","126","224978","0.0-210.0","pysotzgo","1280","720","","","","","","","","","","","null","+","Fixation - short","","null","","","","","","","","","","","","","","","","",""
"","html-keyboard-response","127","226199","0.0-211.0","pysotzgo","","","","","","","","","","","","","1221","pbz","Diagnostic trial","","j","","0","6","4","true","false","true","both pre & post","RIGHT","RIGHT","j","1","true","","","",""
"","html-keyboard-response","128","226952","0.0-214.0","pysotzgo","1280","720","","","","","","","","","","","null","+","Fixation - short","","null","","","","","","","","","","","","","","","","",""
"","html-keyboard-response","129","227947","0.0-215.0","pysotzgo","","","","","","","","","","","","","993","pbz","Inducer trial","","j","","0","","","","true","","","","","j","1","","false","RIGHT","",""
"","html-keyboard-response","130","228707","0.0-218.0","pysotzgo","1280","720","","","","","","","","","","","null","+","Fixation - short","","null","","","","","","","","","","","","","","","","",""
"","html-keyboard-response","131","232853","0.0-219.0","pysotzgo","","","","","","","","","","","","","4144","If ume press RIGHT | If psl press LEFT","Inducer instructions",""," ","","1","","","","","","","","","","","","","","",""
"","html-keyboard-response","132","233604","0.0-220.0","pysotzgo","1280","720","","","","","","","","","","","null","+","Fixation - short","","null","","","","","","","","","","","","","","","","",""
"","html-keyboard-response","133","234237","0.0-221.0","pysotzgo","","","","","","","","","","","","","630","psl","Diagnostic trial","","j","","1","0","12","false","false","true","both pre & post","LEFT","RIGHT","j","1","false","","","",""
"","html-keyboard-response","134","234996","0.0-224.0","pysotzgo","1280","720","","","","","","","","","","","null","+","Fixation - short","","null","","","","","","","","","","","","","","","","",""
"","html-keyboard-response","135","235657","0.0-225.0","pysotzgo","","","","","","","","","","","","","658","ume","Diagnostic trial","","f","","1","1","12","false","false","true","both pre & post","RIGHT","RIGHT","j","0","true","","","",""
"","call-function","136","235658","0.0-227.0-0.0","pysotzgo","","","","","","","","","","","","","","","","","","","","","","","","","","","","","","","","","",""
"","html-keyboard-response","137","235969","0.0-227.0-1.0","pysotzgo","1280","720","","","","","","","","","","","null","Wrong","Feedback","","null","","","","","","","","","","","","","","","","",""
"","call-function","138","235970","0.0-227.0-2.0","pysotzgo","","","","","","","","","","","","","","","","","","","","","","","","","","","","","","","","","",""
"","html-keyboard-response","139","236722","0.0-228.0","pysotzgo","1280","720","","","","","","","","","","","null","+","Fixation - short","","null","","","","","","","","","","","","","","","","",""
"","html-keyboard-response","140","237560","0.0-229.0","pysotzgo","","","","","","","","","","","","","837","psl","Diagnostic trial","","j","","1","2","12","false","false","true","both pre & post","LEFT","RIGHT","j","1","false","","","",""
"","html-keyboard-response","141","238313","0.0-232.0","pysotzgo","1280","720","","","","","","","","","","","null","+","Fixation - short","","null","","","","","","","","","","","","","","","","",""
"","html-keyboard-response","142","239033","0.0-233.0","pysotzgo","","","","","","","","","","","","","719","psl","Diagnostic trial","","j","","1","3","12","false","false","true","both pre & post","LEFT","RIGHT","j","1","false","","","",""
"","html-keyboard-response","143","239788","0.0-236.0","pysotzgo","1280","720","","","","","","","","","","","null","+","Fixation - short","","null","","","","","","","","","","","","","","","","",""
"","html-keyboard-response","144","240841","0.0-237.0","pysotzgo","","","","","","","","","","","","","1051","psl","Diagnostic trial","","j","","1","4","12","false","false","false","both pre & post","LEFT","LEFT","f","0","true","","","",""
"","call-function","145","240842","0.0-239.0-0.0","pysotzgo","","","","","","","","","","","","","","","","","","","","","","","","","","","","","","","","","",""
"","html-keyboard-response","146","241145","0.0-239.0-1.0","pysotzgo","1280","720","","","","","","","","","","","null","Wrong","Feedback","","null","","","","","","","","","","","","","","","","",""
"","call-function","147","241146","0.0-239.0-2.0","pysotzgo","","","","","","","","","","","","","","","","","","","","","","","","","","","","","","","","","",""
"","html-keyboard-response","148","241907","0.0-240.0","pysotzgo","1280","720","","","","","","","","","","","null","+","Fixation - short","","null","","","","","","","","","","","","","","","","",""
"","html-keyboard-response","149","242461","0.0-241.0","pysotzgo","","","","","","","","","","","","","552","psl","Diagnostic trial","","j","","1","5","12","false","false","true","both pre & post","LEFT","RIGHT","j","1","false","","","",""
"","html-keyboard-response","150","243215","0.0-244.0","pysotzgo","1280","720","","","","","","","","","","","null","+","Fixation - short","","null","","","","","","","","","","","","","","","","",""
"","html-keyboard-response","151","244162","0.0-245.0","pysotzgo","","","","","","","","","","","","","944","ume","Diagnostic trial","","f","","1","6","12","false","false","false","both pre & post","RIGHT","LEFT","f","1","false","","","",""
"","html-keyboard-response","152","244922","0.0-248.0","pysotzgo","1280","720","","","","","","","","","","","null","+","Fixation - short","","null","","","","","","","","","","","","","","","","",""
"","html-keyboard-response","153","245504","0.0-249.0","pysotzgo","","","","","","","","","","","","","581","ume","Diagnostic trial","","f","","1","7","12","false","false","false","both pre & post","RIGHT","LEFT","f","1","false","","","",""
"","html-keyboard-response","154","246262","0.0-252.0","pysotzgo","1280","720","","","","","","","","","","","null","+","Fixation - short","","null","","","","","","","","","","","","","","","","",""
"","html-keyboard-response","155","246837","0.0-253.0","pysotzgo","","","","","","","","","","","","","575","ume","Diagnostic trial","","f","","1","8","12","false","false","false","both pre & post","RIGHT","LEFT","f","1","false","","","",""
"","html-keyboard-response","156","247597","0.0-256.0","pysotzgo","1280","720","","","","","","","","","","","null","+","Fixation - short","","null","","","","","","","","","","","","","","","","",""
"","html-keyboard-response","157","248085","0.0-257.0","pysotzgo","","","","","","","","","","","","","488","ume","Diagnostic trial","","f","","1","9","12","false","false","false","both pre & post","RIGHT","LEFT","f","1","false","","","",""
"","html-keyboard-response","158","248917","0.0-260.0","pysotzgo","1280","720","","","","","","","","","","","null","+","Fixation - short","","null","","","","","","","","","","","","","","","","",""
"","html-keyboard-response","159","249555","0.0-261.0","pysotzgo","","","","","","","","","","","","","637","ume","Diagnostic trial","","f","","1","10","12","false","false","true","both pre & post","RIGHT","RIGHT","j","0","true","","","",""
"","call-function","160","249556","0.0-263.0-0.0","pysotzgo","","","","","","","","","","","","","","","","","","","","","","","","","","","","","","","","","",""
"","html-keyboard-response","161","249861","0.0-263.0-1.0","pysotzgo","1280","720","","","","","","","","","","","null","Wrong","Feedback","","null","","","","","","","","","","","","","","","","",""
"","call-function","162","249862","0.0-263.0-2.0","pysotzgo","","","","","","","","","","","","","","","","","","","","","","","","","","","","","","","","","",""
"","html-keyboard-response","163","250624","0.0-264.0","pysotzgo","1280","720","","","","","","","","","","","null","+","Fixation - short","","null","","","","","","","","","","","","","","","","",""
"","html-keyboard-response","164","251561","0.0-265.0","pysotzgo","","","","","","","","","","","","","936","ume","Diagnostic trial","","j","","1","11","12","false","false","true","both pre & post","RIGHT","RIGHT","j","1","true","","","",""
"","html-keyboard-response","165","252325","0.0-268.0","pysotzgo","1280","720","","","","","","","","","","","null","+","Fixation - short","","null","","","","","","","","","","","","","","","","",""
"","canvas-keyboard-response","166","253578","0.0-269.0","pysotzgo","","","","","","","","","","","","","null","Cue","Cue","","null","","1","11","","","false","","","","","","","","","","",""
"","html-keyboard-response","167","254332","0.0-270.0","pysotzgo","1280","720","","","","","","","","","","","null","+","Fixation - short","","null","","","","","","","","","","","","","","","","",""
"","html-keyboard-response","168","255554","0.0-271.0","pysotzgo","","","","","","","","","","","","","1221","psl","Diagnostic trial","","f","","1","12","12","true","false","false","both pre & post","LEFT","LEFT","f","1","true","","","",""
"","html-keyboard-response","169","256310","0.0-274.0","pysotzgo","1280","720","","","","","","","","","","","null","+","Fixation - short","","null","","","","","","","","","","","","","","","","",""
"","html-keyboard-response","170","257366","0.0-275.0","pysotzgo","","","","","","","","","","","","","1054","psl","Inducer trial","","f","","1","","","","true","","","","","f","1","","false","LEFT","",""
"","html-keyboard-response","171","258130","0.0-278.0","pysotzgo","1280","720","","","","","","","","","","","null","+","Fixation - short","","null","","","","","","","","","","","","","","","","",""
"","html-keyboard-response","172","259924","0.0-279.0","pysotzgo","","","","","","","","","","","","","1793","If iei press RIGHT | If cmj press LEFT","Inducer instructions",""," ","","2","","","","","","","","","","","","","","",""
"","html-keyboard-response","173","260681","0.0-280.0","pysotzgo","1280","720","","","","","","","","","","","null","+","Fixation - short","","null","","","","","","","","","","","","","","","","",""
"","html-keyboard-response","174","261367","0.0-281.0","pysotzgo","","","","","","","","","","","","","685","cmj","Diagnostic trial","","f","","2","0","4","false","false","true","both pre & post","LEFT","RIGHT","j","0","false","","","",""
"","call-function","175","261368","0.0-283.0-0.0","pysotzgo","","","","","","","","","","","","","","","","","","","","","","","","","","","","","","","","","",""
"","html-keyboard-response","176","261675","0.0-283.0-1.0","pysotzgo","1280","720","","","","","","","","","","","null","Wrong","Feedback","","null","","","","","","","","","","","","","","","","",""
"","call-function","177","261676","0.0-283.0-2.0","pysotzgo","","","","","","","","","","","","","","","","","","","","","","","","","","","","","","","","","",""
"","html-keyboard-response","178","262436","0.0-284.0","pysotzgo","1280","720","","","","","","","","","","","null","+","Fixation - short","","null","","","","","","","","","","","","","","","","",""
"","html-keyboard-response","179","263559","0.0-285.0","pysotzgo","","","","","","","","","","","","","1121","cmj","Diagnostic trial","","f","","2","1","4","false","false","false","both pre & post","LEFT","LEFT","f","1","true","","","",""
"","html-keyboard-response","180","264321","0.0-288.0","pysotzgo","1280","720","","","","","","","","","","","null","+","Fixation - short","","null","","","","","","","","","","","","","","","","",""
"","html-keyboard-response","181","264993","0.0-289.0","pysotzgo","","","","","","","","","","","","","671","cmj","Diagnostic trial","","f","","2","2","4","false","false","false","both pre & post","LEFT","LEFT","f","1","true","","","",""
"","html-keyboard-response","182","265747","0.0-292.0","pysotzgo","1280","720","","","","","","","","","","","null","+","Fixation - short","","null","","","","","","","","","","","","","","","","",""
"","html-keyboard-response","183","266238","0.0-293.0","pysotzgo","","","","","","","","","","","","","489","cmj","Diagnostic trial","","j","","2","3","4","false","false","true","both pre & post","LEFT","RIGHT","j","1","false","","","",""
"","html-keyboard-response","184","266989","0.0-296.0","pysotzgo","1280","720","","","","","","","","","","","null","+","Fixation - short","","null","","","","","","","","","","","","","","","","",""
"","canvas-keyboard-response","185","268244","0.0-297.0","pysotzgo","","","","","","","","","","","","","null","Cue","Cue","","null","","2","3","","","false","","","","","","","","","","",""
"","html-keyboard-response","186","268996","0.0-298.0","pysotzgo","1280","720","","","","","","","","","","","null","+","Fixation - short","","null","","","","","","","","","","","","","","","","",""
"","html-keyboard-response","187","269766","0.0-299.0","pysotzgo","","","","","","","","","","","","","770","cmj","Diagnostic trial","","f","","2","4","4","true","false","false","both pre & post","LEFT","LEFT","f","1","true","","","",""
"","html-keyboard-response","188","270519","0.0-302.0","pysotzgo","1280","720","","","","","","","","","","","null","+","Fixation - short","","null","","","","","","","","","","","","","","","","",""
"","html-keyboard-response","189","271034","0.0-303.0","pysotzgo","","","","","","","","","","","","","512","iei","Diagnostic trial","","j","","2","5","4","true","false","true","both pre & post","RIGHT","RIGHT","j","1","true","","","",""
"","html-keyboard-response","190","271786","0.0-306.0","pysotzgo","1280","720","","","","","","","","","","","null","+","Fixation - short","","null","","","","","","","","","","","","","","","","",""
"","html-keyboard-response","191","272549","0.0-307.0","pysotzgo","","","","","","","","","","","","","761","cmj","Diagnostic trial","","j","","2","6","4","true","false","true","both pre & post","LEFT","RIGHT","j","1","false","","","",""
"","html-keyboard-response","192","273306","0.0-310.0","pysotzgo","1280","720","","","","","","","","","","","null","+","Fixation - short","","null","","","","","","","","","","","","","","","","",""
"","html-keyboard-response","193","274061","0.0-311.0","pysotzgo","","","","","","","","","","","","","754","iei","Diagnostic trial","","j","","2","7","4","true","false","true","both pre & post","RIGHT","RIGHT","j","1","true","","","",""
"","html-keyboard-response","194","274817","0.0-314.0","pysotzgo","1280","720","","","","","","","","","","","null","+","Fixation - short","","null","","","","","","","","","","","","","","","","",""
"","html-keyboard-response","195","275708","0.0-315.0","pysotzgo","","","","","","","","","","","","","890","iei","Inducer trial","","j","","2","","","","true","","","","","j","1","","false","RIGHT","",""
"","html-keyboard-response","196","276463","0.0-318.0","pysotzgo","1280","720","","","","","","","","","","","null","+","Fixation - short","","null","","","","","","","","","","","","","","","","",""
"","html-keyboard-response","197","277993","0.0-319.0","pysotzgo","","","","","","","","","","","","","1528","If rif press RIGHT | If flh press LEFT","Inducer instructions",""," ","","3","","","","","","","","","","","","","","",""
"","html-keyboard-response","198","278751","0.0-320.0","pysotzgo","1280","720","","","","","","","","","","","null","+","Fixation - short","","null","","","","","","","","","","","","","","","","",""
"","html-keyboard-response","199","279322","0.0-321.0","pysotzgo","","","","","","","","","","","","","570","flh","Diagnostic trial","","f","","3","0","12","false","false","false","both pre & post","LEFT","LEFT","f","1","true","","","",""
"","html-keyboard-response","200","280076","0.0-324.0","pysotzgo","1280","720","","","","","","","","","","","null","+","Fixation - short","","null","","","","","","","","","","","","","","","","",""
"","html-keyboard-response","201","280679","0.0-325.0","pysotzgo","","","","","","","","","","","","","601","flh","Diagnostic trial","","f","","3","1","12","false","false","false","both pre & post","LEFT","LEFT","f","1","true","","","",""
"","html-keyboard-response","202","281432","0.0-328.0","pysotzgo","1280","720","","","","","","","","","","","null","+","Fixation - short","","null","","","","","","","","","","","","","","","","",""
"","html-keyboard-response","203","282128","0.0-329.0","pysotzgo","","","","","","","","","","","","","694","rif","Diagnostic trial","","f","","3","2","12","false","false","false","both pre & post","RIGHT","LEFT","f","1","false","","","",""
"","html-keyboard-response","204","282882","0.0-332.0","pysotzgo","1280","720","","","","","","","","","","","null","+","Fixation - short","","null","","","","","","","","","","","","","","","","",""
"","html-keyboard-response","205","283497","0.0-333.0","pysotzgo","","","","","","","","","","","","","614","flh","Diagnostic trial","","j","","3","3","12","false","false","true","both pre & post","LEFT","RIGHT","j","1","false","","","",""
"","html-keyboard-response","206","284259","0.0-336.0","pysotzgo","1280","720","","","","","","","","","","","null","+","Fixation - short","","null","","","","","","","","","","","","","","","","",""
"","html-keyboard-response","207","285086","0.0-337.0","pysotzgo","","","","","","","","","","","","","825","flh","Diagnostic trial","","f","","3","4","12","false","false","false","both pre & post","LEFT","LEFT","f","1","true","","","",""
"","html-keyboard-response","208","285850","0.0-340.0","pysotzgo","1280","720","","","","","","","","","","","null","+","Fixation - short","","null","","","","","","","","","","","","","","","","",""
"","html-keyboard-response","209","286976","0.0-341.0","pysotzgo","","","","","","","","","","","","","1125","flh","Diagnostic trial","","f","","3","5","12","false","false","false","both pre & post","LEFT","LEFT","f","1","true","","","",""
"","html-keyboard-response","210","287735","0.0-344.0","pysotzgo","1280","720","","","","","","","","","","","null","+","Fixation - short","","null","","","","","","","","","","","","","","","","",""
"","html-keyboard-response","211","288367","0.0-345.0","pysotzgo","","","","","","","","","","","","","630","rif","Diagnostic trial","","f","","3","6","12","false","false","false","both pre & post","RIGHT","LEFT","f","1","false","","","",""
"","html-keyboard-response","212","289125","0.0-348.0","pysotzgo","1280","720","","","","","","","","","","","null","+","Fixation - short","","null","","","","","","","","","","","","","","","","",""
"","html-keyboard-response","213","289920","0.0-349.0","pysotzgo","","","","","","","","","","","","","793","flh","Diagnostic trial","","j","","3","7","12","false","false","true","both pre & post","LEFT","RIGHT","j","1","false","","","",""
"","html-keyboard-response","214","290677","0.0-352.0","pysotzgo","1280","720","","","","","","","","","","","null","+","Fixation - short","","null","","","","","","","","","","","","","","","","",""
"","html-keyboard-response","215","291494","0.0-353.0","pysotzgo","","","","","","","","","","","","","817","rif","Diagnostic trial","","j","","3","8","12","false","false","false","both pre & post","RIGHT","LEFT","f","0","false","","","",""
"","call-function","216","291495","0.0-355.0-0.0","pysotzgo","","","","","","","","","","","","","","","","","","","","","","","","","","","","","","","","","",""
"","html-keyboard-response","217","291797","0.0-355.0-1.0","pysotzgo","1280","720","","","","","","","","","","","null","Wrong","Feedback","","null","","","","","","","","","","","","","","","","",""
"","call-function","218","291798","0.0-355.0-2.0","pysotzgo","","","","","","","","","","","","","","","","","","","","","","","","","","","","","","","","","",""
"","html-keyboard-response","219","292552","0.0-356.0","pysotzgo","1280","720","","","","","","","","","","","null","+","Fixation - short","","null","","","","","","","","","","","","","","","","",""
"","html-keyboard-response","220","293322","0.0-357.0","pysotzgo","","","","","","","","","","","","","769","rif","Diagnostic trial","","j","","3","9","12","false","false","true","both pre & post","RIGHT","RIGHT","j","1","true","","","",""
"","html-keyboard-response","221","294079","0.0-360.0","pysotzgo","1280","720","","","","","","","","","","","null","+","Fixation - short","","null","","","","","","","","","","","","","","","","",""
"","html-keyboard-response","222","294544","0.0-361.0","pysotzgo","","","","","","","","","","","","","463","rif","Diagnostic trial","","j","","3","10","12","false","false","true","both pre & post","RIGHT","RIGHT","j","1","true","","","",""
"","html-keyboard-response","223","295306","0.0-364.0","pysotzgo","1280","720","","","","","","","","","","","null","+","Fixation - short","","null","","","","","","","","","","","","","","","","",""
"","html-keyboard-response","224","295784","0.0-365.0","pysotzgo","","","","","","","","","","","","","477","rif","Diagnostic trial","","j","","3","11","12","false","false","true","both pre & post","RIGHT","RIGHT","j","1","true","","","",""
"","html-keyboard-response","225","296544","0.0-368.0","pysotzgo","1280","720","","","","","","","","","","","null","+","Fixation - short","","null","","","","","","","","","","","","","","","","",""
"","canvas-keyboard-response","226","297800","0.0-369.0","pysotzgo","","","","","","","","","","","","","null","Cue","Cue","","null","","3","11","","","false","","","","","","","","","","",""
"","html-keyboard-response","227","298564","0.0-370.0","pysotzgo","1280","720","","","","","","","","","","","null","+","Fixation - short","","null","","","","","","","","","","","","","","","","",""
"","html-keyboard-response","228","299086","0.0-371.0","pysotzgo","","","","","","","","","","","","","522","flh","Diagnostic trial","","f","","3","12","12","true","false","false","both pre & post","LEFT","LEFT","f","1","true","","","",""
"","html-keyboard-response","229","299847","0.0-374.0","pysotzgo","1280","720","","","","","","","","","","","null","+","Fixation - short","","null","","","","","","","","","","","","","","","","",""
"","html-keyboard-response","230","300683","0.0-375.0","pysotzgo","","","","","","","","","","","","","834","rif","Inducer trial","","j","","3","","","","true","","","","","j","1","","false","RIGHT","",""
"","html-keyboard-response","231","301441","0.0-378.0","pysotzgo","1280","720","","","","","","","","","","","null","+","Fixation - short","","null","","","","","","","","","","","","","","","","",""
"","html-keyboard-response","232","304340","0.0-379.0","pysotzgo","","","","","","","","","","","","","2897","If prg press RIGHT | If upf press LEFT","Inducer instructions",""," ","","4","","","","","","","","","","","","","","",""
"","html-keyboard-response","233","305108","0.0-380.0","pysotzgo","1280","720","","","","","","","","","","","null","+","Fixation - short","","null","","","","","","","","","","","","","","","","",""
"","html-keyboard-response","234","306036","0.0-381.0","pysotzgo","","","","","","","","","","","","","927","prg","Diagnostic trial","","j","","4","0","11","false","false","true","both pre & post","RIGHT","RIGHT","j","1","true","","","",""
"","html-keyboard-response","235","306797","0.0-384.0","pysotzgo","1280","720","","","","","","","","","","","null","+","Fixation - short","","null","","","","","","","","","","","","","","","","",""
"","html-keyboard-response","236","307713","0.0-385.0","pysotzgo","","","","","","","","","","","","","913","upf","Diagnostic trial","","f","","4","1","11","false","false","false","both pre & post","LEFT","LEFT","f","1","true","","","",""
"","html-keyboard-response","237","308477","0.0-388.0","pysotzgo","1280","720","","","","","","","","","","","null","+","Fixation - short","","null","","","","","","","","","","","","","","","","",""
"","html-keyboard-response","238","309087","0.0-389.0","pysotzgo","","","","","","","","","","","","","607","prg","Diagnostic trial","","j","","4","2","11","false","false","true","both pre & post","RIGHT","RIGHT","j","1","true","","","",""
"","html-keyboard-response","239","309842","0.0-392.0","pysotzgo","1280","720","","","","","","","","","","","null","+","Fixation - short","","null","","","","","","","","","","","","","","","","",""
"","html-keyboard-response","240","310383","0.0-393.0","pysotzgo","","","","","","","","","","","","","540","upf","Diagnostic trial","","f","","4","3","11","false","false","false","both pre & post","LEFT","LEFT","f","1","true","","","",""
"","html-keyboard-response","241","311148","0.0-396.0","pysotzgo","1280","720","","","","","","","","","","","null","+","Fixation - short","","null","","","","","","","","","","","","","","","","",""
"","html-keyboard-response","242","311700","0.0-397.0","pysotzgo","","","","","","","","","","","","","550","upf","Diagnostic trial","","f","","4","4","11","false","false","false","both pre & post","LEFT","LEFT","f","1","true","","","",""
"","html-keyboard-response","243","312462","0.0-400.0","pysotzgo","1280","720","","","","","","","","","","","null","+","Fixation - short","","null","","","","","","","","","","","","","","","","",""
"","html-keyboard-response","244","312997","0.0-401.0","pysotzgo","","","","","","","","","","","","","533","upf","Diagnostic trial","","j","","4","5","11","false","false","true","both pre & post","LEFT","RIGHT","j","1","false","","","",""
"","html-keyboard-response","245","313757","0.0-404.0","pysotzgo","1280","720","","","","","","","","","","","null","+","Fixation - short","","null","","","","","","","","","","","","","","","","",""
"","html-keyboard-response","246","314300","0.0-405.0","pysotzgo","","","","","","","","","","","","","540","prg","Diagnostic trial","","j","","4","6","11","false","false","true","both pre & post","RIGHT","RIGHT","j","1","true","","","",""
"","html-keyboard-response","247","315063","0.0-408.0","pysotzgo","1280","720","","","","","","","","","","","null","+","Fixation - short","","null","","","","","","","","","","","","","","","","",""
"","html-keyboard-response","248","315572","0.0-409.0","pysotzgo","","","","","","","","","","","","","508","prg","Diagnostic trial","","j","","4","7","11","false","false","true","both pre & post","RIGHT","RIGHT","j","1","true","","","",""
"","html-keyboard-response","249","316338","0.0-412.0","pysotzgo","1280","720","","","","","","","","","","","null","+","Fixation - short","","null","","","","","","","","","","","","","","","","",""
"","html-keyboard-response","250","317038","0.0-413.0","pysotzgo","","","","","","","","","","","","","699","upf","Diagnostic trial","","j","","4","8","11","false","false","true","both pre & post","LEFT","RIGHT","j","1","false","","","",""
"","html-keyboard-response","251","317790","0.0-416.0","pysotzgo","1280","720","","","","","","","","","","","null","+","Fixation - short","","null","","","","","","","","","","","","","","","","",""
"","html-keyboard-response","252","318273","0.0-417.0","pysotzgo","","","","","","","","","","","","","482","upf","Diagnostic trial","","j","","4","9","11","false","false","true","both pre & post","LEFT","RIGHT","j","1","false","","","",""
"","html-keyboard-response","253","319031","0.0-420.0","pysotzgo","1280","720","","","","","","","","","","","null","+","Fixation - short","","null","","","","","","","","","","","","","","","","",""
"","html-keyboard-response","254","319849","0.0-421.0","pysotzgo","","","","","","","","","","","","","816","upf","Diagnostic trial","","f","","4","10","11","false","false","false","both pre & post","LEFT","LEFT","f","1","true","","","",""
"","html-keyboard-response","255","320621","0.0-424.0","pysotzgo","1280","720","","","","","","","","","","","null","+","Fixation - short","","null","","","","","","","","","","","","","","","","",""
"","canvas-keyboard-response","256","321875","0.0-425.0","pysotzgo","","","","","","","","","","","","","null","Cue","Cue","","null","","4","10","","","false","","","","","","","","","","",""
"","html-keyboard-response","257","322628","0.0-426.0","pysotzgo","1280","720","","","","","","","","","","","null","+","Fixation - short","","null","","","","","","","","","","","","","","","","",""
"","html-keyboard-response","258","323289","0.0-427.0","pysotzgo","","","","","","","","","","","","","659","prg","Diagnostic trial","","j","","4","11","11","true","false","true","both pre & post","RIGHT","RIGHT","j","1","true","","","",""
"","html-keyboard-response","259","324054","0.0-430.0","pysotzgo","1280","720","","","","","","","","","","","null","+","Fixation - short","","null","","","","","","","","","","","","","","","","",""
"","html-keyboard-response","260","324899","0.0-431.0","pysotzgo","","","","","","","","","","","","","843","upf","Diagnostic trial","","j","","4","12","11","true","false","true","both pre & post","LEFT","RIGHT","j","1","false","","","",""
"","html-keyboard-response","261","325661","0.0-434.0","pysotzgo","1280","720","","","","","","","","","","","null","+","Fixation - short","","null","","","","","","","","","","","","","","","","",""
"","html-keyboard-response","262","326356","0.0-435.0","pysotzgo","","","","","","","","","","","","","692","upf","Diagnostic trial","","j","","4","13","11","true","false","true","both pre & post","LEFT","RIGHT","j","1","false","","","",""
"","html-keyboard-response","263","327113","0.0-438.0","pysotzgo","1280","720","","","","","","","","","","","null","+","Fixation - short","","null","","","","","","","","","","","","","","","","",""
"","html-keyboard-response","264","327732","0.0-439.0","pysotzgo","","","","","","","","","","","","","617","prg","Diagnostic trial","","f","","4","14","11","true","false","false","both pre & post","RIGHT","LEFT","f","1","false","","","",""
"","html-keyboard-response","265","328495","0.0-442.0","pysotzgo","1280","720","","","","","","","","","","","null","+","Fixation - short","","null","","","","","","","","","","","","","","","","",""
"","html-keyboard-response","266","329143","0.0-443.0","pysotzgo","","","","","","","","","","","","","647","upf","Inducer trial","","j","","4","","","","true","","","","","f","0","","false","LEFT","",""
"","call-function","267","329144","0.0-445.0-0.0","pysotzgo","","","","","","","","","","","","","","","","","","","","","","","","","","","","","","","","","",""
"","html-keyboard-response","268","329465","0.0-445.0-1.0","pysotzgo","1280","720","","","","","","","","","","","null","Wrong","Feedback","","null","","","","","","","","","","","","","","","","",""
"","call-function","269","329465","0.0-445.0-2.0","pysotzgo","","","","","","","","","","","","","","","","","","","","","","","","","","","","","","","","","",""
"","html-keyboard-response","270","330220","0.0-446.0","pysotzgo","1280","720","","","","","","","","","","","null","+","Fixation - short","","null","","","","","","","","","","","","","","","","",""
"","html-keyboard-response","271","331638","0.0-447.0","pysotzgo","","","","","","","","","","","","","1416","If saj press RIGHT | If jey press LEFT","Inducer instructions",""," ","","5","","","","","","","","","","","","","","",""
"","html-keyboard-response","272","332391","0.0-448.0","pysotzgo","1280","720","","","","","","","","","","","null","+","Fixation - short","","null","","","","","","","","","","","","","","","","",""
"","html-keyboard-response","273","333243","0.0-449.0","pysotzgo","","","","","","","","","","","","","850","saj","Diagnostic trial","","j","","5","0","6","false","false","false","both pre & post","RIGHT","LEFT","f","0","false","","","",""
"","call-function","274","333245","0.0-451.0-0.0","pysotzgo","","","","","","","","","","","","","","","","","","","","","","","","","","","","","","","","","",""
"","html-keyboard-response","275","333559","0.0-451.0-1.0","pysotzgo","1280","720","","","","","","","","","","","null","Wrong","Feedback","","null","","","","","","","","","","","","","","","","",""
"","call-function","276","333559","0.0-451.0-2.0","pysotzgo","","","","","","","","","","","","","","","","","","","","","","","","","","","","","","","","","",""
"","html-keyboard-response","277","334398","0.0-452.0","pysotzgo","1280","720","","","","","","","","","","","null","+","Fixation - short","","null","","","","","","","","","","","","","","","","",""
"","html-keyboard-response","278","335077","0.0-453.0","pysotzgo","","","","","","","","","","","","","676","jey","Diagnostic trial","","f","","5","1","6","false","false","false","both pre & post","LEFT","LEFT","f","1","true","","","",""
"","html-keyboard-response","279","335834","0.0-456.0","pysotzgo","1280","720","","","","","","","","","","","null","+","Fixation - short","","null","","","","","","","","","","","","","","","","",""
"","html-keyboard-response","280","337172","0.0-457.0","pysotzgo","","","","","","","","","","","","","1336","jey","Diagnostic trial","","j","","5","2","6","false","false","true","both pre & post","LEFT","RIGHT","j","1","false","","","",""
"","html-keyboard-response","281","337933","0.0-460.0","pysotzgo","1280","720","","","","","","","","","","","null","+","Fixation - short","","null","","","","","","","","","","","","","","","","",""
"","html-keyboard-response","282","338669","0.0-461.0","pysotzgo","","","","","","","","","","","","","735","saj","Diagnostic trial","","f","","5","3","6","false","false","false","both pre & post","RIGHT","LEFT","f","1","false","","","",""
"","html-keyboard-response","283","339431","0.0-464.0","pysotzgo","1280","720","","","","","","","","","","","null","+","Fixation - short","","null","","","","","","","","","","","","","","","","",""
"","html-keyboard-response","284","339941","0.0-465.0","pysotzgo","","","","","","","","","","","","","509","jey","Diagnostic trial","","j","","5","4","6","false","false","true","both pre & post","LEFT","RIGHT","j","1","false","","","",""
"","html-keyboard-response","285","340695","0.0-468.0","pysotzgo","1280","720","","","","","","","","","","","null","+","Fixation - short","","null","","","","","","","","","","","","","","","","",""
"","html-keyboard-response","286","341371","0.0-469.0","pysotzgo","","","","","","","","","","","","","674","jey","Diagnostic trial","","f","","5","5","6","false","false","false","both pre & post","LEFT","LEFT","f","1","true","","","",""
"","html-keyboard-response","287","342135","0.0-472.0","pysotzgo","1280","720","","","","","","","","","","","null","+","Fixation - short","","null","","","","","","","","","","","","","","","","",""
"","canvas-keyboard-response","288","343527","0.0-473.0","pysotzgo","","","","","","","","","","","","","null","Cue","Cue","","null","","5","5","","","false","","","","","","","","","","",""
"","html-keyboard-response","289","344293","0.0-474.0","pysotzgo","1280","720","","","","","","","","","","","null","+","Fixation - short","","null","","","","","","","","","","","","","","","","",""
"","html-keyboard-response","290","345025","0.0-475.0","pysotzgo","","","","","","","","","","","","","731","saj","Diagnostic trial","","j","","5","6","6","true","false","true","both pre & post","RIGHT","RIGHT","j","1","true","","","",""
"","html-keyboard-response","291","345778","0.0-478.0","pysotzgo","1280","720","","","","","","","","","","","null","+","Fixation - short","","null","","","","","","","","","","","","","","","","",""
"","html-keyboard-response","292","346240","0.0-479.0","pysotzgo","","","","","","","","","","","","","461","jey","Diagnostic trial","","f","","5","7","6","true","false","true","both pre & post","LEFT","RIGHT","j","0","false","","","",""
"","call-function","293","346241","0.0-481.0-0.0","pysotzgo","","","","","","","","","","","","","","","","","","","","","","","","","","","","","","","","","",""
"","html-keyboard-response","294","346544","0.0-481.0-1.0","pysotzgo","1280","720","","","","","","","","","","","null","Wrong","Feedback","","null","","","","","","","","","","","","","","","","",""
"","call-function","295","346545","0.0-481.0-2.0","pysotzgo","","","","","","","","","","","","","","","","","","","","","","","","","","","","","","","","","",""
"","html-keyboard-response","296","347300","0.0-482.0","pysotzgo","1280","720","","","","","","","","","","","null","+","Fixation - short","","null","","","","","","","","","","","","","","","","",""
"","html-keyboard-response","297","347920","0.0-483.0","pysotzgo","","","","","","","","","","","","","618","saj","Diagnostic trial","","j","","5","8","6","true","false","true","both pre & post","RIGHT","RIGHT","j","1","true","","","",""
"","html-keyboard-response","298","348683","0.0-486.0","pysotzgo","1280","720","","","","","","","","","","","null","+","Fixation - short","","null","","","","","","","","","","","","","","","","",""
"","html-keyboard-response","299","349423","0.0-487.0","pysotzgo","","","","","","","","","","","","","739","saj","Inducer trial","","j","","5","","","","true","","","","","j","1","","false","RIGHT","",""
"","html-keyboard-response","300","350179","0.0-490.0","pysotzgo","1280","720","","","","","","","","","","","null","+","Fixation - short","","null","","","","","","","","","","","","","","","","",""
"","html-keyboard-response","301","352374","0.0-491.0","pysotzgo","","","","","","","","","","","","","2193","If vle press RIGHT | If wrz press LEFT","Inducer instructions",""," ","","6","","","","","","","","","","","","","","",""
"","html-keyboard-response","302","353133","0.0-492.0","pysotzgo","1280","720","","","","","","","","","","","null","+","Fixation - short","","null","","","","","","","","","","","","","","","","",""
"","html-keyboard-response","303","353708","0.0-493.0","pysotzgo","","","","","","","","","","","","","574","wrz","Diagnostic trial","","f","","6","0","7","false","false","true","both pre & post","LEFT","RIGHT","j","0","false","","","",""
"","call-function","304","353709","0.0-495.0-0.0","pysotzgo","","","","","","","","","","","","","","","","","","","","","","","","","","","","","","","","","",""
"","html-keyboard-response","305","354030","0.0-495.0-1.0","pysotzgo","1280","720","","","","","","","","","","","null","Wrong","Feedback","","null","","","","","","","","","","","","","","","","",""
"","call-function","306","354032","0.0-495.0-2.0","pysotzgo","","","","","","","","","","","","","","","","","","","","","","","","","","","","","","","","","",""
"","html-keyboard-response","307","354796","0.0-496.0","pysotzgo","1280","720","","","","","","","","","","","null","+","Fixation - short","","null","","","","","","","","","","","","","","","","",""
"","html-keyboard-response","308","355361","0.0-497.0","pysotzgo","","","","","","","","","","","","","563","wrz","Diagnostic trial","","j","","6","1","7","false","false","true","both pre & post","LEFT","RIGHT","j","1","false","","","",""
"","html-keyboard-response","309","356116","0.0-500.0","pysotzgo","1280","720","","","","","","","","","","","null","+","Fixation - short","","null","","","","","","","","","","","","","","","","",""
"","html-keyboard-response","310","356631","0.0-501.0","pysotzgo","","","","","","","","","","","","","513","wrz","Diagnostic trial","","f","","6","2","7","false","false","false","both pre & post","LEFT","LEFT","f","1","true","","","",""
"","html-keyboard-response","311","357391","0.0-504.0","pysotzgo","1280","720","","","","","","","","","","","null","+","Fixation - short","","null","","","","","","","","","","","","","","","","",""
"","html-keyboard-response","312","357997","0.0-505.0","pysotzgo","","","","","","","","","","","","","605","vle","Diagnostic trial","","f","","6","3","7","false","false","false","both pre & post","RIGHT","LEFT","f","1","false","","","",""
"","html-keyboard-response","313","358766","0.0-508.0","pysotzgo","1280","720","","","","","","","","","","","null","+","Fixation - short","","null","","","","","","","","","","","","","","","","",""
"","html-keyboard-response","314","359445","0.0-509.0","pysotzgo","","","","","","","","","","","","","677","wrz","Diagnostic trial","","f","","6","4","7","false","false","false","both pre & post","LEFT","LEFT","f","1","true","","","",""
"","html-keyboard-response","315","360200","0.0-512.0","pysotzgo","1280","720","","","","","","","","","","","null","+","Fixation - short","","null","","","","","","","","","","","","","","","","",""
"","html-keyboard-response","316","360782","0.0-513.0","pysotzgo","","","","","","","","","","","","","582","wrz","Diagnostic trial","","j","","6","5","7","false","false","true","both pre & post","LEFT","RIGHT","j","1","false","","","",""
"","html-keyboard-response","317","361539","0.0-516.0","pysotzgo","1280","720","","","","","","","","","","","null","+","Fixation - short","","null","","","","","","","","","","","","","","","","",""
"","html-keyboard-response","318","362171","0.0-517.0","pysotzgo","","","","","","","","","","","","","631","vle","Diagnostic trial","","f","","6","6","7","false","false","true","both pre & post","RIGHT","RIGHT","j","0","true","","","",""
"","call-function","319","362172","0.0-519.0-0.0","pysotzgo","","","","","","","","","","","","","","","","","","","","","","","","","","","","","","","","","",""
"","html-keyboard-response","320","362479","0.0-519.0-1.0","pysotzgo","1280","720","","","","","","","","","","","null","Wrong","Feedback","","null","","","","","","","","","","","","","","","","",""
"","call-function","321","362479","0.0-519.0-2.0","pysotzgo","","","","","","","","","","","","","","","","","","","","","","","","","","","","","","","","","",""
"","html-keyboard-response","322","363234","0.0-520.0","pysotzgo","1280","720","","","","","","","","","","","null","+","Fixation - short","","null","","","","","","","","","","","","","","","","",""
"","canvas-keyboard-response","323","364501","0.0-521.0","pysotzgo","","","","","","","","","","","","","null","Cue","Cue","","null","","6","6","","","false","","","","","","","","","","",""
"","html-keyboard-response","324","365253","0.0-522.0","pysotzgo","1280","720","","","","","","","","","","","null","+","Fixation - short","","null","","","","","","","","","","","","","","","","",""
"","html-keyboard-response","325","365832","0.0-523.0","pysotzgo","","","","","","","","","","","","","578","vle","Diagnostic trial","","j","","6","7","7","true","false","true","both pre & post","RIGHT","RIGHT","j","1","true","","","",""
"","html-keyboard-response","326","366595","0.0-526.0","pysotzgo","1280","720","","","","","","","","","","","null","+","Fixation - short","","null","","","","","","","","","","","","","","","","",""
"","html-keyboard-response","327","367294","0.0-527.0","pysotzgo","","","","","","","","","","","","","698","vle","Diagnostic trial","","f","","6","8","7","true","false","false","both pre & post","RIGHT","LEFT","f","1","false","","","",""
"","html-keyboard-response","328","368048","0.0-530.0","pysotzgo","1280","720","","","","","","","","","","","null","+","Fixation - short","","null","","","","","","","","","","","","","","","","",""
"","html-keyboard-response","329","368651","0.0-531.0","pysotzgo","","","","","","","","","","","","","602","vle","Diagnostic trial","","f","","6","9","7","true","false","false","both pre & post","RIGHT","LEFT","f","1","false","","","",""
"","html-keyboard-response","330","369416","0.0-534.0","pysotzgo","1280","720","","","","","","","","","","","null","+","Fixation - short","","null","","","","","","","","","","","","","","","","",""
"","html-keyboard-response","331","369917","0.0-535.0","pysotzgo","","","","","","","","","","","","","500","vle","Diagnostic trial","","f","","6","10","7","true","false","false","both pre & post","RIGHT","LEFT","f","1","false","","","",""
"","html-keyboard-response","332","370675","0.0-538.0","pysotzgo","1280","720","","","","","","","","","","","null","+","Fixation - short","","null","","","","","","","","","","","","","","","","",""
"","html-keyboard-response","333","371459","0.0-539.0","pysotzgo","","","","","","","","","","","","","782","wrz","Inducer trial","","j","","6","","","","true","","","","","f","0","","false","LEFT","",""
"","call-function","334","371459","0.0-541.0-0.0","pysotzgo","","","","","","","","","","","","","","","","","","","","","","","","","","","","","","","","","",""
"","html-keyboard-response","335","371772","0.0-541.0-1.0","pysotzgo","1280","720","","","","","","","","","","","null","Wrong","Feedback","","null","","","","","","","","","","","","","","","","",""
"","call-function","336","371773","0.0-541.0-2.0","pysotzgo","","","","","","","","","","","","","","","","","","","","","","","","","","","","","","","","","",""
"","html-keyboard-response","337","372535","0.0-542.0","pysotzgo","1280","720","","","","","","","","","","","null","+","Fixation - short","","null","","","","","","","","","","","","","","","","",""
"","html-keyboard-response","338","375004","0.0-543.0","pysotzgo","","","","","","","","","","","","","2468","If dpa press RIGHT | If ila press LEFT","Inducer instructions",""," ","","7","","","","","","","","","","","","","","",""
"","html-keyboard-response","339","375757","0.0-544.0","pysotzgo","1280","720","","","","","","","","","","","null","+","Fixation - short","","null","","","","","","","","","","","","","","","","",""
"","html-keyboard-response","340","376554","0.0-545.0","pysotzgo","","","","","","","","","","","","","796","dpa","Diagnostic trial","","j","","7","0","5","false","false","true","both pre & post","RIGHT","RIGHT","j","1","true","","","",""
"","html-keyboard-response","341","377309","0.0-548.0","pysotzgo","1280","720","","","","","","","","","","","null","+","Fixation - short","","null","","","","","","","","","","","","","","","","",""
"","html-keyboard-response","342","377852","0.0-549.0","pysotzgo","","","","","","","","","","","","","543","ila","Diagnostic trial","","f","","7","1","5","false","false","false","both pre & post","LEFT","LEFT","f","1","true","","","",""
"","html-keyboard-response","343","378620","0.0-552.0","pysotzgo","1280","720","","","","","","","","","","","null","+","Fixation - short","","null","","","","","","","","","","","","","","","","",""
"","html-keyboard-response","344","379429","0.0-553.0","pysotzgo","","","","","","","","","","","","","808","dpa","Diagnostic trial","","j","","7","2","5","false","false","true","both pre & post","RIGHT","RIGHT","j","1","true","","","",""
"","html-keyboard-response","345","380190","0.0-556.0","pysotzgo","1280","720","","","","","","","","","","","null","+","Fixation - short","","null","","","","","","","","","","","","","","","","",""
"","html-keyboard-response","346","380754","0.0-557.0","pysotzgo","","","","","","","","","","","","","562","dpa","Diagnostic trial","","j","","7","3","5","false","false","true","both pre & post","RIGHT","RIGHT","j","1","true","","","",""
"","html-keyboard-response","347","381507","0.0-560.0","pysotzgo","1280","720","","","","","","","","","","","null","+","Fixation - short","","null","","","","","","","","","","","","","","","","",""
"","html-keyboard-response","348","382488","0.0-561.0","pysotzgo","","","","","","","","","","","","","978","ila","Diagnostic trial","","j","","7","4","5","false","false","true","both pre & post","LEFT","RIGHT","j","1","false","","","",""
"","html-keyboard-response","349","383246","0.0-564.0","pysotzgo","1280","720","","","","","","","","","","","null","+","Fixation - short","","null","","","","","","","","","","","","","","","","",""
"","canvas-keyboard-response","350","384507","0.0-565.0","pysotzgo","","","","","","","","","","","","","null","Cue","Cue","","null","","7","4","","","false","","","","","","","","","","",""
"","html-keyboard-response","351","385272","0.0-566.0","pysotzgo","1280","720","","","","","","","","","","","null","+","Fixation - short","","null","","","","","","","","","","","","","","","","",""
"","html-keyboard-response","352","386191","0.0-567.0","pysotzgo","","","","","","","","","","","","","919","ila","Inducer trial","","f","","7","","","","true","","","","","f","1","","false","LEFT","",""
"","html-keyboard-response","353","387043","0.0-570.0","pysotzgo","1280","720","","","","","","","","","","","null","+","Fixation - short","","null","","","","","","","","","","","","","","","","",""
"","html-keyboard-response","354","388922","0.0-571.0","pysotzgo","","","","","","","","","","","","","1878","If gfm press RIGHT | If snx press LEFT","Inducer instructions",""," ","","8","","","","","","","","","","","","","","",""
"","html-keyboard-response","355","389684","0.0-572.0","pysotzgo","1280","720","","","","","","","","","","","null","+","Fixation - short","","null","","","","","","","","","","","","","","","","",""
"","html-keyboard-response","356","390220","0.0-573.0","pysotzgo","","","","","","","","","","","","","535","gfm","Diagnostic trial","","j","","8","0","4","false","false","false","both pre & post","RIGHT","LEFT","f","0","false","","","",""
"","call-function","357","390221","0.0-575.0-0.0","pysotzgo","","","","","","","","","","","","","","","","","","","","","","","","","","","","","","","","","",""
"","html-keyboard-response","358","390523","0.0-575.0-1.0","pysotzgo","1280","720","","","","","","","","","","","null","Wrong","Feedback","","null","","","","","","","","","","","","","","","","",""
"","call-function","359","390524","0.0-575.0-2.0","pysotzgo","","","","","","","","","","","","","","","","","","","","","","","","","","","","","","","","","",""
"","html-keyboard-response","360","391285","0.0-576.0","pysotzgo","1280","720","","","","","","","","","","","null","+","Fixation - short","","null","","","","","","","","","","","","","","","","",""
"","html-keyboard-response","361","391830","0.0-577.0","pysotzgo","","","","","","","","","","","","","544","snx","Diagnostic trial","","j","","8","1","4","false","false","true","both pre & post","LEFT","RIGHT","j","1","false","","","",""
"","html-keyboard-response","362","392590","0.0-580.0","pysotzgo","1280","720","","","","","","","","","","","null","+","Fixation - short","","null","","","","","","","","","","","","","","","","",""
"","html-keyboard-response","363","393072","0.0-581.0","pysotzgo","","","","","","","","","","","","","482","gfm","Diagnostic trial","","j","","8","2","4","false","false","true","both pre & post","RIGHT","RIGHT","j","1","true","","","",""
"","html-keyboard-response","364","393834","0.0-584.0","pysotzgo","1280","720","","","","","","","","","","","null","+","Fixation - short","","null","","","","","","","","","","","","","","","","",""
"","html-keyboard-response","365","394375","0.0-585.0","pysotzgo","","","","","","","","","","","","","539","gfm","Diagnostic trial","","f","","8","3","4","false","false","false","both pre & post","RIGHT","LEFT","f","1","false","","","",""
"","html-keyboard-response","366","395140","0.0-588.0","pysotzgo","1280","720","","","","","","","","","","","null","+","Fixation - short","","null","","","","","","","","","","","","","","","","",""
"","canvas-keyboard-response","367","396402","0.0-589.0","pysotzgo","","","","","","","","","","","","","null","Cue","Cue","","null","","8","3","","","false","","","","","","","","","","",""
"","html-keyboard-response","368","397165","0.0-590.0","pysotzgo","1280","720","","","","","","","","","","","null","+","Fixation - short","","null","","","","","","","","","","","","","","","","",""
"","html-keyboard-response","369","397730","0.0-591.0","pysotzgo","","","","","","","","","","","","","562","gfm","Diagnostic trial","","j","","8","4","4","true","false","false","both pre & post","RIGHT","LEFT","f","0","false","","","",""
"","call-function","370","397730","0.0-593.0-0.0","pysotzgo","","","","","","","","","","","","","","","","","","","","","","","","","","","","","","","","","",""
"","html-keyboard-response","371","398036","0.0-593.0-1.0","pysotzgo","1280","720","","","","","","","","","","","null","Wrong","Feedback","","null","","","","","","","","","","","","","","","","",""
"","call-function","372","398036","0.0-593.0-2.0","pysotzgo","","","","","","","","","","","","","","","","","","","","","","","","","","","","","","","","","",""
"","html-keyboard-response","373","398798","0.0-594.0","pysotzgo","1280","720","","","","","","","","","","","null","+","Fixation - short","","null","","","","","","","","","","","","","","","","",""
"","html-keyboard-response","374","399340","0.0-595.0","pysotzgo","","","","","","","","","","","","","541","snx","Diagnostic trial","","f","","8","5","4","true","false","false","both pre & post","LEFT","LEFT","f","1","true","","","",""
"","html-keyboard-response","375","400093","0.0-598.0","pysotzgo","1280","720","","","","","","","","","","","null","+","Fixation - short","","null","","","","","","","","","","","","","","","","",""
"","html-keyboard-response","376","400793","0.0-599.0","pysotzgo","","","","","","","","","","","","","698","gfm","Inducer trial","","f","","8","","","","true","","","","","j","0","","false","RIGHT","",""
"","call-function","377","400794","0.0-601.0-0.0","pysotzgo","","","","","","","","","","","","","","","","","","","","","","","","","","","","","","","","","",""
"","html-keyboard-response","378","401103","0.0-601.0-1.0","pysotzgo","1280","720","","","","","","","","","","","null","Wrong","Feedback","","null","","","","","","","","","","","","","","","","",""
"","call-function","379","401104","0.0-601.0-2.0","pysotzgo","","","","","","","","","","","","","","","","","","","","","","","","","","","","","","","","","",""
"","html-keyboard-response","380","401864","0.0-602.0","pysotzgo","1280","720","","","","","","","","","","","null","+","Fixation - short","","null","","","","","","","","","","","","","","","","",""
"","html-keyboard-response","381","402905","0.0-603.0","pysotzgo","","","","","","","","","","","","","1040","If fuc press RIGHT | If fja press LEFT","Inducer instructions",""," ","","9","","","","","","","","","","","","","","",""
"","html-keyboard-response","382","403667","0.0-604.0","pysotzgo","1280","720","","","","","","","","","","","null","+","Fixation - short","","null","","","","","","","","","","","","","","","","",""
"","html-keyboard-response","383","404497","0.0-605.0","pysotzgo","","","","","","","","","","","","","827","fja","Diagnostic trial","","f","","9","0","10","false","false","false","both pre & post","LEFT","LEFT","f","1","true","","","",""
"","html-keyboard-response","384","405257","0.0-608.0","pysotzgo","1280","720","","","","","","","","","","","null","+","Fixation - short","","null","","","","","","","","","","","","","","","","",""
"","html-keyboard-response","385","405784","0.0-609.0","pysotzgo","","","","","","","","","","","","","525","fuc","Diagnostic trial","","j","","9","1","10","false","false","true","both pre & post","RIGHT","RIGHT","j","1","true","","","",""
"","html-keyboard-response","386","406540","0.0-612.0","pysotzgo","1280","720","","","","","","","","","","","null","+","Fixation - short","","null","","","","","","","","","","","","","","","","",""
"","html-keyboard-response","387","407109","0.0-613.0","pysotzgo","","","","","","","","","","","","","567","fja","Diagnostic trial","","f","","9","2","10","false","false","false","both pre & post","LEFT","LEFT","f","1","true","","","",""
"","html-keyboard-response","388","407910","0.0-616.0","pysotzgo","1280","720","","","","","","","","","","","null","+","Fixation - short","","null","","","","","","","","","","","","","","","","",""
"","html-keyboard-response","389","408488","0.0-617.0","pysotzgo","","","","","","","","","","","","","577","fja","Diagnostic trial","","j","","9","3","10","false","false","false","both pre & post","LEFT","LEFT","f","0","true","","","",""
"","call-function","390","408489","0.0-619.0-0.0","pysotzgo","","","","","","","","","","","","","","","","","","","","","","","","","","","","","","","","","",""
"","html-keyboard-response","391","408797","0.0-619.0-1.0","pysotzgo","1280","720","","","","","","","","","","","null","Wrong","Feedback","","null","","","","","","","","","","","","","","","","",""
"","call-function","392","408799","0.0-619.0-2.0","pysotzgo","","","","","","","","","","","","","","","","","","","","","","","","","","","","","","","","","",""
"","html-keyboard-response","393","409560","0.0-620.0","pysotzgo","1280","720","","","","","","","","","","","null","+","Fixation - short","","null","","","","","","","","","","","","","","","","",""
"","html-keyboard-response","394","410218","0.0-621.0","pysotzgo","","","","","","","","","","","","","656","fuc","Diagnostic trial","","j","","9","4","10","false","false","true","both pre & post","RIGHT","RIGHT","j","1","true","","","",""
"","html-keyboard-response","395","410976","0.0-624.0","pysotzgo","1280","720","","","","","","","","","","","null","+","Fixation - short","","null","","","","","","","","","","","","","","","","",""
"","html-keyboard-response","396","411633","0.0-625.0","pysotzgo","","","","","","","","","","","","","655","fuc","Diagnostic trial","","j","","9","5","10","false","false","false","both pre & post","RIGHT","LEFT","f","0","false","","","",""
"","call-function","397","411634","0.0-627.0-0.0","pysotzgo","","","","","","","","","","","","","","","","","","","","","","","","","","","","","","","","","",""
"","html-keyboard-response","398","411940","0.0-627.0-1.0","pysotzgo","1280","720","","","","","","","","","","","null","Wrong","Feedback","","null","","","","","","","","","","","","","","","","",""
"","call-function","399","411940","0.0-627.0-2.0","pysotzgo","","","","","","","","","","","","","","","","","","","","","","","","","","","","","","","","","",""
"","html-keyboard-response","400","412701","0.0-628.0","pysotzgo","1280","720","","","","","","","","","","","null","+","Fixation - short","","null","","","","","","","","","","","","","","","","",""
"","html-keyboard-response","401","413443","0.0-629.0","pysotzgo","","","","","","","","","","","","","741","fuc","Diagnostic trial","","f","","9","6","10","false","false","false","both pre & post","RIGHT","LEFT","f","1","false","","","",""
"","html-keyboard-response","402","414194","0.0-632.0","pysotzgo","1280","720","","","","","","","","","","","null","+","Fixation - short","","null","","","","","","","","","","","","","","","","",""
"","html-keyboard-response","403","414815","0.0-633.0","pysotzgo","","","","","","","","","","","","","619","fja","Diagnostic trial","","j","","9","7","10","false","false","true","both pre & post","LEFT","RIGHT","j","1","false","","","",""
"","html-keyboard-response","404","415569","0.0-636.0","pysotzgo","1280","720","","","","","","","","","","","null","+","Fixation - short","","null","","","","","","","","","","","","","","","","",""
"","html-keyboard-response","405","416430","0.0-637.0","pysotzgo","","","","","","","","","","","","","860","fuc","Diagnostic trial","","f","","9","8","10","false","false","false","both pre & post","RIGHT","LEFT","f","1","false","","","",""
"","html-keyboard-response","406","417186","0.0-640.0","pysotzgo","1280","720","","","","","","","","","","","null","+","Fixation - short","","null","","","","","","","","","","","","","","","","",""
"","html-keyboard-response","407","417929","0.0-641.0","pysotzgo","","","","","","","","","","","","","742","fuc","Diagnostic trial","","f","","9","9","10","false","false","false","both pre & post","RIGHT","LEFT","f","1","false","","","",""
"","html-keyboard-response","408","418692","0.0-644.0","pysotzgo","1280","720","","","","","","","","","","","null","+","Fixation - short","","null","","","","","","","","","","","","","","","","",""
"","canvas-keyboard-response","409","419952","0.0-645.0","pysotzgo","","","","","","","","","","","","","null","Cue","Cue","","null","","9","9","","","false","","","","","","","","","","",""
"","html-keyboard-response","410","420717","0.0-646.0","pysotzgo","1280","720","","","","","","","","","","","null","+","Fixation - short","","null","","","","","","","","","","","","","","","","",""
"","html-keyboard-response","411","422027","0.0-647.0","pysotzgo","","","","","","","","","","","","","1308","fuc","Diagnostic trial","","f","","9","10","10","true","false","false","both pre & post","RIGHT","LEFT","f","1","false","","","",""
"","html-keyboard-response","412","422788","0.0-650.0","pysotzgo","1280","720","","","","","","","","","","","null","+","Fixation - short","","null","","","","","","","","","","","","","","","","",""
"","html-keyboard-response","413","423874","0.0-651.0","pysotzgo","","","","","","","","","","","","","1085","fuc","Diagnostic trial","","j","","9","11","10","true","false","false","both pre & post","RIGHT","LEFT","f","0","false","","","",""
"","call-function","414","423875","0.0-653.0-0.0","pysotzgo","","","","","","","","","","","","","","","","","","","","","","","","","","","","","","","","","",""
"","html-keyboard-response","415","424190","0.0-653.0-1.0","pysotzgo","1280","720","","","","","","","","","","","null","Wrong","Feedback","","null","","","","","","","","","","","","","","","","",""
"","call-function","416","424191","0.0-653.0-2.0","pysotzgo","","","","","","","","","","","","","","","","","","","","","","","","","","","","","","","","","",""
"","html-keyboard-response","417","424950","0.0-654.0","pysotzgo","1280","720","","","","","","","","","","","null","+","Fixation - short","","null","","","","","","","","","","","","","","","","",""
"","html-keyboard-response","418","426358","0.0-655.0","pysotzgo","","","","","","","","","","","","","1407","fja","Inducer trial","","j","","9","","","","true","","","","","f","0","","false","LEFT","",""
"","call-function","419","426359","0.0-657.0-0.0","pysotzgo","","","","","","","","","","","","","","","","","","","","","","","","","","","","","","","","","",""
"","html-keyboard-response","420","426664","0.0-657.0-1.0","pysotzgo","1280","720","","","","","","","","","","","null","Wrong","Feedback","","null","","","","","","","","","","","","","","","","",""
"","call-function","421","426665","0.0-657.0-2.0","pysotzgo","","","","","","","","","","","","","","","","","","","","","","","","","","","","","","","","","",""
"","html-keyboard-response","422","427422","0.0-658.0","pysotzgo","1280","720","","","","","","","","","","","null","+","Fixation - short","","null","","","","","","","","","","","","","","","","",""
"","html-keyboard-response","423","447426","0.0-659.0","pysotzgo","","","","","","","","","","","","","null","If sjn press RIGHT | If idy press LEFT","Inducer instructions","","null","","10","","","","","","","","","","","","","","",""
"","html-keyboard-response","424","448191","0.0-660.0","pysotzgo","1280","720","","","","","","","","","","","null","+","Fixation - short","","null","","","","","","","","","","","","","","","","",""
"","html-keyboard-response","425","450198","0.0-661.0","pysotzgo","","","","","","","","","","","","","null","idy","Diagnostic trial","","null","","10","0","5","false","false","false","both pre & post","LEFT","LEFT","f","NaN","true","","","",""
"","call-function","426","450200","0.0-662.0-0.0","pysotzgo","","","","","","","","","","","","","","","","","","","","","","","","","","","","","","","","","",""
"","html-keyboard-response","427","450507","0.0-662.0-1.0","pysotzgo","1280","720","","","","","","","","","","","null","Slow","Feedback","","null","","","","","","","","","","","","","","","","",""
"","call-function","428","450508","0.0-662.0-2.0","pysotzgo","","","","","","","","","","","","","","","","","","","","","","","","","","","","","","","","","",""
"","html-keyboard-response","429","451271","0.0-664.0","pysotzgo","1280","720","","","","","","","","","","","null","+","Fixation - short","","null","","","","","","","","","","","","","","","","",""
"","html-keyboard-response","430","453081","0.0-665.0","pysotzgo","","","","","","","","","","","","","1807","idy","Diagnostic trial","","j","","10","1","5","false","false","false","both pre & post","LEFT","LEFT","f","0","true","","","",""
"","call-function","431","453081","0.0-667.0-0.0","pysotzgo","","","","","","","","","","","","","","","","","","","","","","","","","","","","","","","","","",""
"","html-keyboard-response","432","453398","0.0-667.0-1.0","pysotzgo","1280","720","","","","","","","","","","","null","Wrong","Feedback","","null","","","","","","","","","","","","","","","","",""
"","call-function","433","453399","0.0-667.0-2.0","pysotzgo","","","","","","","","","","","","","","","","","","","","","","","","","","","","","","","","","",""
"","html-keyboard-response","434","454151","0.0-668.0","pysotzgo","1280","720","","","","","","","","","","","null","+","Fixation - short","","null","","","","","","","","","","","","","","","","",""
"","html-keyboard-response","435","454767","0.0-669.0","pysotzgo","","","","","","","","","","","","","614","idy","Diagnostic trial","","j","","10","2","5","false","false","true","both pre & post","LEFT","RIGHT","j","1","false","","","",""
"","html-keyboard-response","436","455520","0.0-672.0","pysotzgo","1280","720","","","","","","","","","","","null","+","Fixation - short","","null","","","","","","","","","","","","","","","","",""
"","html-keyboard-response","437","456001","0.0-673.0","pysotzgo","","","","","","","","","","","","","479","idy","Diagnostic trial","","f","","10","3","5","false","false","false","both pre & post","LEFT","LEFT","f","1","true","","","",""
"","html-keyboard-response","438","456760","0.0-676.0","pysotzgo","1280","720","","","","","","","","","","","null","+","Fixation - short","","null","","","","","","","","","","","","","","","","",""
"","html-keyboard-response","439","457283","0.0-677.0","pysotzgo","","","","","","","","","","","","","522","idy","Diagnostic trial","","f","","10","4","5","false","false","true","both pre & post","LEFT","RIGHT","j","0","false","","","",""
"","call-function","440","457285","0.0-679.0-0.0","pysotzgo","","","","","","","","","","","","","","","","","","","","","","","","","","","","","","","","","",""
"","html-keyboard-response","441","457593","0.0-679.0-1.0","pysotzgo","1280","720","","","","","","","","","","","null","Wrong","Feedback","","null","","","","","","","","","","","","","","","","",""
"","call-function","442","457594","0.0-679.0-2.0","pysotzgo","","","","","","","","","","","","","","","","","","","","","","","","","","","","","","","","","",""
"","html-keyboard-response","443","458365","0.0-680.0","pysotzgo","1280","720","","","","","","","","","","","null","+","Fixation - short","","null","","","","","","","","","","","","","","","","",""
"","canvas-keyboard-response","444","459620","0.0-681.0","pysotzgo","","","","","","","","","","","","","null","Cue","Cue","","null","","10","4","","","false","","","","","","","","","","",""
"","html-keyboard-response","445","460374","0.0-682.0","pysotzgo","1280","720","","","","","","","","","","","null","+","Fixation - short","","null","","","","","","","","","","","","","","","","",""
"","html-keyboard-response","446","460945","0.0-683.0","pysotzgo","","","","","","","","","","","","","571","sjn","Diagnostic trial","","f","","10","5","5","true","false","false","both pre & post","RIGHT","LEFT","f","1","false","","","",""
"","html-keyboard-response","447","461710","0.0-686.0","pysotzgo","1280","720","","","","","","","","","","","null","+","Fixation - short","","null","","","","","","","","","","","","","","","","",""
"","html-keyboard-response","448","462248","0.0-687.0","pysotzgo","","","","","","","","","","","","","536","idy","Diagnostic trial","","j","","10","6","5","true","false","true","both pre & post","LEFT","RIGHT","j","1","false","","","",""
"","html-keyboard-response","449","463015","0.0-690.0","pysotzgo","1280","720","","","","","","","","","","","null","+","Fixation - short","","null","","","","","","","","","","","","","","","","",""
"","html-keyboard-response","450","463577","0.0-691.0","pysotzgo","","","","","","","","","","","","","562","sjn","Diagnostic trial","","f","","10","7","5","true","false","false","both pre & post","RIGHT","LEFT","f","1","false","","","",""
"","html-keyboard-response","451","464334","0.0-694.0","pysotzgo","1280","720","","","","","","","","","","","null","+","Fixation - short","","null","","","","","","","","","","","","","","","","",""
"","html-keyboard-response","452","464811","0.0-695.0","pysotzgo","","","","","","","","","","","","","476","sjn","Diagnostic trial","","j","","10","8","5","true","false","true","both pre & post","RIGHT","RIGHT","j","1","true","","","",""
"","html-keyboard-response","453","465571","0.0-698.0","pysotzgo","1280","720","","","","","","","","","","","null","+","Fixation - short","","null","","","","","","","","","","","","","","","","",""
"","html-keyboard-response","454","466341","0.0-699.0","pysotzgo","","","","","","","","","","","","","769","idy","Inducer trial","","j","","10","","","","true","","","","","f","0","","false","LEFT","",""
"","call-function","455","466342","0.0-701.0-0.0","pysotzgo","","","","","","","","","","","","","","","","","","","","","","","","","","","","","","","","","",""
"","html-keyboard-response","456","466659","0.0-701.0-1.0","pysotzgo","1280","720","","","","","","","","","","","null","Wrong","Feedback","","null","","","","","","","","","","","","","","","","",""
"","call-function","457","466660","0.0-701.0-2.0","pysotzgo","","","","","","","","","","","","","","","","","","","","","","","","","","","","","","","","","",""
"","html-keyboard-response","458","467414","0.0-702.0","pysotzgo","1280","720","","","","","","","","","","","null","+","Fixation - short","","null","","","","","","","","","","","","","","","","",""
"","html-keyboard-response","459","471280","0.0-703.0","pysotzgo","","","","","","","","","","","","","3864","If quy press RIGHT | If kue press LEFT","Inducer instructions",""," ","","11","","","","","","","","","","","","","","",""
"","html-keyboard-response","460","472046","0.0-704.0","pysotzgo","1280","720","","","","","","","","","","","null","+","Fixation - short","","null","","","","","","","","","","","","","","","","",""
"","html-keyboard-response","461","472607","0.0-705.0","pysotzgo","","","","","","","","","","","","","560","quy","Diagnostic trial","","j","","11","0","9","false","false","true","both pre & post","RIGHT","RIGHT","j","1","true","","","",""
"","html-keyboard-response","462","473370","0.0-708.0","pysotzgo","1280","720","","","","","","","","","","","null","+","Fixation - short","","null","","","","","","","","","","","","","","","","",""
"","html-keyboard-response","463","474030","0.0-709.0","pysotzgo","","","","","","","","","","","","","660","kue","Diagnostic trial","","j","","11","1","9","false","false","true","both pre & post","LEFT","RIGHT","j","1","false","","","",""
"","html-keyboard-response","464","474787","0.0-712.0","pysotzgo","1280","720","","","","","","","","","","","null","+","Fixation - short","","null","","","","","","","","","","","","","","","","",""
"","html-keyboard-response","465","475268","0.0-713.0","pysotzgo","","","","","","","","","","","","","481","kue","Diagnostic trial","","j","","11","2","9","false","false","true","both pre & post","LEFT","RIGHT","j","1","false","","","",""
"","html-keyboard-response","466","476029","0.0-716.0","pysotzgo","1280","720","","","","","","","","","","","null","+","Fixation - short","","null","","","","","","","","","","","","","","","","",""
