"value","trial_type","trial_index","time_elapsed","internal_node_id","id","width","height","webaudio","browser","browser_version","mobile","os","fullscreen","vsync_rate","webcam","microphone","view_history","rt","stimulus","trial_info","success","response","inducer_run","diagnostic_run","inducer_trial","italic","correct_diag_response_side","correct_response_key","correct_response","correct_inducer_response_side","congruent","accuracy","open_feedback","interactive"
"","call-function","0","2","0.0-0.0","2u5ya5yy","","","","","","","","","","","","","","","","","","","","","","","","","","","","",""
"","browser-check","1","1014","0.0-1.0","2u5ya5yy","1350","957","true","chrome","120.0.0","false","Windows 10","true","59.95","true","true","","","","","","","","","","","","","","","","","",""
"","instructions","2","98858","0.0-2.0","2u5ya5yy","","","","","","","","","","","","[{""page_index"":0,""viewing_time"":50394},{""page_index"":1,""viewing_time"":15912},{""page_index"":2,""viewing_time"":31536}]","97842","The experiment and consent","The experiment and consent","","","","","","","","","","","","","",""
"","fullscreen","3","110318","0.0-3.0","2u5ya5yy","2560","1440","","","","","","","","","","","10454","","Full screen","true","","","","","","","","","","","","",""
"","instructions","4","166226","0.0-4.0","2u5ya5yy","2560","1440","","","","","","","","","","[{""page_index"":0,""viewing_time"":49594},{""page_index"":1,""viewing_time"":6312}]","55906","Instructions","Basic overview explanation","","","","","","","","","","","","","",""
"","html-keyboard-response","5","180380","0.0-5.0","2u5ya5yy","2560","1440","","","","","","","","","","","12644","If italic press RIGHT | If upright press LEFT","Diagnostic instructions",""," ","","","","","","","","","","","",""
"","html-keyboard-response","6","181137","0.0-6.0","2u5ya5yy","2560","1440","","","","","","","","","","","null","+","Fixation - short","","null","","","","","","","","","","","",""
"","html-keyboard-response","7","183148","0.0-7.0","2u5ya5yy","2560","1440","","","","","","","","","","","null","t&g","Practice diganostic trial","","null","practice","0","false","true","RIGHT","j","NaN","","","","",""
"","call-function","8","183150","0.0-8.0-0.0","2u5ya5yy","","","","","","","","","","","","","","","","","","","","","","","","","","","","",""
"","html-keyboard-response","9","183451","0.0-8.0-1.0","2u5ya5yy","2560","1440","","","","","","","","","","","null","Slow","Feedback","","null","","","","","","","","","","","",""
"","call-function","10","183452","0.0-8.0-2.0","2u5ya5yy","","","","","","","","","","","","","","","","","","","","","","","","","","","","",""
"","html-keyboard-response","11","184207","0.0-10.0","2u5ya5yy","2560","1440","","","","","","","","","","","null","+","Fixation - short","","null","","","","","","","","","","","",""
"","html-keyboard-response","12","184722","0.0-11.0","2u5ya5yy","2560","1440","","","","","","","","","","","515","t&g","Practice diganostic trial","","j","practice","1","false","false","LEFT","f","0","","","","",""
"","call-function","13","184723","0.0-13.0-0.0","2u5ya5yy","","","","","","","","","","","","","","","","","","","","","","","","","","","","",""
"","html-keyboard-response","14","185035","0.0-13.0-1.0","2u5ya5yy","2560","1440","","","","","","","","","","","null","Wrong","Feedback","","null","","","","","","","","","","","",""
"","call-function","15","185035","0.0-13.0-2.0","2u5ya5yy","","","","","","","","","","","","","","","","","","","","","","","","","","","","",""
"","html-keyboard-response","16","185791","0.0-14.0","2u5ya5yy","2560","1440","","","","","","","","","","","null","+","Fixation - short","","null","","","","","","","","","","","",""
"","html-keyboard-response","17","186682","0.0-15.0","2u5ya5yy","2560","1440","","","","","","","","","","","890","t&g","Practice diganostic trial","","j","practice","2","false","true","RIGHT","j","1","","","","",""
"","html-keyboard-response","18","187441","0.0-18.0","2u5ya5yy","2560","1440","","","","","","","","","","","null","+","Fixation - short","","null","","","","","","","","","","","",""
"","html-keyboard-response","19","188058","0.0-19.0","2u5ya5yy","2560","1440","","","","","","","","","","","617","t&g","Practice diganostic trial","","j","practice","3","false","true","RIGHT","j","1","","","","",""
"","html-keyboard-response","20","188825","0.0-22.0","2u5ya5yy","2560","1440","","","","","","","","","","","null","+","Fixation - short","","null","","","","","","","","","","","",""
"","html-keyboard-response","21","189378","0.0-23.0","2u5ya5yy","2560","1440","","","","","","","","","","","553","t&g","Practice diganostic trial","","j","practice","4","false","true","RIGHT","j","1","","","","",""
"","html-keyboard-response","22","190144","0.0-26.0","2u5ya5yy","2560","1440","","","","","","","","","","","null","+","Fixation - short","","null","","","","","","","","","","","",""
"","html-keyboard-response","23","190763","0.0-27.0","2u5ya5yy","2560","1440","","","","","","","","","","","618","enw","Practice diganostic trial","","j","practice","5","false","true","RIGHT","j","1","","","","",""
"","html-keyboard-response","24","191516","0.0-30.0","2u5ya5yy","2560","1440","","","","","","","","","","","null","+","Fixation - short","","null","","","","","","","","","","","",""
"","html-keyboard-response","25","192130","0.0-31.0","2u5ya5yy","2560","1440","","","","","","","","","","","614","t&g","Practice diganostic trial","","j","practice","6","false","true","RIGHT","j","1","","","","",""
"","html-keyboard-response","26","192882","0.0-34.0","2u5ya5yy","2560","1440","","","","","","","","","","","null","+","Fixation - short","","null","","","","","","","","","","","",""
"","html-keyboard-response","27","193282","0.0-35.0","2u5ya5yy","2560","1440","","","","","","","","","","","399","t&g","Practice diganostic trial","","j","practice","7","false","true","RIGHT","j","1","","","","",""
"","html-keyboard-response","28","194048","0.0-38.0","2u5ya5yy","2560","1440","","","","","","","","","","","null","+","Fixation - short","","null","","","","","","","","","","","",""
"","html-keyboard-response","29","194410","0.0-39.0","2u5ya5yy","2560","1440","","","","","","","","","","","361","t&g","Practice diganostic trial","","j","practice","8","false","true","RIGHT","j","1","","","","",""
"","html-keyboard-response","30","195165","0.0-42.0","2u5ya5yy","2560","1440","","","","","","","","","","","null","+","Fixation - short","","null","","","","","","","","","","","",""
"","html-keyboard-response","31","195627","0.0-43.0","2u5ya5yy","2560","1440","","","","","","","","","","","460","enw","Practice diganostic trial","","j","practice","9","false","true","RIGHT","j","1","","","","",""
"","html-keyboard-response","32","196384","0.0-46.0","2u5ya5yy","2560","1440","","","","","","","","","","","null","+","Fixation - short","","null","","","","","","","","","","","",""
"","html-keyboard-response","33","196722","0.0-47.0","2u5ya5yy","2560","1440","","","","","","","","","","","338","enw","Practice diganostic trial","","j","practice","10","false","true","RIGHT","j","1","","","","",""
"","html-keyboard-response","34","197483","0.0-50.0","2u5ya5yy","2560","1440","","","","","","","","","","","null","+","Fixation - short","","null","","","","","","","","","","","",""
"","html-keyboard-response","35","198234","0.0-51.0","2u5ya5yy","2560","1440","","","","","","","","","","","751","t&g","Practice diganostic trial","","j","practice","11","false","true","RIGHT","j","1","","","","",""
"","html-keyboard-response","36","199000","0.0-54.0","2u5ya5yy","2560","1440","","","","","","","","","","","null","+","Fixation - short","","null","","","","","","","","","","","",""
"","html-keyboard-response","37","199675","0.0-55.0","2u5ya5yy","2560","1440","","","","","","","","","","","674","t&g","Practice diganostic trial","","j","practice","12","false","true","RIGHT","j","1","","","","",""
"","html-keyboard-response","38","200433","0.0-58.0","2u5ya5yy","2560","1440","","","","","","","","","","","null","+","Fixation - short","","null","","","","","","","","","","","",""
"","html-keyboard-response","39","201482","0.0-59.0","2u5ya5yy","2560","1440","","","","","","","","","","","1048","t&g","Practice diganostic trial","","f","practice","13","false","false","LEFT","f","1","","","","",""
"","html-keyboard-response","40","202237","0.0-62.0","2u5ya5yy","2560","1440","","","","","","","","","","","null","+","Fixation - short","","null","","","","","","","","","","","",""
"","html-keyboard-response","41","202819","0.0-63.0","2u5ya5yy","2560","1440","","","","","","","","","","","581","enw","Practice diganostic trial","","j","practice","14","false","true","RIGHT","j","1","","","","",""
"","html-keyboard-response","42","203571","0.0-66.0","2u5ya5yy","2560","1440","","","","","","","","","","","null","+","Fixation - short","","null","","","","","","","","","","","",""
"","instructions","43","218090","0.0-67.0","2u5ya5yy","2560","1440","","","","","","","","","","[{""page_index"":0,""viewing_time"":14518}]","14518","Instructions","Final experiment explanation","","","","","","","","","","","","","",""
"","html-keyboard-response","44","227235","0.0-68.0","2u5ya5yy","2560","1440","","","","","","","","","","","7628","If me1 press LEFT | If idd press RIGHT","Practice inducer instructions",""," ","practice","","","","","","","","","","",""
"","html-keyboard-response","45","228507","0.0-69.0","2u5ya5yy","2560","1440","","","","","","","","","","","1270","me1","Practice inducer trial","","f","practice","","true","","","","1","","","","",""
"","html-keyboard-response","46","229260","0.0-72.0","2u5ya5yy","2560","1440","","","","","","","","","","","null","+","Fixation - short","","null","","","","","","","","","","","",""
"","html-keyboard-response","47","234003","0.0-73.0","2u5ya5yy","2560","1440","","","","","","","","","","","4742","If ows press LEFT | If oco press RIGHT","Practice inducer instructions",""," ","practice","","","","","","","","","","",""
"","html-keyboard-response","48","234827","0.0-74.0","2u5ya5yy","2560","1440","","","","","","","","","","","823","ows","Practice inducer trial","","f","practice","","true","","","","1","","","","",""
"","html-keyboard-response","49","235582","0.0-77.0","2u5ya5yy","2560","1440","","","","","","","","","","","null","+","Fixation - short","","null","","","","","","","","","","","",""
"","html-keyboard-response","50","243531","0.0-78.0","2u5ya5yy","2560","1440","","","","","","","","","","","7949","If w&d press LEFT | If drn press RIGHT","Practice inducer instructions",""," ","practice","","","","","","","","","","",""
"","html-keyboard-response","51","244267","0.0-79.0","2u5ya5yy","2560","1440","","","","","","","","","","","735","drn","Practice inducer trial","","j","practice","","true","","","","1","","","","",""
"","html-keyboard-response","52","245023","0.0-82.0","2u5ya5yy","2560","1440","","","","","","","","","","","null","+","Fixation - short","","null","","","","","","","","","","","",""
"","html-keyboard-response","53","251523","0.0-83.0","2u5ya5yy","2560","1440","","","","","","","","","","","6499","If r22 press LEFT | If mhs press RIGHT","Practice inducer instructions",""," ","practice","","","","","","","","","","",""
"","html-keyboard-response","54","252227","0.0-84.0","2u5ya5yy","2560","1440","","","","","","","","","","","703","mhs","Practice inducer trial","","j","practice","","true","","","","1","","","","",""
"","html-keyboard-response","55","252985","0.0-87.0","2u5ya5yy","2560","1440","","","","","","","","","","","null","+","Fixation - short","","null","","","","","","","","","","","",""
"","html-keyboard-response","56","256147","0.0-88.0","2u5ya5yy","2560","1440","","","","","","","","","","","3162","End practice","End of practice",""," ","","","","","","","","","","","",""
"","html-keyboard-response","57","257653","0.0-89.0","2u5ya5yy","2560","1440","","","","","","","","","","","null","+","Fixation - long","","null","","","","","","","","","","","",""
"","html-keyboard-response","58","262035","0.0-90.0","2u5ya5yy","2560","1440","","","","","","","","","","","4381","If eal press LEFT | If yrl press RIGHT","Inducer instructions",""," ","0","","","","","","","","","","",""
"","html-keyboard-response","59","262793","0.0-91.0","2u5ya5yy","2560","1440","","","","","","","","","","","null","+","Fixation - short","","null","","","","","","","","","","","",""
"","html-keyboard-response","60","263307","0.0-92.0","2u5ya5yy","2560","1440","","","","","","","","","","","513","eal","Diagnostic trial","","f","0","0","false","false","LEFT","f","1","LEFT","true","","",""
"","html-keyboard-response","61","264073","0.0-95.0","2u5ya5yy","2560","1440","","","","","","","","","","","null","+","Fixation - short","","null","","","","","","","","","","","",""
"","html-keyboard-response","62","264507","0.0-96.0","2u5ya5yy","2560","1440","","","","","","","","","","","434","eal","Diagnostic trial","","f","0","1","false","false","LEFT","f","1","LEFT","true","","",""
"","html-keyboard-response","63","265272","0.0-99.0","2u5ya5yy","2560","1440","","","","","","","","","","","null","+","Fixation - short","","null","","","","","","","","","","","",""
"","html-keyboard-response","64","265627","0.0-100.0","2u5ya5yy","2560","1440","","","","","","","","","","","354","eal","Diagnostic trial","","f","0","2","false","true","RIGHT","j","0","LEFT","false","","",""
"","call-function","65","265628","0.0-102.0-0.0","2u5ya5yy","","","","","","","","","","","","","","","","","","","","","","","","","","","","",""
"","html-keyboard-response","66","265935","0.0-102.0-1.0","2u5ya5yy","2560","1440","","","","","","","","","","","null","Wrong","Feedback","","null","","","","","","","","","","","",""
"","call-function","67","265936","0.0-102.0-2.0","2u5ya5yy","","","","","","","","","","","","","","","","","","","","","","","","","","","","",""
"","html-keyboard-response","68","266692","0.0-103.0","2u5ya5yy","2560","1440","","","","","","","","","","","null","+","Fixation - short","","null","","","","","","","","","","","",""
"","html-keyboard-response","69","267467","0.0-104.0","2u5ya5yy","2560","1440","","","","","","","","","","","774","yrl","Diagnostic trial","","j","0","3","false","true","RIGHT","j","1","RIGHT","true","","",""
"","html-keyboard-response","70","268226","0.0-107.0","2u5ya5yy","2560","1440","","","","","","","","","","","null","+","Fixation - short","","null","","","","","","","","","","","",""
"","html-keyboard-response","71","268619","0.0-108.0","2u5ya5yy","2560","1440","","","","","","","","","","","392","yrl","Diagnostic trial","","j","0","4","false","false","LEFT","f","0","RIGHT","false","","",""
"","call-function","72","268620","0.0-110.0-0.0","2u5ya5yy","","","","","","","","","","","","","","","","","","","","","","","","","","","","",""
"","html-keyboard-response","73","268922","0.0-110.0-1.0","2u5ya5yy","2560","1440","","","","","","","","","","","null","Wrong","Feedback","","null","","","","","","","","","","","",""
"","call-function","74","268923","0.0-110.0-2.0","2u5ya5yy","","","","","","","","","","","","","","","","","","","","","","","","","","","","",""
"","html-keyboard-response","75","269676","0.0-111.0","2u5ya5yy","2560","1440","","","","","","","","","","","null","+","Fixation - short","","null","","","","","","","","","","","",""
"","html-keyboard-response","76","270419","0.0-112.0","2u5ya5yy","2560","1440","","","","","","","","","","","742","yrl","Diagnostic trial","","j","0","5","false","true","RIGHT","j","1","RIGHT","true","","",""
"","html-keyboard-response","77","271181","0.0-115.0","2u5ya5yy","2560","1440","","","","","","","","","","","null","+","Fixation - short","","null","","","","","","","","","","","",""
"","html-keyboard-response","78","271907","0.0-116.0","2u5ya5yy","2560","1440","","","","","","","","","","","724","eal","Diagnostic trial","","f","0","6","false","false","LEFT","f","1","LEFT","true","","",""
"","html-keyboard-response","79","272664","0.0-119.0","2u5ya5yy","2560","1440","","","","","","","","","","","null","+","Fixation - short","","null","","","","","","","","","","","",""
"","html-keyboard-response","80","273163","0.0-120.0","2u5ya5yy","2560","1440","","","","","","","","","","","498","eal","Diagnostic trial","","f","0","7","false","false","LEFT","f","1","LEFT","true","","",""
"","html-keyboard-response","81","273929","0.0-123.0","2u5ya5yy","2560","1440","","","","","","","","","","","null","+","Fixation - short","","null","","","","","","","","","","","",""
"","html-keyboard-response","82","274675","0.0-124.0","2u5ya5yy","2560","1440","","","","","","","","","","","745","yrl","Diagnostic trial","","f","0","8","false","false","LEFT","f","1","RIGHT","false","","",""
"","html-keyboard-response","83","275434","0.0-127.0","2u5ya5yy","2560","1440","","","","","","","","","","","null","+","Fixation - short","","null","","","","","","","","","","","",""
"","html-keyboard-response","84","276211","0.0-128.0","2u5ya5yy","2560","1440","","","","","","","","","","","776","eal","Diagnostic trial","","f","0","9","false","true","RIGHT","j","0","LEFT","false","","",""
"","call-function","85","276211","0.0-130.0-0.0","2u5ya5yy","","","","","","","","","","","","","","","","","","","","","","","","","","","","",""
"","html-keyboard-response","86","276527","0.0-130.0-1.0","2u5ya5yy","2560","1440","","","","","","","","","","","null","Wrong","Feedback","","null","","","","","","","","","","","",""
"","call-function","87","276527","0.0-130.0-2.0","2u5ya5yy","","","","","","","","","","","","","","","","","","","","","","","","","","","","",""
"","html-keyboard-response","88","277284","0.0-131.0","2u5ya5yy","2560","1440","","","","","","","","","","","null","+","Fixation - short","","null","","","","","","","","","","","",""
"","html-keyboard-response","89","278435","0.0-132.0","2u5ya5yy","2560","1440","","","","","","","","","","","1151","yrl","Inducer trial","","j","0","","true","","","","1","","","","",""
"","html-keyboard-response","90","279939","0.0-135.0","2u5ya5yy","2560","1440","","","","","","","","","","","null","+","Fixation - long","","null","","","","","","","","","","","",""
"","html-keyboard-response","91","293835","0.0-136.0","2u5ya5yy","2560","1440","","","","","","","","","","","13895","If hhu press LEFT | If i50 press RIGHT","Inducer instructions",""," ","1","","","","","","","","","","",""
"","html-keyboard-response","92","294600","0.0-137.0","2u5ya5yy","2560","1440","","","","","","","","","","","null","+","Fixation - short","","null","","","","","","","","","","","",""
"","html-keyboard-response","93","295251","0.0-138.0","2u5ya5yy","2560","1440","","","","","","","","","","","650","i50","Diagnostic trial","","f","1","0","false","true","RIGHT","j","0","RIGHT","true","","",""
"","call-function","94","295252","0.0-140.0-0.0","2u5ya5yy","","","","","","","","","","","","","","","","","","","","","","","","","","","","",""
"","html-keyboard-response","95","295560","0.0-140.0-1.0","2u5ya5yy","2560","1440","","","","","","","","","","","null","Wrong","Feedback","","null","","","","","","","","","","","",""
"","call-function","96","295561","0.0-140.0-2.0","2u5ya5yy","","","","","","","","","","","","","","","","","","","","","","","","","","","","",""
"","html-keyboard-response","97","296315","0.0-141.0","2u5ya5yy","2560","1440","","","","","","","","","","","null","+","Fixation - short","","null","","","","","","","","","","","",""
"","html-keyboard-response","98","297075","0.0-142.0","2u5ya5yy","2560","1440","","","","","","","","","","","759","i50","Diagnostic trial","","f","1","1","false","false","LEFT","f","1","RIGHT","false","","",""
"","html-keyboard-response","99","297836","0.0-145.0","2u5ya5yy","2560","1440","","","","","","","","","","","null","+","Fixation - short","","null","","","","","","","","","","","",""
"","html-keyboard-response","100","298555","0.0-146.0","2u5ya5yy","2560","1440","","","","","","","","","","","718","hhu","Diagnostic trial","","f","1","2","false","false","LEFT","f","1","LEFT","true","","",""
"","html-keyboard-response","101","299317","0.0-149.0","2u5ya5yy","2560","1440","","","","","","","","","","","null","+","Fixation - short","","null","","","","","","","","","","","",""
"","html-keyboard-response","102","300243","0.0-150.0","2u5ya5yy","2560","1440","","","","","","","","","","","925","hhu","Diagnostic trial","","f","1","3","false","true","RIGHT","j","0","LEFT","false","","",""
"","call-function","103","300243","0.0-152.0-0.0","2u5ya5yy","","","","","","","","","","","","","","","","","","","","","","","","","","","","",""
"","html-keyboard-response","104","300548","0.0-152.0-1.0","2u5ya5yy","2560","1440","","","","","","","","","","","null","Wrong","Feedback","","null","","","","","","","","","","","",""
"","call-function","105","300549","0.0-152.0-2.0","2u5ya5yy","","","","","","","","","","","","","","","","","","","","","","","","","","","","",""
"","html-keyboard-response","106","301304","0.0-153.0","2u5ya5yy","2560","1440","","","","","","","","","","","null","+","Fixation - short","","null","","","","","","","","","","","",""
"","html-keyboard-response","107","301923","0.0-154.0","2u5ya5yy","2560","1440","","","","","","","","","","","618","hhu","Diagnostic trial","","f","1","4","false","false","LEFT","f","1","LEFT","true","","",""
"","html-keyboard-response","108","302689","0.0-157.0","2u5ya5yy","2560","1440","","","","","","","","","","","null","+","Fixation - short","","null","","","","","","","","","","","",""
"","html-keyboard-response","109","303371","0.0-158.0","2u5ya5yy","2560","1440","","","","","","","","","","","681","hhu","Diagnostic trial","","j","1","5","false","true","RIGHT","j","1","LEFT","false","","",""
"","html-keyboard-response","110","304125","0.0-161.0","2u5ya5yy","2560","1440","","","","","","","","","","","null","+","Fixation - short","","null","","","","","","","","","","","",""
"","html-keyboard-response","111","304787","0.0-162.0","2u5ya5yy","2560","1440","","","","","","","","","","","661","i50","Diagnostic trial","","j","1","6","false","false","LEFT","f","0","RIGHT","false","","",""
"","call-function","112","304787","0.0-164.0-0.0","2u5ya5yy","","","","","","","","","","","","","","","","","","","","","","","","","","","","",""
"","html-keyboard-response","113","305100","0.0-164.0-1.0","2u5ya5yy","2560","1440","","","","","","","","","","","null","Wrong","Feedback","","null","","","","","","","","","","","",""
"","call-function","114","305100","0.0-164.0-2.0","2u5ya5yy","","","","","","","","","","","","","","","","","","","","","","","","","","","","",""
"","html-keyboard-response","115","305859","0.0-165.0","2u5ya5yy","2560","1440","","","","","","","","","","","null","+","Fixation - short","","null","","","","","","","","","","","",""
"","html-keyboard-response","116","306475","0.0-166.0","2u5ya5yy","2560","1440","","","","","","","","","","","615","hhu","Diagnostic trial","","f","1","7","false","true","RIGHT","j","0","LEFT","false","","",""
"","call-function","117","306475","0.0-168.0-0.0","2u5ya5yy","","","","","","","","","","","","","","","","","","","","","","","","","","","","",""
"","html-keyboard-response","118","306785","0.0-168.0-1.0","2u5ya5yy","2560","1440","","","","","","","","","","","null","Wrong","Feedback","","null","","","","","","","","","","","",""
"","call-function","119","306786","0.0-168.0-2.0","2u5ya5yy","","","","","","","","","","","","","","","","","","","","","","","","","","","","",""
"","html-keyboard-response","120","307543","0.0-169.0","2u5ya5yy","2560","1440","","","","","","","","","","","null","+","Fixation - short","","null","","","","","","","","","","","",""
"","html-keyboard-response","121","308179","0.0-170.0","2u5ya5yy","2560","1440","","","","","","","","","","","635","hhu","Diagnostic trial","","j","1","8","false","true","RIGHT","j","1","LEFT","false","","",""
"","html-keyboard-response","122","308941","0.0-173.0","2u5ya5yy","2560","1440","","","","","","","","","","","null","+","Fixation - short","","null","","","","","","","","","","","",""
"","html-keyboard-response","123","309634","0.0-174.0","2u5ya5yy","2560","1440","","","","","","","","","","","693","i50","Diagnostic trial","","f","1","9","false","false","LEFT","f","1","RIGHT","false","","",""
"","html-keyboard-response","124","310395","0.0-177.0","2u5ya5yy","2560","1440","","","","","","","","","","","null","+","Fixation - short","","null","","","","","","","","","","","",""
"","html-keyboard-response","125","311019","0.0-178.0","2u5ya5yy","2560","1440","","","","","","","","","","","623","hhu","Diagnostic trial","","j","1","10","false","true","RIGHT","j","1","LEFT","false","","",""
"","html-keyboard-response","126","311779","0.0-181.0","2u5ya5yy","2560","1440","","","","","","","","","","","null","+","Fixation - short","","null","","","","","","","","","","","",""
"","html-keyboard-response","127","312731","0.0-182.0","2u5ya5yy","2560","1440","","","","","","","","","","","951","hhu","Inducer trial","","f","1","","true","","","","1","","","","",""
"","html-keyboard-response","128","314235","0.0-185.0","2u5ya5yy","2560","1440","","","","","","","","","","","null","+","Fixation - long","","null","","","","","","","","","","","",""
"","html-keyboard-response","129","318011","0.0-186.0","2u5ya5yy","2560","1440","","","","","","","","","","","3775","If spm press LEFT | If umf press RIGHT","Inducer instructions",""," ","2","","","","","","","","","","",""
"","html-keyboard-response","130","318770","0.0-187.0","2u5ya5yy","2560","1440","","","","","","","","","","","null","+","Fixation - short","","null","","","","","","","","","","","",""
"","html-keyboard-response","131","319507","0.0-188.0","2u5ya5yy","2560","1440","","","","","","","","","","","737","umf","Diagnostic trial","","j","2","0","false","true","RIGHT","j","1","RIGHT","true","","",""
"","html-keyboard-response","132","320267","0.0-191.0","2u5ya5yy","2560","1440","","","","","","","","","","","null","+","Fixation - short","","null","","","","","","","","","","","",""
"","html-keyboard-response","133","320691","0.0-192.0","2u5ya5yy","2560","1440","","","","","","","","","","","423","umf","Diagnostic trial","","j","2","1","false","true","RIGHT","j","1","RIGHT","true","","",""
"","html-keyboard-response","134","321454","0.0-195.0","2u5ya5yy","2560","1440","","","","","","","","","","","null","+","Fixation - short","","null","","","","","","","","","","","",""
"","html-keyboard-response","135","321994","0.0-196.0","2u5ya5yy","2560","1440","","","","","","","","","","","540","umf","Diagnostic trial","","j","2","2","false","false","LEFT","f","0","RIGHT","false","","",""
"","call-function","136","321995","0.0-198.0-0.0","2u5ya5yy","","","","","","","","","","","","","","","","","","","","","","","","","","","","",""
"","html-keyboard-response","137","322304","0.0-198.0-1.0","2u5ya5yy","2560","1440","","","","","","","","","","","null","Wrong","Feedback","","null","","","","","","","","","","","",""
"","call-function","138","322304","0.0-198.0-2.0","2u5ya5yy","","","","","","","","","","","","","","","","","","","","","","","","","","","","",""
"","html-keyboard-response","139","323058","0.0-199.0","2u5ya5yy","2560","1440","","","","","","","","","","","null","+","Fixation - short","","null","","","","","","","","","","","",""
"","html-keyboard-response","140","324131","0.0-200.0","2u5ya5yy","2560","1440","","","","","","","","","","","1072","spm","Diagnostic trial","","f","2","3","false","false","LEFT","f","1","LEFT","true","","",""
"","html-keyboard-response","141","324896","0.0-203.0","2u5ya5yy","2560","1440","","","","","","","","","","","null","+","Fixation - short","","null","","","","","","","","","","","",""
"","html-keyboard-response","142","325787","0.0-204.0","2u5ya5yy","2560","1440","","","","","","","","","","","890","umf","Diagnostic trial","","f","2","4","false","false","LEFT","f","1","RIGHT","false","","",""
"","html-keyboard-response","143","326540","0.0-207.0","2u5ya5yy","2560","1440","","","","","","","","","","","null","+","Fixation - short","","null","","","","","","","","","","","",""
"","html-keyboard-response","144","327147","0.0-208.0","2u5ya5yy","2560","1440","","","","","","","","","","","606","spm","Diagnostic trial","","j","2","5","false","true","RIGHT","j","1","LEFT","false","","",""
"","html-keyboard-response","145","327903","0.0-211.0","2u5ya5yy","2560","1440","","","","","","","","","","","null","+","Fixation - short","","null","","","","","","","","","","","",""
"","html-keyboard-response","146","328419","0.0-212.0","2u5ya5yy","2560","1440","","","","","","","","","","","515","spm","Diagnostic trial","","j","2","6","false","true","RIGHT","j","1","LEFT","false","","",""
"","html-keyboard-response","147","329176","0.0-215.0","2u5ya5yy","2560","1440","","","","","","","","","","","null","+","Fixation - short","","null","","","","","","","","","","","",""
"","html-keyboard-response","148","329715","0.0-216.0","2u5ya5yy","2560","1440","","","","","","","","","","","538","umf","Diagnostic trial","","f","2","7","false","false","LEFT","f","1","RIGHT","false","","",""
"","html-keyboard-response","149","330475","0.0-219.0","2u5ya5yy","2560","1440","","","","","","","","","","","null","+","Fixation - short","","null","","","","","","","","","","","",""
"","html-keyboard-response","150","331243","0.0-220.0","2u5ya5yy","2560","1440","","","","","","","","","","","767","umf","Inducer trial","","j","2","","true","","","","1","","","","",""
"","html-keyboard-response","151","332748","0.0-223.0","2u5ya5yy","2560","1440","","","","","","","","","","","null","+","Fixation - long","","null","","","","","","","","","","","",""
"","html-keyboard-response","152","337707","0.0-224.0","2u5ya5yy","2560","1440","","","","","","","","","","","4958","If sbk press LEFT | If abv press RIGHT","Inducer instructions",""," ","3","","","","","","","","","","",""
"","html-keyboard-response","153","338468","0.0-225.0","2u5ya5yy","2560","1440","","","","","","","","","","","null","+","Fixation - short","","null","","","","","","","","","","","",""
"","html-keyboard-response","154","339220","0.0-226.0","2u5ya5yy","2560","1440","","","","","","","","","","","751","sbk","Diagnostic trial","","j","3","0","false","true","RIGHT","j","1","LEFT","false","","",""
"","html-keyboard-response","155","339972","0.0-229.0","2u5ya5yy","2560","1440","","","","","","","","","","","null","+","Fixation - short","","null","","","","","","","","","","","",""
"","html-keyboard-response","156","340779","0.0-230.0","2u5ya5yy","2560","1440","","","","","","","","","","","807","sbk","Diagnostic trial","","f","3","1","false","false","LEFT","f","1","LEFT","true","","",""
"","html-keyboard-response","157","341538","0.0-233.0","2u5ya5yy","2560","1440","","","","","","","","","","","null","+","Fixation - short","","null","","","","","","","","","","","",""
"","html-keyboard-response","158","342251","0.0-234.0","2u5ya5yy","2560","1440","","","","","","","","","","","712","sbk","Diagnostic trial","","j","3","2","false","false","LEFT","f","0","LEFT","true","","",""
"","call-function","159","342252","0.0-236.0-0.0","2u5ya5yy","","","","","","","","","","","","","","","","","","","","","","","","","","","","",""
"","html-keyboard-response","160","342567","0.0-236.0-1.0","2u5ya5yy","2560","1440","","","","","","","","","","","null","Wrong","Feedback","","null","","","","","","","","","","","",""
"","call-function","161","342568","0.0-236.0-2.0","2u5ya5yy","","","","","","","","","","","","","","","","","","","","","","","","","","","","",""
"","html-keyboard-response","162","343329","0.0-237.0","2u5ya5yy","2560","1440","","","","","","","","","","","null","+","Fixation - short","","null","","","","","","","","","","","",""
"","html-keyboard-response","163","344075","0.0-238.0","2u5ya5yy","2560","1440","","","","","","","","","","","746","abv","Diagnostic trial","","f","3","3","false","false","LEFT","f","1","RIGHT","false","","",""
"","html-keyboard-response","164","344828","0.0-241.0","2u5ya5yy","2560","1440","","","","","","","","","","","null","+","Fixation - short","","null","","","","","","","","","","","",""
"","html-keyboard-response","165","345491","0.0-242.0","2u5ya5yy","2560","1440","","","","","","","","","","","664","sbk","Diagnostic trial","","j","3","4","false","true","RIGHT","j","1","LEFT","false","","",""
"","html-keyboard-response","166","346244","0.0-245.0","2u5ya5yy","2560","1440","","","","","","","","","","","null","+","Fixation - short","","null","","","","","","","","","","","",""
"","html-keyboard-response","167","346907","0.0-246.0","2u5ya5yy","2560","1440","","","","","","","","","","","663","sbk","Diagnostic trial","","j","3","5","false","true","RIGHT","j","1","LEFT","false","","",""
"","html-keyboard-response","168","347661","0.0-249.0","2u5ya5yy","2560","1440","","","","","","","","","","","null","+","Fixation - short","","null","","","","","","","","","","","",""
"","html-keyboard-response","169","348499","0.0-250.0","2u5ya5yy","2560","1440","","","","","","","","","","","838","sbk","Inducer trial","","f","3","","true","","","","1","","","","",""
"","html-keyboard-response","170","350002","0.0-253.0","2u5ya5yy","2560","1440","","","","","","","","","","","null","+","Fixation - long","","null","","","","","","","","","","","",""
"","html-keyboard-response","171","352475","0.0-254.0","2u5ya5yy","2560","1440","","","","","","","","","","","2473","If wue press LEFT | If uga press RIGHT","Inducer instructions",""," ","4","","","","","","","","","","",""
"","html-keyboard-response","172","353231","0.0-255.0","2u5ya5yy","2560","1440","","","","","","","","","","","null","+","Fixation - short","","null","","","","","","","","","","","",""
"","html-keyboard-response","173","353907","0.0-256.0","2u5ya5yy","2560","1440","","","","","","","","","","","675","wue","Diagnostic trial","","f","4","0","false","false","LEFT","f","1","LEFT","true","","",""
"","html-keyboard-response","174","354669","0.0-259.0","2u5ya5yy","2560","1440","","","","","","","","","","","null","+","Fixation - short","","null","","","","","","","","","","","",""
"","html-keyboard-response","175","355074","0.0-260.0","2u5ya5yy","2560","1440","","","","","","","","","","","405","wue","Diagnostic trial","","j","4","1","false","true","RIGHT","j","1","LEFT","false","","",""
"","html-keyboard-response","176","355834","0.0-263.0","2u5ya5yy","2560","1440","","","","","","","","","","","null","+","Fixation - short","","null","","","","","","","","","","","",""
"","html-keyboard-response","177","356395","0.0-264.0","2u5ya5yy","2560","1440","","","","","","","","","","","560","wue","Diagnostic trial","","f","4","2","false","false","LEFT","f","1","LEFT","true","","",""
"","html-keyboard-response","178","357151","0.0-267.0","2u5ya5yy","2560","1440","","","","","","","","","","","null","+","Fixation - short","","null","","","","","","","","","","","",""
"","html-keyboard-response","179","357653","0.0-268.0","2u5ya5yy","2560","1440","","","","","","","","","","","501","uga","Diagnostic trial","","j","4","3","false","true","RIGHT","j","1","RIGHT","true","","",""
"","html-keyboard-response","180","358405","0.0-271.0","2u5ya5yy","2560","1440","","","","","","","","","","","null","+","Fixation - short","","null","","","","","","","","","","","",""
"","html-keyboard-response","181","358931","0.0-272.0","2u5ya5yy","2560","1440","","","","","","","","","","","525","uga","Diagnostic trial","","f","4","4","false","false","LEFT","f","1","RIGHT","false","","",""
"","html-keyboard-response","182","359684","0.0-275.0","2u5ya5yy","2560","1440","","","","","","","","","","","null","+","Fixation - short","","null","","","","","","","","","","","",""
"","html-keyboard-response","183","360211","0.0-276.0","2u5ya5yy","2560","1440","","","","","","","","","","","527","uga","Diagnostic trial","","j","4","5","false","true","RIGHT","j","1","RIGHT","true","","",""
"","html-keyboard-response","184","360969","0.0-279.0","2u5ya5yy","2560","1440","","","","","","","","","","","null","+","Fixation - short","","null","","","","","","","","","","","",""
"","html-keyboard-response","185","361491","0.0-280.0","2u5ya5yy","2560","1440","","","","","","","","","","","522","wue","Diagnostic trial","","f","4","6","false","false","LEFT","f","1","LEFT","true","","",""
"","html-keyboard-response","186","362253","0.0-283.0","2u5ya5yy","2560","1440","","","","","","","","","","","null","+","Fixation - short","","null","","","","","","","","","","","",""
"","html-keyboard-response","187","362715","0.0-284.0","2u5ya5yy","2560","1440","","","","","","","","","","","461","wue","Diagnostic trial","","f","4","7","false","false","LEFT","f","1","LEFT","true","","",""
"","html-keyboard-response","188","363468","0.0-287.0","2u5ya5yy","2560","1440","","","","","","","","","","","null","+","Fixation - short","","null","","","","","","","","","","","",""
"","html-keyboard-response","189","363891","0.0-288.0","2u5ya5yy","2560","1440","","","","","","","","","","","422","wue","Diagnostic trial","","f","4","8","false","true","RIGHT","j","0","LEFT","false","","",""
"","call-function","190","363892","0.0-290.0-0.0","2u5ya5yy","","","","","","","","","","","","","","","","","","","","","","","","","","","","",""
"","html-keyboard-response","191","364201","0.0-290.0-1.0","2u5ya5yy","2560","1440","","","","","","","","","","","null","Wrong","Feedback","","null","","","","","","","","","","","",""
"","call-function","192","364202","0.0-290.0-2.0","2u5ya5yy","","","","","","","","","","","","","","","","","","","","","","","","","","","","",""
"","html-keyboard-response","193","364956","0.0-291.0","2u5ya5yy","2560","1440","","","","","","","","","","","null","+","Fixation - short","","null","","","","","","","","","","","",""
"","html-keyboard-response","194","365435","0.0-292.0","2u5ya5yy","2560","1440","","","","","","","","","","","478","uga","Diagnostic trial","","j","4","9","false","true","RIGHT","j","1","RIGHT","true","","",""
"","html-keyboard-response","195","366192","0.0-295.0","2u5ya5yy","2560","1440","","","","","","","","","","","null","+","Fixation - short","","null","","","","","","","","","","","",""
"","html-keyboard-response","196","366715","0.0-296.0","2u5ya5yy","2560","1440","","","","","","","","","","","523","uga","Diagnostic trial","","f","4","10","false","false","LEFT","f","1","RIGHT","false","","",""
"","html-keyboard-response","197","367475","0.0-299.0","2u5ya5yy","2560","1440","","","","","","","","","","","null","+","Fixation - short","","null","","","","","","","","","","","",""
"","html-keyboard-response","198","368051","0.0-300.0","2u5ya5yy","2560","1440","","","","","","","","","","","576","uga","Diagnostic trial","","f","4","11","false","false","LEFT","f","1","RIGHT","false","","",""
"","html-keyboard-response","199","368812","0.0-303.0","2u5ya5yy","2560","1440","","","","","","","","","","","null","+","Fixation - short","","null","","","","","","","","","","","",""
"","html-keyboard-response","200","369299","0.0-304.0","2u5ya5yy","2560","1440","","","","","","","","","","","487","wue","Diagnostic trial","","j","4","12","false","true","RIGHT","j","1","LEFT","false","","",""
"","html-keyboard-response","201","370060","0.0-307.0","2u5ya5yy","2560","1440","","","","","","","","","","","null","+","Fixation - short","","null","","","","","","","","","","","",""
"","html-keyboard-response","202","370555","0.0-308.0","2u5ya5yy","2560","1440","","","","","","","","","","","494","uga","Diagnostic trial","","f","4","13","false","false","LEFT","f","1","RIGHT","false","","",""
"","html-keyboard-response","203","371311","0.0-311.0","2u5ya5yy","2560","1440","","","","","","","","","","","null","+","Fixation - short","","null","","","","","","","","","","","",""
"","html-keyboard-response","204","371963","0.0-312.0","2u5ya5yy","2560","1440","","","","","","","","","","","652","uga","Inducer trial","","f","4","","true","","","","0","","","","",""
"","call-function","205","371964","0.0-314.0-0.0","2u5ya5yy","","","","","","","","","","","","","","","","","","","","","","","","","","","","",""
"","html-keyboard-response","206","372274","0.0-314.0-1.0","2u5ya5yy","2560","1440","","","","","","","","","","","null","Wrong","Feedback","","null","","","","","","","","","","","",""
"","call-function","207","372274","0.0-314.0-2.0","2u5ya5yy","","","","","","","","","","","","","","","","","","","","","","","","","","","","",""
"","html-keyboard-response","208","373783","0.0-315.0","2u5ya5yy","2560","1440","","","","","","","","","","","null","+","Fixation - long","","null","","","","","","","","","","","",""
"","html-keyboard-response","209","378276","0.0-316.0","2u5ya5yy","2560","1440","","","","","","","","","","","4491","If dts press LEFT | If lfd press RIGHT","Inducer instructions",""," ","5","","","","","","","","","","",""
"","html-keyboard-response","210","379042","0.0-317.0","2u5ya5yy","2560","1440","","","","","","","","","","","null","+","Fixation - short","","null","","","","","","","","","","","",""
"","html-keyboard-response","211","379555","0.0-318.0","2u5ya5yy","2560","1440","","","","","","","","","","","513","dts","Diagnostic trial","","f","5","0","false","false","LEFT","f","1","LEFT","true","","",""
"","html-keyboard-response","212","380319","0.0-321.0","2u5ya5yy","2560","1440","","","","","","","","","","","null","+","Fixation - short","","null","","","","","","","","","","","",""
"","html-keyboard-response","213","380891","0.0-322.0","2u5ya5yy","2560","1440","","","","","","","","","","","571","dts","Diagnostic trial","","f","5","1","false","false","LEFT","f","1","LEFT","true","","",""
"","html-keyboard-response","214","381643","0.0-325.0","2u5ya5yy","2560","1440","","","","","","","","","","","null","+","Fixation - short","","null","","","","","","","","","","","",""
"","html-keyboard-response","215","382043","0.0-326.0","2u5ya5yy","2560","1440","","","","","","","","","","","399","dts","Diagnostic trial","","f","5","2","false","false","LEFT","f","1","LEFT","true","","",""
"","html-keyboard-response","216","382804","0.0-329.0","2u5ya5yy","2560","1440","","","","","","","","","","","null","+","Fixation - short","","null","","","","","","","","","","","",""
"","html-keyboard-response","217","383155","0.0-330.0","2u5ya5yy","2560","1440","","","","","","","","","","","350","dts","Diagnostic trial","","f","5","3","false","false","LEFT","f","1","LEFT","true","","",""
"","html-keyboard-response","218","383911","0.0-333.0","2u5ya5yy","2560","1440","","","","","","","","","","","null","+","Fixation - short","","null","","","","","","","","","","","",""
"","html-keyboard-response","219","384443","0.0-334.0","2u5ya5yy","2560","1440","","","","","","","","","","","531","dts","Diagnostic trial","","j","5","4","false","true","RIGHT","j","1","LEFT","false","","",""
"","html-keyboard-response","220","385205","0.0-337.0","2u5ya5yy","2560","1440","","","","","","","","","","","null","+","Fixation - short","","null","","","","","","","","","","","",""
"","html-keyboard-response","221","385667","0.0-338.0","2u5ya5yy","2560","1440","","","","","","","","","","","462","lfd","Diagnostic trial","","f","5","5","false","false","LEFT","f","1","RIGHT","false","","",""
"","html-keyboard-response","222","386427","0.0-341.0","2u5ya5yy","2560","1440","","","","","","","","","","","null","+","Fixation - short","","null","","","","","","","","","","","",""
"","html-keyboard-response","223","386947","0.0-342.0","2u5ya5yy","2560","1440","","","","","","","","","","","519","lfd","Diagnostic trial","","j","5","6","false","true","RIGHT","j","1","RIGHT","true","","",""
"","html-keyboard-response","224","387698","0.0-345.0","2u5ya5yy","2560","1440","","","","","","","","","","","null","+","Fixation - short","","null","","","","","","","","","","","",""
"","html-keyboard-response","225","388371","0.0-346.0","2u5ya5yy","2560","1440","","","","","","","","","","","672","dts","Inducer trial","","f","5","","true","","","","1","","","","",""
"","html-keyboard-response","226","389880","0.0-349.0","2u5ya5yy","2560","1440","","","","","","","","","","","null","+","Fixation - long","","null","","","","","","","","","","","",""
"","html-keyboard-response","227","392275","0.0-350.0","2u5ya5yy","2560","1440","","","","","","","","","","","2394","If hvp press LEFT | If wtc press RIGHT","Inducer instructions",""," ","6","","","","","","","","","","",""
"","html-keyboard-response","228","393029","0.0-351.0","2u5ya5yy","2560","1440","","","","","","","","","","","null","+","Fixation - short","","null","","","","","","","","","","","",""
"","html-keyboard-response","229","393483","0.0-352.0","2u5ya5yy","2560","1440","","","","","","","","","","","454","hvp","Diagnostic trial","","f","6","0","false","false","LEFT","f","1","LEFT","true","","",""
"","html-keyboard-response","230","394246","0.0-355.0","2u5ya5yy","2560","1440","","","","","","","","","","","null","+","Fixation - short","","null","","","","","","","","","","","",""
"","html-keyboard-response","231","394699","0.0-356.0","2u5ya5yy","2560","1440","","","","","","","","","","","453","wtc","Diagnostic trial","","f","6","1","false","false","LEFT","f","1","RIGHT","false","","",""
"","html-keyboard-response","232","395451","0.0-359.0","2u5ya5yy","2560","1440","","","","","","","","","","","null","+","Fixation - short","","null","","","","","","","","","","","",""
"","html-keyboard-response","233","395971","0.0-360.0","2u5ya5yy","2560","1440","","","","","","","","","","","520","hvp","Diagnostic trial","","j","6","2","false","true","RIGHT","j","1","LEFT","false","","",""
"","html-keyboard-response","234","396731","0.0-363.0","2u5ya5yy","2560","1440","","","","","","","","","","","null","+","Fixation - short","","null","","","","","","","","","","","",""
"","html-keyboard-response","235","397211","0.0-364.0","2u5ya5yy","2560","1440","","","","","","","","","","","479","wtc","Diagnostic trial","","j","6","3","false","true","RIGHT","j","1","RIGHT","true","","",""
"","html-keyboard-response","236","397971","0.0-367.0","2u5ya5yy","2560","1440","","","","","","","","","","","null","+","Fixation - short","","null","","","","","","","","","","","",""
"","html-keyboard-response","237","398499","0.0-368.0","2u5ya5yy","2560","1440","","","","","","","","","","","527","wtc","Diagnostic trial","","j","6","4","false","true","RIGHT","j","1","RIGHT","true","","",""
"","html-keyboard-response","238","399251","0.0-371.0","2u5ya5yy","2560","1440","","","","","","","","","","","null","+","Fixation - short","","null","","","","","","","","","","","",""
"","html-keyboard-response","239","399612","0.0-372.0","2u5ya5yy","2560","1440","","","","","","","","","","","359","hvp","Diagnostic trial","","f","6","5","false","false","LEFT","f","1","LEFT","true","","",""
"","html-keyboard-response","240","400369","0.0-375.0","2u5ya5yy","2560","1440","","","","","","","","","","","null","+","Fixation - short","","null","","","","","","","","","","","",""
"","html-keyboard-response","241","400931","0.0-376.0","2u5ya5yy","2560","1440","","","","","","","","","","","562","wtc","Diagnostic trial","","f","6","6","false","false","LEFT","f","1","RIGHT","false","","",""
"","html-keyboard-response","242","401687","0.0-379.0","2u5ya5yy","2560","1440","","","","","","","","","","","null","+","Fixation - short","","null","","","","","","","","","","","",""
"","html-keyboard-response","243","402076","0.0-380.0","2u5ya5yy","2560","1440","","","","","","","","","","","388","wtc","Diagnostic trial","","j","6","7","false","true","RIGHT","j","1","RIGHT","true","","",""
"","html-keyboard-response","244","402838","0.0-383.0","2u5ya5yy","2560","1440","","","","","","","","","","","null","+","Fixation - short","","null","","","","","","","","","","","",""
"","html-keyboard-response","245","403420","0.0-384.0","2u5ya5yy","2560","1440","","","","","","","","","","","581","hvp","Diagnostic trial","","j","6","8","false","true","RIGHT","j","1","LEFT","false","","",""
"","html-keyboard-response","246","404172","0.0-387.0","2u5ya5yy","2560","1440","","","","","","","","","","","null","+","Fixation - short","","null","","","","","","","","","","","",""
"","html-keyboard-response","247","404564","0.0-388.0","2u5ya5yy","2560","1440","","","","","","","","","","","391","wtc","Diagnostic trial","","f","6","9","false","false","LEFT","f","1","RIGHT","false","","",""
"","html-keyboard-response","248","405323","0.0-391.0","2u5ya5yy","2560","1440","","","","","","","","","","","null","+","Fixation - short","","null","","","","","","","","","","","",""
"","html-keyboard-response","249","405779","0.0-392.0","2u5ya5yy","2560","1440","","","","","","","","","","","455","wtc","Diagnostic trial","","f","6","10","false","false","LEFT","f","1","RIGHT","false","","",""
"","html-keyboard-response","250","406541","0.0-395.0","2u5ya5yy","2560","1440","","","","","","","","","","","null","+","Fixation - short","","null","","","","","","","","","","","",""
"","html-keyboard-response","251","406949","0.0-396.0","2u5ya5yy","2560","1440","","","","","","","","","","","408","hvp","Diagnostic trial","","j","6","11","false","true","RIGHT","j","1","LEFT","false","","",""
"","html-keyboard-response","252","407715","0.0-399.0","2u5ya5yy","2560","1440","","","","","","","","","","","null","+","Fixation - short","","null","","","","","","","","","","","",""
"","html-keyboard-response","253","408132","0.0-400.0","2u5ya5yy","2560","1440","","","","","","","","","","","416","wtc","Diagnostic trial","","f","6","12","false","false","LEFT","f","1","RIGHT","false","","",""
"","html-keyboard-response","254","408885","0.0-403.0","2u5ya5yy","2560","1440","","","","","","","","","","","null","+","Fixation - short","","null","","","","","","","","","","","",""
"","html-keyboard-response","255","409420","0.0-404.0","2u5ya5yy","2560","1440","","","","","","","","","","","534","wtc","Inducer trial","","f","6","","true","","","","0","","","","",""
"","call-function","256","409421","0.0-406.0-0.0","2u5ya5yy","","","","","","","","","","","","","","","","","","","","","","","","","","","","",""
"","html-keyboard-response","257","409723","0.0-406.0-1.0","2u5ya5yy","2560","1440","","","","","","","","","","","null","Wrong","Feedback","","null","","","","","","","","","","","",""
"","call-function","258","409724","0.0-406.0-2.0","2u5ya5yy","","","","","","","","","","","","","","","","","","","","","","","","","","","","",""
"","html-keyboard-response","259","411236","0.0-407.0","2u5ya5yy","2560","1440","","","","","","","","","","","null","+","Fixation - long","","null","","","","","","","","","","","",""
"","html-keyboard-response","260","412532","0.0-408.0","2u5ya5yy","2560","1440","","","","","","","","","","","1295","If ozu press LEFT | If dmg press RIGHT","Inducer instructions",""," ","7","","","","","","","","","","",""
"","html-keyboard-response","261","413296","0.0-409.0","2u5ya5yy","2560","1440","","","","","","","","","","","null","+","Fixation - short","","null","","","","","","","","","","","",""
"","html-keyboard-response","262","413980","0.0-410.0","2u5ya5yy","2560","1440","","","","","","","","","","","683","ozu","Diagnostic trial","","j","7","0","false","true","RIGHT","j","1","LEFT","false","","",""
"","html-keyboard-response","263","414746","0.0-413.0","2u5ya5yy","2560","1440","","","","","","","","","","","null","+","Fixation - short","","null","","","","","","","","","","","",""
"","html-keyboard-response","264","415388","0.0-414.0","2u5ya5yy","2560","1440","","","","","","","","","","","641","dmg","Diagnostic trial","","j","7","1","false","true","RIGHT","j","1","RIGHT","true","","",""
"","html-keyboard-response","265","416149","0.0-417.0","2u5ya5yy","2560","1440","","","","","","","","","","","null","+","Fixation - short","","null","","","","","","","","","","","",""
"","html-keyboard-response","266","416547","0.0-418.0","2u5ya5yy","2560","1440","","","","","","","","","","","398","dmg","Diagnostic trial","","j","7","2","false","true","RIGHT","j","1","RIGHT","true","","",""
"","html-keyboard-response","267","417301","0.0-421.0","2u5ya5yy","2560","1440","","","","","","","","","","","null","+","Fixation - short","","null","","","","","","","","","","","",""
"","html-keyboard-response","268","417716","0.0-422.0","2u5ya5yy","2560","1440","","","","","","","","","","","414","ozu","Diagnostic trial","","j","7","3","false","true","RIGHT","j","1","LEFT","false","","",""
"","html-keyboard-response","269","418472","0.0-425.0","2u5ya5yy","2560","1440","","","","","","","","","","","null","+","Fixation - short","","null","","","","","","","","","","","",""
"","html-keyboard-response","270","418868","0.0-426.0","2u5ya5yy","2560","1440","","","","","","","","","","","395","dmg","Diagnostic trial","","j","7","4","false","false","LEFT","f","0","RIGHT","false","","",""
"","call-function","271","418868","0.0-428.0-0.0","2u5ya5yy","","","","","","","","","","","","","","","","","","","","","","","","","","","","",""
"","html-keyboard-response","272","419180","0.0-428.0-1.0","2u5ya5yy","2560","1440","","","","","","","","","","","null","Wrong","Feedback","","null","","","","","","","","","","","",""
"","call-function","273","419180","0.0-428.0-2.0","2u5ya5yy","","","","","","","","","","","","","","","","","","","","","","","","","","","","",""
"","html-keyboard-response","274","419937","0.0-429.0","2u5ya5yy","2560","1440","","","","","","","","","","","null","+","Fixation - short","","null","","","","","","","","","","","",""
"","html-keyboard-response","275","420355","0.0-430.0","2u5ya5yy","2560","1440","","","","","","","","","","","417","ozu","Diagnostic trial","","f","7","5","false","false","LEFT","f","1","LEFT","true","","",""
"","html-keyboard-response","276","421118","0.0-433.0","2u5ya5yy","2560","1440","","","","","","","","","","","null","+","Fixation - short","","null","","","","","","","","","","","",""
"","html-keyboard-response","277","421492","0.0-434.0","2u5ya5yy","2560","1440","","","","","","","","","","","373","dmg","Diagnostic trial","","f","7","6","false","false","LEFT","f","1","RIGHT","false","","",""
"","html-keyboard-response","278","422253","0.0-437.0","2u5ya5yy","2560","1440","","","","","","","","","","","null","+","Fixation - short","","null","","","","","","","","","","","",""
"","html-keyboard-response","279","422755","0.0-438.0","2u5ya5yy","2560","1440","","","","","","","","","","","501","dmg","Diagnostic trial","","j","7","7","false","true","RIGHT","j","1","RIGHT","true","","",""
"","html-keyboard-response","280","423521","0.0-441.0","2u5ya5yy","2560","1440","","","","","","","","","","","null","+","Fixation - short","","null","","","","","","","","","","","",""
"","html-keyboard-response","281","424180","0.0-442.0","2u5ya5yy","2560","1440","","","","","","","","","","","658","ozu","Inducer trial","","f","7","","true","","","","1","","","","",""
"","html-keyboard-response","282","425686","0.0-445.0","2u5ya5yy","2560","1440","","","","","","","","","","","null","+","Fixation - long","","null","","","","","","","","","","","",""
"","html-keyboard-response","283","426740","0.0-446.0","2u5ya5yy","2560","1440","","","","","","","","","","","1053","If s.r press LEFT | If uau press RIGHT","Inducer instructions",""," ","8","","","","","","","","","","",""
"","html-keyboard-response","284","427493","0.0-447.0","2u5ya5yy","2560","1440","","","","","","","","","","","null","+","Fixation - short","","null","","","","","","","","","","","",""
"","html-keyboard-response","285","428132","0.0-448.0","2u5ya5yy","2560","1440","","","","","","","","","","","638","uau","Diagnostic trial","","j","8","0","false","true","RIGHT","j","1","RIGHT","true","","",""
"","html-keyboard-response","286","428894","0.0-451.0","2u5ya5yy","2560","1440","","","","","","","","","","","null","+","Fixation - short","","null","","","","","","","","","","","",""
"","html-keyboard-response","287","429332","0.0-452.0","2u5ya5yy","2560","1440","","","","","","","","","","","437","s.r","Diagnostic trial","","j","8","1","false","true","RIGHT","j","1","LEFT","false","","",""
"","html-keyboard-response","288","430095","0.0-455.0","2u5ya5yy","2560","1440","","","","","","","","","","","null","+","Fixation - short","","null","","","","","","","","","","","",""
"","html-keyboard-response","289","430484","0.0-456.0","2u5ya5yy","2560","1440","","","","","","","","","","","388","s.r","Diagnostic trial","","j","8","2","false","true","RIGHT","j","1","LEFT","false","","",""
"","html-keyboard-response","290","431245","0.0-459.0","2u5ya5yy","2560","1440","","","","","","","","","","","null","+","Fixation - short","","null","","","","","","","","","","","",""
"","html-keyboard-response","291","431620","0.0-460.0","2u5ya5yy","2560","1440","","","","","","","","","","","375","s.r","Diagnostic trial","","j","8","3","false","true","RIGHT","j","1","LEFT","false","","",""
"","html-keyboard-response","292","432379","0.0-463.0","2u5ya5yy","2560","1440","","","","","","","","","","","null","+","Fixation - short","","null","","","","","","","","","","","",""
"","html-keyboard-response","293","432835","0.0-464.0","2u5ya5yy","2560","1440","","","","","","","","","","","456","uau","Diagnostic trial","","f","8","4","false","false","LEFT","f","1","RIGHT","false","","",""
"","html-keyboard-response","294","433593","0.0-467.0","2u5ya5yy","2560","1440","","","","","","","","","","","null","+","Fixation - short","","null","","","","","","","","","","","",""
"","html-keyboard-response","295","434180","0.0-468.0","2u5ya5yy","2560","1440","","","","","","","","","","","586","s.r","Diagnostic trial","","j","8","5","false","false","LEFT","f","0","LEFT","true","","",""
"","call-function","296","434180","0.0-470.0-0.0","2u5ya5yy","","","","","","","","","","","","","","","","","","","","","","","","","","","","",""
"","html-keyboard-response","297","434495","0.0-470.0-1.0","2u5ya5yy","2560","1440","","","","","","","","","","","null","Wrong","Feedback","","null","","","","","","","","","","","",""
"","call-function","298","434495","0.0-470.0-2.0","2u5ya5yy","","","","","","","","","","","","","","","","","","","","","","","","","","","","",""
"","html-keyboard-response","299","435251","0.0-471.0","2u5ya5yy","2560","1440","","","","","","","","","","","null","+","Fixation - short","","null","","","","","","","","","","","",""
"","html-keyboard-response","300","436051","0.0-472.0","2u5ya5yy","2560","1440","","","","","","","","","","","799","s.r","Inducer trial","","j","8","","true","","","","0","","","","",""
"","call-function","301","436051","0.0-474.0-0.0","2u5ya5yy","","","","","","","","","","","","","","","","","","","","","","","","","","","","",""
"","html-keyboard-response","302","436362","0.0-474.0-1.0","2u5ya5yy","2560","1440","","","","","","","","","","","null","Wrong","Feedback","","null","","","","","","","","","","","",""
"","call-function","303","436362","0.0-474.0-2.0","2u5ya5yy","","","","","","","","","","","","","","","","","","","","","","","","","","","","",""
"","html-keyboard-response","304","437878","0.0-475.0","2u5ya5yy","2560","1440","","","","","","","","","","","null","+","Fixation - long","","null","","","","","","","","","","","",""
"","html-keyboard-response","305","439044","0.0-476.0","2u5ya5yy","2560","1440","","","","","","","","","","","1165","If foc press LEFT | If ibb press RIGHT","Inducer instructions",""," ","9","","","","","","","","","","",""
"","html-keyboard-response","306","439802","0.0-477.0","2u5ya5yy","2560","1440","","","","","","","","","","","null","+","Fixation - short","","null","","","","","","","","","","","",""
"","html-keyboard-response","307","440388","0.0-478.0","2u5ya5yy","2560","1440","","","","","","","","","","","585","ibb","Diagnostic trial","","f","9","0","false","false","LEFT","f","1","RIGHT","false","","",""
"","html-keyboard-response","308","441151","0.0-481.0","2u5ya5yy","2560","1440","","","","","","","","","","","null","+","Fixation - short","","null","","","","","","","","","","","",""
"","html-keyboard-response","309","441540","0.0-482.0","2u5ya5yy","2560","1440","","","","","","","","","","","388","foc","Diagnostic trial","","f","9","1","false","false","LEFT","f","1","LEFT","true","","",""
"","html-keyboard-response","310","442303","0.0-485.0","2u5ya5yy","2560","1440","","","","","","","","","","","null","+","Fixation - short","","null","","","","","","","","","","","",""
"","html-keyboard-response","311","442652","0.0-486.0","2u5ya5yy","2560","1440","","","","","","","","","","","348","foc","Diagnostic trial","","f","9","2","false","false","LEFT","f","1","LEFT","true","","",""
"","html-keyboard-response","312","443403","0.0-489.0","2u5ya5yy","2560","1440","","","","","","","","","","","null","+","Fixation - short","","null","","","","","","","","","","","",""
"","html-keyboard-response","313","443748","0.0-490.0","2u5ya5yy","2560","1440","","","","","","","","","","","344","foc","Diagnostic trial","","f","9","3","false","false","LEFT","f","1","LEFT","true","","",""
"","html-keyboard-response","314","444505","0.0-493.0","2u5ya5yy","2560","1440","","","","","","","","","","","null","+","Fixation - short","","null","","","","","","","","","","","",""
"","html-keyboard-response","315","444812","0.0-494.0","2u5ya5yy","2560","1440","","","","","","","","","","","306","foc","Diagnostic trial","","f","9","4","false","false","LEFT","f","1","LEFT","true","","",""
"","html-keyboard-response","316","445573","0.0-497.0","2u5ya5yy","2560","1440","","","","","","","","","","","null","+","Fixation - short","","null","","","","","","","","","","","",""
"","html-keyboard-response","317","445964","0.0-498.0","2u5ya5yy","2560","1440","","","","","","","","","","","390","ibb","Diagnostic trial","","j","9","5","false","true","RIGHT","j","1","RIGHT","true","","",""
"","html-keyboard-response","318","446723","0.0-501.0","2u5ya5yy","2560","1440","","","","","","","","","","","null","+","Fixation - short","","null","","","","","","","","","","","",""
"","html-keyboard-response","319","447172","0.0-502.0","2u5ya5yy","2560","1440","","","","","","","","","","","448","ibb","Diagnostic trial","","j","9","6","false","false","LEFT","f","0","RIGHT","false","","",""
"","call-function","320","447172","0.0-504.0-0.0","2u5ya5yy","","","","","","","","","","","","","","","","","","","","","","","","","","","","",""
"","html-keyboard-response","321","447486","0.0-504.0-1.0","2u5ya5yy","2560","1440","","","","","","","","","","","null","Wrong","Feedback","","null","","","","","","","","","","","",""
"","call-function","322","447487","0.0-504.0-2.0","2u5ya5yy","","","","","","","","","","","","","","","","","","","","","","","","","","","","",""
"","html-keyboard-response","323","448241","0.0-505.0","2u5ya5yy","2560","1440","","","","","","","","","","","null","+","Fixation - short","","null","","","","","","","","","","","",""
"","html-keyboard-response","324","448684","0.0-506.0","2u5ya5yy","2560","1440","","","","","","","","","","","442","ibb","Diagnostic trial","","j","9","7","false","true","RIGHT","j","1","RIGHT","true","","",""
"","html-keyboard-response","325","449446","0.0-509.0","2u5ya5yy","2560","1440","","","","","","","","","","","null","+","Fixation - short","","null","","","","","","","","","","","",""
"","html-keyboard-response","326","449836","0.0-510.0","2u5ya5yy","2560","1440","","","","","","","","","","","390","ibb","Diagnostic trial","","j","9","8","false","true","RIGHT","j","1","RIGHT","true","","",""
"","html-keyboard-response","327","450595","0.0-513.0","2u5ya5yy","2560","1440","","","","","","","","","","","null","+","Fixation - short","","null","","","","","","","","","","","",""
"","html-keyboard-response","328","451115","0.0-514.0","2u5ya5yy","2560","1440","","","","","","","","","","","519","ibb","Inducer trial","","f","9","","true","","","","0","","","","",""
"","call-function","329","451115","0.0-516.0-0.0","2u5ya5yy","","","","","","","","","","","","","","","","","","","","","","","","","","","","",""
"","html-keyboard-response","330","451423","0.0-516.0-1.0","2u5ya5yy","2560","1440","","","","","","","","","","","null","Wrong","Feedback","","null","","","","","","","","","","","",""
"","call-function","331","451423","0.0-516.0-2.0","2u5ya5yy","","","","","","","","","","","","","","","","","","","","","","","","","","","","",""
"","html-keyboard-response","332","452936","0.0-517.0","2u5ya5yy","2560","1440","","","","","","","","","","","null","+","Fixation - long","","null","","","","","","","","","","","",""
"","html-keyboard-response","333","453756","0.0-518.0","2u5ya5yy","2560","1440","","","","","","","","","","","820","If gwn press LEFT | If doy press RIGHT","Inducer instructions",""," ","10","","","","","","","","","","",""
"","html-keyboard-response","334","454514","0.0-519.0","2u5ya5yy","2560","1440","","","","","","","","","","","null","+","Fixation - short","","null","","","","","","","","","","","",""
"","html-keyboard-response","335","455236","0.0-520.0","2u5ya5yy","2560","1440","","","","","","","","","","","721","doy","Diagnostic trial","","f","10","0","false","false","LEFT","f","1","RIGHT","false","","",""
"","html-keyboard-response","336","455996","0.0-523.0","2u5ya5yy","2560","1440","","","","","","","","","","","null","+","Fixation - short","","null","","","","","","","","","","","",""
"","html-keyboard-response","337","456428","0.0-524.0","2u5ya5yy","2560","1440","","","","","","","","","","","431","doy","Diagnostic trial","","f","10","1","false","false","LEFT","f","1","RIGHT","false","","",""
"","html-keyboard-response","338","457182","0.0-527.0","2u5ya5yy","2560","1440","","","","","","","","","","","null","+","Fixation - short","","null","","","","","","","","","","","",""
"","html-keyboard-response","339","457524","0.0-528.0","2u5ya5yy","2560","1440","","","","","","","","","","","341","doy","Diagnostic trial","","f","10","2","false","false","LEFT","f","1","RIGHT","false","","",""
"","html-keyboard-response","340","458284","0.0-531.0","2u5ya5yy","2560","1440","","","","","","","","","","","null","+","Fixation - short","","null","","","","","","","","","","","",""
"","html-keyboard-response","341","458719","0.0-532.0","2u5ya5yy","2560","1440","","","","","","","","","","","447","gwn","Diagnostic trial","","j","10","3","false","true","RIGHT","j","1","LEFT","false","","",""
"","html-keyboard-response","342","459471","0.0-535.0","2u5ya5yy","2560","1440","","","","","","","","","","","null","+","Fixation - short","","null","","","","","","","","","","","",""
"","html-keyboard-response","343","460095","0.0-536.0","2u5ya5yy","2560","1440","","","","","","","","","","","623","gwn","Diagnostic trial","","f","10","4","false","false","LEFT","f","1","LEFT","true","","",""
"","html-keyboard-response","344","460855","0.0-539.0","2u5ya5yy","2560","1440","","","","","","","","","","","null","+","Fixation - short","","null","","","","","","","","","","","",""
"","html-keyboard-response","345","461430","0.0-540.0","2u5ya5yy","2560","1440","","","","","","","","","","","575","gwn","Diagnostic trial","","f","10","5","false","false","LEFT","f","1","LEFT","true","","",""
"","html-keyboard-response","346","462191","0.0-543.0","2u5ya5yy","2560","1440","","","","","","","","","","","null","+","Fixation - short","","null","","","","","","","","","","","",""
"","html-keyboard-response","347","462559","0.0-544.0","2u5ya5yy","2560","1440","","","","","","","","","","","367","gwn","Diagnostic trial","","f","10","6","false","true","RIGHT","j","0","LEFT","false","","",""
"","call-function","348","462559","0.0-546.0-0.0","2u5ya5yy","","","","","","","","","","","","","","","","","","","","","","","","","","","","",""
"","html-keyboard-response","349","462870","0.0-546.0-1.0","2u5ya5yy","2560","1440","","","","","","","","","","","null","Wrong","Feedback","","null","","","","","","","","","","","",""
"","call-function","350","462870","0.0-546.0-2.0","2u5ya5yy","","","","","","","","","","","","","","","","","","","","","","","","","","","","",""
"","html-keyboard-response","351","463624","0.0-547.0","2u5ya5yy","2560","1440","","","","","","","","","","","null","+","Fixation - short","","null","","","","","","","","","","","",""
"","html-keyboard-response","352","464391","0.0-548.0","2u5ya5yy","2560","1440","","","","","","","","","","","766","gwn","Diagnostic trial","","j","10","7","false","true","RIGHT","j","1","LEFT","false","","",""
"","html-keyboard-response","353","465142","0.0-551.0","2u5ya5yy","2560","1440","","","","","","","","","","","null","+","Fixation - short","","null","","","","","","","","","","","",""
"","html-keyboard-response","354","465678","0.0-552.0","2u5ya5yy","2560","1440","","","","","","","","","","","536","gwn","Inducer trial","","f","10","","true","","","","1","","","","",""
"","html-keyboard-response","355","467185","0.0-555.0","2u5ya5yy","2560","1440","","","","","","","","","","","null","+","Fixation - long","","null","","","","","","","","","","","",""
"","call-function","356","467185","0.0-556.0","2u5ya5yy","","","","","","","","","","","","","","","","","","","","","","","","","","","","",""
"","survey","357","470700","0.0-557.0","2u5ya5yy","2560","1440","","","","","","","","","","","3482","feedback","Feedback","","{""open_feedback"":""""}","","","","","","","","","","[]","","[{""event"":""fullscreenenter"",""trial"":3,""time"":109329}]"
