"value","trial_type","trial_index","time_elapsed","internal_node_id","id","width","height","webaudio","browser","browser_version","mobile","os","fullscreen","vsync_rate","webcam","microphone","view_history","rt","stimulus","trial_info","success","response","inducer_run","diagnostic_run","inducer_trial","italic","correct_diag_response_side","correct_response_key","correct_response","correct_inducer_response_side","congruent","accuracy","open_feedback","interactive"
"","call-function","0","5","0.0-0.0","jjrpqbuy","","","","","","","","","","","","","","","","","","","","","","","","","","","","",""
"","browser-check","1","1007","0.0-1.0","jjrpqbuy","1440","716","true","chrome","116.0.0","false","Mac OS","true","60.75","true","true","","","","","","","","","","","","","","","","","",""
"","instructions","2","107015","0.0-2.0","jjrpqbuy","","","","","","","","","","","","[{""page_index"":0,""viewing_time"":65537},{""page_index"":1,""viewing_time"":13243},{""page_index"":2,""viewing_time"":27230}]","106013","The experiment and consent","The experiment and consent","","","","","","","","","","","","","",""
"","fullscreen","3","166378","0.0-3.0","jjrpqbuy","1440","900","","","","","","","","","","","58346","","Full screen","true","","","","","","","","","","","","",""
"","instructions","4","279384","0.0-4.0","jjrpqbuy","1440","900","","","","","","","","","","[{""page_index"":0,""viewing_time"":106226},{""page_index"":1,""viewing_time"":6774}]","113001","Instructions","Basic overview explanation","","","","","","","","","","","","","",""
"","html-keyboard-response","5","284341","0.0-5.0","jjrpqbuy","1440","900","","","","","","","","","","","3444","If italic press LEFT | If upright press RIGHT","Diagnostic instructions",""," ","","","","","","","","","","","",""
"","html-keyboard-response","6","285100","0.0-6.0","jjrpqbuy","1440","900","","","","","","","","","","","null","+","Fixation - short","","null","","","","","","","","","","","",""
"","html-keyboard-response","7","285948","0.0-7.0","jjrpqbuy","1440","900","","","","","","","","","","","839","v&t","Practice diganostic trial","","j","practice","0","false","false","RIGHT","j","1","","","","",""
"","html-keyboard-response","8","286707","0.0-10.0","jjrpqbuy","1440","900","","","","","","","","","","","null","+","Fixation - short","","null","","","","","","","","","","","",""
"","html-keyboard-response","9","287275","0.0-11.0","jjrpqbuy","1440","900","","","","","","","","","","","567","v&t","Practice diganostic trial","","j","practice","1","false","false","RIGHT","j","1","","","","",""
"","html-keyboard-response","10","288037","0.0-14.0","jjrpqbuy","1440","900","","","","","","","","","","","null","+","Fixation - short","","null","","","","","","","","","","","",""
"","html-keyboard-response","11","288646","0.0-15.0","jjrpqbuy","1440","900","","","","","","","","","","","608","fef","Practice diganostic trial","","f","practice","2","false","true","LEFT","f","1","","","","",""
"","html-keyboard-response","12","289400","0.0-18.0","jjrpqbuy","1440","900","","","","","","","","","","","null","+","Fixation - short","","null","","","","","","","","","","","",""
"","html-keyboard-response","13","290086","0.0-19.0","jjrpqbuy","1440","900","","","","","","","","","","","685","fef","Practice diganostic trial","","j","practice","3","false","false","RIGHT","j","1","","","","",""
"","html-keyboard-response","14","290840","0.0-22.0","jjrpqbuy","1440","900","","","","","","","","","","","null","+","Fixation - short","","null","","","","","","","","","","","",""
"","html-keyboard-response","15","291624","0.0-23.0","jjrpqbuy","1440","900","","","","","","","","","","","782","v&t","Practice diganostic trial","","f","practice","4","false","true","LEFT","f","1","","","","",""
"","html-keyboard-response","16","292377","0.0-26.0","jjrpqbuy","1440","900","","","","","","","","","","","null","+","Fixation - short","","null","","","","","","","","","","","",""
"","html-keyboard-response","17","293162","0.0-27.0","jjrpqbuy","1440","900","","","","","","","","","","","784","fef","Practice diganostic trial","","f","practice","5","false","true","LEFT","f","1","","","","",""
"","html-keyboard-response","18","293922","0.0-30.0","jjrpqbuy","1440","900","","","","","","","","","","","null","+","Fixation - short","","null","","","","","","","","","","","",""
"","html-keyboard-response","19","294908","0.0-31.0","jjrpqbuy","1440","900","","","","","","","","","","","985","v&t","Practice diganostic trial","","f","practice","6","false","true","LEFT","f","1","","","","",""
"","html-keyboard-response","20","295665","0.0-34.0","jjrpqbuy","1440","900","","","","","","","","","","","null","+","Fixation - short","","null","","","","","","","","","","","",""
"","html-keyboard-response","21","296283","0.0-35.0","jjrpqbuy","1440","900","","","","","","","","","","","617","v&t","Practice diganostic trial","","j","practice","7","false","true","LEFT","f","0","","","","",""
"","call-function","22","296284","0.0-37.0-0.0","jjrpqbuy","","","","","","","","","","","","","","","","","","","","","","","","","","","","",""
"","html-keyboard-response","23","296594","0.0-37.0-1.0","jjrpqbuy","1440","900","","","","","","","","","","","null","Wrong","Feedback","","null","","","","","","","","","","","",""
"","call-function","24","296594","0.0-37.0-2.0","jjrpqbuy","","","","","","","","","","","","","","","","","","","","","","","","","","","","",""
"","html-keyboard-response","25","297351","0.0-38.0","jjrpqbuy","1440","900","","","","","","","","","","","null","+","Fixation - short","","null","","","","","","","","","","","",""
"","html-keyboard-response","26","298660","0.0-39.0","jjrpqbuy","1440","900","","","","","","","","","","","1308","fef","Practice diganostic trial","","j","practice","8","false","false","RIGHT","j","1","","","","",""
"","html-keyboard-response","27","299419","0.0-42.0","jjrpqbuy","1440","900","","","","","","","","","","","null","+","Fixation - short","","null","","","","","","","","","","","",""
"","html-keyboard-response","28","300057","0.0-43.0","jjrpqbuy","1440","900","","","","","","","","","","","637","fef","Practice diganostic trial","","f","practice","9","false","true","LEFT","f","1","","","","",""
"","html-keyboard-response","29","300818","0.0-46.0","jjrpqbuy","1440","900","","","","","","","","","","","null","+","Fixation - short","","null","","","","","","","","","","","",""
"","html-keyboard-response","30","301643","0.0-47.0","jjrpqbuy","1440","900","","","","","","","","","","","824","fef","Practice diganostic trial","","f","practice","10","false","false","RIGHT","j","0","","","","",""
"","call-function","31","301644","0.0-49.0-0.0","jjrpqbuy","","","","","","","","","","","","","","","","","","","","","","","","","","","","",""
"","html-keyboard-response","32","301955","0.0-49.0-1.0","jjrpqbuy","1440","900","","","","","","","","","","","null","Wrong","Feedback","","null","","","","","","","","","","","",""
"","call-function","33","301956","0.0-49.0-2.0","jjrpqbuy","","","","","","","","","","","","","","","","","","","","","","","","","","","","",""
"","html-keyboard-response","34","302716","0.0-50.0","jjrpqbuy","1440","900","","","","","","","","","","","null","+","Fixation - short","","null","","","","","","","","","","","",""
"","html-keyboard-response","35","304167","0.0-51.0","jjrpqbuy","1440","900","","","","","","","","","","","1450","v&t","Practice diganostic trial","","j","practice","11","false","false","RIGHT","j","1","","","","",""
"","html-keyboard-response","36","304922","0.0-54.0","jjrpqbuy","1440","900","","","","","","","","","","","null","+","Fixation - short","","null","","","","","","","","","","","",""
"","html-keyboard-response","37","305600","0.0-55.0","jjrpqbuy","1440","900","","","","","","","","","","","677","v&t","Practice diganostic trial","","f","practice","12","false","true","LEFT","f","1","","","","",""
"","html-keyboard-response","38","306362","0.0-58.0","jjrpqbuy","1440","900","","","","","","","","","","","null","+","Fixation - short","","null","","","","","","","","","","","",""
"","html-keyboard-response","39","307009","0.0-59.0","jjrpqbuy","1440","900","","","","","","","","","","","645","fef","Practice diganostic trial","","j","practice","13","false","false","RIGHT","j","1","","","","",""
"","html-keyboard-response","40","307772","0.0-62.0","jjrpqbuy","1440","900","","","","","","","","","","","null","+","Fixation - short","","null","","","","","","","","","","","",""
"","html-keyboard-response","41","308502","0.0-63.0","jjrpqbuy","1440","900","","","","","","","","","","","729","fef","Practice diganostic trial","","f","practice","14","false","true","LEFT","f","1","","","","",""
"","html-keyboard-response","42","309260","0.0-66.0","jjrpqbuy","1440","900","","","","","","","","","","","null","+","Fixation - short","","null","","","","","","","","","","","",""
"","instructions","43","315679","0.0-67.0","jjrpqbuy","1440","900","","","","","","","","","","[{""page_index"":0,""viewing_time"":6419}]","6419","Instructions","Final experiment explanation","","","","","","","","","","","","","",""
"","html-keyboard-response","44","323019","0.0-68.0","jjrpqbuy","1440","900","","","","","","","","","","","5825","If efr press LEFT | If olt press RIGHT","Practice inducer instructions",""," ","practice","","","","","","","","","","",""
"","html-keyboard-response","45","323692","0.0-69.0","jjrpqbuy","1440","900","","","","","","","","","","","671","olt","Practice inducer trial","","j","practice","","true","","","","1","","","","",""
"","html-keyboard-response","46","324448","0.0-72.0","jjrpqbuy","1440","900","","","","","","","","","","","null","+","Fixation - short","","null","","","","","","","","","","","",""
"","html-keyboard-response","47","328574","0.0-73.0","jjrpqbuy","1440","900","","","","","","","","","","","4126","If a82 press LEFT | If wjb press RIGHT","Practice inducer instructions",""," ","practice","","","","","","","","","","",""
"","html-keyboard-response","48","329140","0.0-74.0","jjrpqbuy","1440","900","","","","","","","","","","","565","a82","Practice inducer trial","","f","practice","","true","","","","1","","","","",""
"","html-keyboard-response","49","329895","0.0-77.0","jjrpqbuy","1440","900","","","","","","","","","","","null","+","Fixation - short","","null","","","","","","","","","","","",""
"","html-keyboard-response","50","332693","0.0-78.0","jjrpqbuy","1440","900","","","","","","","","","","","2797","If sdc press LEFT | If byp press RIGHT","Practice inducer instructions",""," ","practice","","","","","","","","","","",""
"","html-keyboard-response","51","333187","0.0-79.0","jjrpqbuy","1440","900","","","","","","","","","","","493","byp","Practice inducer trial","","j","practice","","true","","","","1","","","","",""
"","html-keyboard-response","52","333945","0.0-82.0","jjrpqbuy","1440","900","","","","","","","","","","","null","+","Fixation - short","","null","","","","","","","","","","","",""
"","html-keyboard-response","53","335880","0.0-83.0","jjrpqbuy","1440","900","","","","","","","","","","","1926","If w&d press LEFT | If avc press RIGHT","Practice inducer instructions",""," ","practice","","","","","","","","","","",""
"","html-keyboard-response","54","336413","0.0-84.0","jjrpqbuy","1440","900","","","","","","","","","","","533","w&d","Practice inducer trial","","f","practice","","true","","","","1","","","","",""
"","html-keyboard-response","55","337165","0.0-87.0","jjrpqbuy","1440","900","","","","","","","","","","","null","+","Fixation - short","","null","","","","","","","","","","","",""
"","html-keyboard-response","56","340280","0.0-88.0","jjrpqbuy","1440","900","","","","","","","","","","","3114","End practice","End of practice",""," ","","","","","","","","","","","",""
"","html-keyboard-response","57","341782","0.0-89.0","jjrpqbuy","1440","900","","","","","","","","","","","null","+","Fixation - long","","null","","","","","","","","","","","",""
"","html-keyboard-response","58","344377","0.0-90.0","jjrpqbuy","1440","900","","","","","","","","","","","2594","If gft press LEFT | If afb press RIGHT","Inducer instructions",""," ","0","","","","","","","","","","",""
"","html-keyboard-response","59","345136","0.0-91.0","jjrpqbuy","1440","900","","","","","","","","","","","null","+","Fixation - short","","null","","","","","","","","","","","",""
"","html-keyboard-response","60","345853","0.0-92.0","jjrpqbuy","1440","900","","","","","","","","","","","716","afb","Diagnostic trial","","j","0","0","false","false","RIGHT","j","1","RIGHT","true","","",""
"","html-keyboard-response","61","346616","0.0-95.0","jjrpqbuy","1440","900","","","","","","","","","","","null","+","Fixation - short","","null","","","","","","","","","","","",""
"","html-keyboard-response","62","347110","0.0-96.0","jjrpqbuy","1440","900","","","","","","","","","","","493","gft","Diagnostic trial","","f","0","1","false","false","RIGHT","j","0","LEFT","false","","",""
"","call-function","63","347111","0.0-98.0-0.0","jjrpqbuy","","","","","","","","","","","","","","","","","","","","","","","","","","","","",""
"","html-keyboard-response","64","347413","0.0-98.0-1.0","jjrpqbuy","1440","900","","","","","","","","","","","null","Wrong","Feedback","","null","","","","","","","","","","","",""
"","call-function","65","347413","0.0-98.0-2.0","jjrpqbuy","","","","","","","","","","","","","","","","","","","","","","","","","","","","",""
"","html-keyboard-response","66","348173","0.0-99.0","jjrpqbuy","1440","900","","","","","","","","","","","null","+","Fixation - short","","null","","","","","","","","","","","",""
"","html-keyboard-response","67","349129","0.0-100.0","jjrpqbuy","1440","900","","","","","","","","","","","955","afb","Diagnostic trial","","j","0","2","false","false","RIGHT","j","1","RIGHT","true","","",""
"","html-keyboard-response","68","349886","0.0-103.0","jjrpqbuy","1440","900","","","","","","","","","","","null","+","Fixation - short","","null","","","","","","","","","","","",""
"","html-keyboard-response","69","351232","0.0-104.0","jjrpqbuy","1440","900","","","","","","","","","","","1345","afb","Diagnostic trial","","f","0","3","false","true","LEFT","f","1","RIGHT","false","","",""
"","html-keyboard-response","70","351989","0.0-107.0","jjrpqbuy","1440","900","","","","","","","","","","","null","+","Fixation - short","","null","","","","","","","","","","","",""
"","html-keyboard-response","71","352898","0.0-108.0","jjrpqbuy","1440","900","","","","","","","","","","","909","gft","Diagnostic trial","","f","0","4","false","true","LEFT","f","1","LEFT","true","","",""
"","html-keyboard-response","72","353653","0.0-111.0","jjrpqbuy","1440","900","","","","","","","","","","","null","+","Fixation - short","","null","","","","","","","","","","","",""
"","html-keyboard-response","73","354305","0.0-112.0","jjrpqbuy","1440","900","","","","","","","","","","","652","gft","Diagnostic trial","","j","0","5","false","false","RIGHT","j","1","LEFT","false","","",""
"","html-keyboard-response","74","355062","0.0-115.0","jjrpqbuy","1440","900","","","","","","","","","","","null","+","Fixation - short","","null","","","","","","","","","","","",""
"","html-keyboard-response","75","356556","0.0-116.0","jjrpqbuy","1440","900","","","","","","","","","","","1493","gft","Diagnostic trial","","j","0","6","false","false","RIGHT","j","1","LEFT","false","","",""
"","html-keyboard-response","76","357310","0.0-119.0","jjrpqbuy","1440","900","","","","","","","","","","","null","+","Fixation - short","","null","","","","","","","","","","","",""
"","html-keyboard-response","77","357973","0.0-120.0","jjrpqbuy","1440","900","","","","","","","","","","","662","afb","Diagnostic trial","","f","0","7","false","true","LEFT","f","1","RIGHT","false","","",""
"","html-keyboard-response","78","358733","0.0-123.0","jjrpqbuy","1440","900","","","","","","","","","","","null","+","Fixation - short","","null","","","","","","","","","","","",""
"","html-keyboard-response","79","359274","0.0-124.0","jjrpqbuy","1440","900","","","","","","","","","","","540","afb","Diagnostic trial","","f","0","8","false","true","LEFT","f","1","RIGHT","false","","",""
"","html-keyboard-response","80","360032","0.0-127.0","jjrpqbuy","1440","900","","","","","","","","","","","null","+","Fixation - short","","null","","","","","","","","","","","",""
"","html-keyboard-response","81","360666","0.0-128.0","jjrpqbuy","1440","900","","","","","","","","","","","633","gft","Diagnostic trial","","j","0","9","false","false","RIGHT","j","1","LEFT","false","","",""
"","html-keyboard-response","82","361425","0.0-131.0","jjrpqbuy","1440","900","","","","","","","","","","","null","+","Fixation - short","","null","","","","","","","","","","","",""
"","html-keyboard-response","83","362064","0.0-132.0","jjrpqbuy","1440","900","","","","","","","","","","","638","gft","Diagnostic trial","","j","0","10","false","false","RIGHT","j","1","LEFT","false","","",""
"","html-keyboard-response","84","362823","0.0-135.0","jjrpqbuy","1440","900","","","","","","","","","","","null","+","Fixation - short","","null","","","","","","","","","","","",""
"","html-keyboard-response","85","364831","0.0-136.0","jjrpqbuy","1440","900","","","","","","","","","","","null","afb","Inducer trial","","null","0","","true","","","","0","","","","",""
"","call-function","86","364832","0.0-137.0-0.0","jjrpqbuy","","","","","","","","","","","","","","","","","","","","","","","","","","","","",""
"","html-keyboard-response","87","365140","0.0-137.0-1.0","jjrpqbuy","1440","900","","","","","","","","","","","null","Slow","Feedback","","null","","","","","","","","","","","",""
"","call-function","88","365141","0.0-137.0-2.0","jjrpqbuy","","","","","","","","","","","","","","","","","","","","","","","","","","","","",""
"","html-keyboard-response","89","366646","0.0-139.0","jjrpqbuy","1440","900","","","","","","","","","","","null","+","Fixation - long","","null","","","","","","","","","","","",""
"","html-keyboard-response","90","371285","0.0-140.0","jjrpqbuy","1440","900","","","","","","","","","","","4638","If hyo press LEFT | If wng press RIGHT","Inducer instructions",""," ","1","","","","","","","","","","",""
"","html-keyboard-response","91","372047","0.0-141.0","jjrpqbuy","1440","900","","","","","","","","","","","null","+","Fixation - short","","null","","","","","","","","","","","",""
"","html-keyboard-response","92","372732","0.0-142.0","jjrpqbuy","1440","900","","","","","","","","","","","684","hyo","Diagnostic trial","","f","1","0","false","false","RIGHT","j","0","LEFT","false","","",""
"","call-function","93","372733","0.0-144.0-0.0","jjrpqbuy","","","","","","","","","","","","","","","","","","","","","","","","","","","","",""
"","html-keyboard-response","94","373037","0.0-144.0-1.0","jjrpqbuy","1440","900","","","","","","","","","","","null","Wrong","Feedback","","null","","","","","","","","","","","",""
"","call-function","95","373037","0.0-144.0-2.0","jjrpqbuy","","","","","","","","","","","","","","","","","","","","","","","","","","","","",""
"","html-keyboard-response","96","373799","0.0-145.0","jjrpqbuy","1440","900","","","","","","","","","","","null","+","Fixation - short","","null","","","","","","","","","","","",""
"","html-keyboard-response","97","374895","0.0-146.0","jjrpqbuy","1440","900","","","","","","","","","","","1096","wng","Diagnostic trial","","j","1","1","false","false","RIGHT","j","1","RIGHT","true","","",""
"","html-keyboard-response","98","375652","0.0-149.0","jjrpqbuy","1440","900","","","","","","","","","","","null","+","Fixation - short","","null","","","","","","","","","","","",""
"","html-keyboard-response","99","376592","0.0-150.0","jjrpqbuy","1440","900","","","","","","","","","","","939","hyo","Diagnostic trial","","f","1","2","false","true","LEFT","f","1","LEFT","true","","",""
"","html-keyboard-response","100","377347","0.0-153.0","jjrpqbuy","1440","900","","","","","","","","","","","null","+","Fixation - short","","null","","","","","","","","","","","",""
"","html-keyboard-response","101","378635","0.0-154.0","jjrpqbuy","1440","900","","","","","","","","","","","1287","hyo","Diagnostic trial","","f","1","3","false","true","LEFT","f","1","LEFT","true","","",""
"","html-keyboard-response","102","379391","0.0-157.0","jjrpqbuy","1440","900","","","","","","","","","","","null","+","Fixation - short","","null","","","","","","","","","","","",""
"","html-keyboard-response","103","379965","0.0-158.0","jjrpqbuy","1440","900","","","","","","","","","","","573","hyo","Diagnostic trial","","f","1","4","false","true","LEFT","f","1","LEFT","true","","",""
"","html-keyboard-response","104","380724","0.0-161.0","jjrpqbuy","1440","900","","","","","","","","","","","null","+","Fixation - short","","null","","","","","","","","","","","",""
"","html-keyboard-response","105","381546","0.0-162.0","jjrpqbuy","1440","900","","","","","","","","","","","821","hyo","Diagnostic trial","","j","1","5","false","false","RIGHT","j","1","LEFT","false","","",""
"","html-keyboard-response","106","382299","0.0-165.0","jjrpqbuy","1440","900","","","","","","","","","","","null","+","Fixation - short","","null","","","","","","","","","","","",""
"","html-keyboard-response","107","383051","0.0-166.0","jjrpqbuy","1440","900","","","","","","","","","","","751","wng","Diagnostic trial","","f","1","6","false","true","LEFT","f","1","RIGHT","false","","",""
"","html-keyboard-response","108","383813","0.0-169.0","jjrpqbuy","1440","900","","","","","","","","","","","null","+","Fixation - short","","null","","","","","","","","","","","",""
"","html-keyboard-response","109","384392","0.0-170.0","jjrpqbuy","1440","900","","","","","","","","","","","578","wng","Diagnostic trial","","f","1","7","false","true","LEFT","f","1","RIGHT","false","","",""
"","html-keyboard-response","110","385147","0.0-173.0","jjrpqbuy","1440","900","","","","","","","","","","","null","+","Fixation - short","","null","","","","","","","","","","","",""
"","html-keyboard-response","111","386509","0.0-174.0","jjrpqbuy","1440","900","","","","","","","","","","","1361","hyo","Diagnostic trial","","j","1","8","false","false","RIGHT","j","1","LEFT","false","","",""
"","html-keyboard-response","112","387267","0.0-177.0","jjrpqbuy","1440","900","","","","","","","","","","","null","+","Fixation - short","","null","","","","","","","","","","","",""
"","html-keyboard-response","113","387770","0.0-178.0","jjrpqbuy","1440","900","","","","","","","","","","","503","wng","Diagnostic trial","","f","1","9","false","true","LEFT","f","1","RIGHT","false","","",""
"","html-keyboard-response","114","388527","0.0-181.0","jjrpqbuy","1440","900","","","","","","","","","","","null","+","Fixation - short","","null","","","","","","","","","","","",""
"","html-keyboard-response","115","389009","0.0-182.0","jjrpqbuy","1440","900","","","","","","","","","","","481","hyo","Diagnostic trial","","j","1","10","false","false","RIGHT","j","1","LEFT","false","","",""
"","html-keyboard-response","116","389763","0.0-185.0","jjrpqbuy","1440","900","","","","","","","","","","","null","+","Fixation - short","","null","","","","","","","","","","","",""
"","html-keyboard-response","117","390267","0.0-186.0","jjrpqbuy","1440","900","","","","","","","","","","","503","hyo","Diagnostic trial","","f","1","11","false","true","LEFT","f","1","LEFT","true","","",""
"","html-keyboard-response","118","391029","0.0-189.0","jjrpqbuy","1440","900","","","","","","","","","","","null","+","Fixation - short","","null","","","","","","","","","","","",""
"","html-keyboard-response","119","391582","0.0-190.0","jjrpqbuy","1440","900","","","","","","","","","","","553","hyo","Diagnostic trial","","f","1","12","false","true","LEFT","f","1","LEFT","true","","",""
"","html-keyboard-response","120","392339","0.0-193.0","jjrpqbuy","1440","900","","","","","","","","","","","null","+","Fixation - short","","null","","","","","","","","","","","",""
"","html-keyboard-response","121","393522","0.0-194.0","jjrpqbuy","1440","900","","","","","","","","","","","1182","hyo","Inducer trial","","j","1","","true","","","","0","","","","",""
"","call-function","122","393523","0.0-196.0-0.0","jjrpqbuy","","","","","","","","","","","","","","","","","","","","","","","","","","","","",""
"","html-keyboard-response","123","393826","0.0-196.0-1.0","jjrpqbuy","1440","900","","","","","","","","","","","null","Wrong","Feedback","","null","","","","","","","","","","","",""
"","call-function","124","393826","0.0-196.0-2.0","jjrpqbuy","","","","","","","","","","","","","","","","","","","","","","","","","","","","",""
"","html-keyboard-response","125","395331","0.0-197.0","jjrpqbuy","1440","900","","","","","","","","","","","null","+","Fixation - long","","null","","","","","","","","","","","",""
"","html-keyboard-response","126","399523","0.0-198.0","jjrpqbuy","1440","900","","","","","","","","","","","4191","If oco press LEFT | If ctv press RIGHT","Inducer instructions",""," ","2","","","","","","","","","","",""
"","html-keyboard-response","127","400281","0.0-199.0","jjrpqbuy","1440","900","","","","","","","","","","","null","+","Fixation - short","","null","","","","","","","","","","","",""
"","html-keyboard-response","128","401090","0.0-200.0","jjrpqbuy","1440","900","","","","","","","","","","","808","ctv","Diagnostic trial","","f","2","0","false","true","LEFT","f","1","RIGHT","false","","",""
"","html-keyboard-response","129","401850","0.0-203.0","jjrpqbuy","1440","900","","","","","","","","","","","null","+","Fixation - short","","null","","","","","","","","","","","",""
"","html-keyboard-response","130","402440","0.0-204.0","jjrpqbuy","1440","900","","","","","","","","","","","589","oco","Diagnostic trial","","f","2","1","false","true","LEFT","f","1","LEFT","true","","",""
"","html-keyboard-response","131","403194","0.0-207.0","jjrpqbuy","1440","900","","","","","","","","","","","null","+","Fixation - short","","null","","","","","","","","","","","",""
"","html-keyboard-response","132","403943","0.0-208.0","jjrpqbuy","1440","900","","","","","","","","","","","749","oco","Diagnostic trial","","f","2","2","false","true","LEFT","f","1","LEFT","true","","",""
"","html-keyboard-response","133","404697","0.0-211.0","jjrpqbuy","1440","900","","","","","","","","","","","null","+","Fixation - short","","null","","","","","","","","","","","",""
"","html-keyboard-response","134","405233","0.0-212.0","jjrpqbuy","1440","900","","","","","","","","","","","535","ctv","Diagnostic trial","","j","2","3","false","false","RIGHT","j","1","RIGHT","true","","",""
"","html-keyboard-response","135","405986","0.0-215.0","jjrpqbuy","1440","900","","","","","","","","","","","null","+","Fixation - short","","null","","","","","","","","","","","",""
"","html-keyboard-response","136","406612","0.0-216.0","jjrpqbuy","1440","900","","","","","","","","","","","625","ctv","Diagnostic trial","","f","2","4","false","true","LEFT","f","1","RIGHT","false","","",""
"","html-keyboard-response","137","407370","0.0-219.0","jjrpqbuy","1440","900","","","","","","","","","","","null","+","Fixation - short","","null","","","","","","","","","","","",""
"","html-keyboard-response","138","408328","0.0-220.0","jjrpqbuy","1440","900","","","","","","","","","","","958","oco","Diagnostic trial","","f","2","5","false","true","LEFT","f","1","LEFT","true","","",""
"","html-keyboard-response","139","409082","0.0-223.0","jjrpqbuy","1440","900","","","","","","","","","","","null","+","Fixation - short","","null","","","","","","","","","","","",""
"","html-keyboard-response","140","409663","0.0-224.0","jjrpqbuy","1440","900","","","","","","","","","","","581","ctv","Diagnostic trial","","f","2","6","false","true","LEFT","f","1","RIGHT","false","","",""
"","html-keyboard-response","141","410422","0.0-227.0","jjrpqbuy","1440","900","","","","","","","","","","","null","+","Fixation - short","","null","","","","","","","","","","","",""
"","html-keyboard-response","142","411076","0.0-228.0","jjrpqbuy","1440","900","","","","","","","","","","","654","oco","Diagnostic trial","","j","2","7","false","false","RIGHT","j","1","LEFT","false","","",""
"","html-keyboard-response","143","411837","0.0-231.0","jjrpqbuy","1440","900","","","","","","","","","","","null","+","Fixation - short","","null","","","","","","","","","","","",""
"","html-keyboard-response","144","412330","0.0-232.0","jjrpqbuy","1440","900","","","","","","","","","","","492","ctv","Diagnostic trial","","f","2","8","false","true","LEFT","f","1","RIGHT","false","","",""
"","html-keyboard-response","145","413091","0.0-235.0","jjrpqbuy","1440","900","","","","","","","","","","","null","+","Fixation - short","","null","","","","","","","","","","","",""
"","html-keyboard-response","146","413646","0.0-236.0","jjrpqbuy","1440","900","","","","","","","","","","","554","oco","Diagnostic trial","","f","2","9","false","true","LEFT","f","1","LEFT","true","","",""
"","html-keyboard-response","147","414404","0.0-239.0","jjrpqbuy","1440","900","","","","","","","","","","","null","+","Fixation - short","","null","","","","","","","","","","","",""
"","html-keyboard-response","148","415171","0.0-240.0","jjrpqbuy","1440","900","","","","","","","","","","","767","oco","Diagnostic trial","","f","2","10","false","true","LEFT","f","1","LEFT","true","","",""
"","html-keyboard-response","149","415932","0.0-243.0","jjrpqbuy","1440","900","","","","","","","","","","","null","+","Fixation - short","","null","","","","","","","","","","","",""
"","html-keyboard-response","150","416436","0.0-244.0","jjrpqbuy","1440","900","","","","","","","","","","","502","oco","Diagnostic trial","","f","2","11","false","true","LEFT","f","1","LEFT","true","","",""
"","html-keyboard-response","151","417196","0.0-247.0","jjrpqbuy","1440","900","","","","","","","","","","","null","+","Fixation - short","","null","","","","","","","","","","","",""
"","html-keyboard-response","152","417861","0.0-248.0","jjrpqbuy","1440","900","","","","","","","","","","","665","oco","Diagnostic trial","","j","2","12","false","false","RIGHT","j","1","LEFT","false","","",""
"","html-keyboard-response","153","418619","0.0-251.0","jjrpqbuy","1440","900","","","","","","","","","","","null","+","Fixation - short","","null","","","","","","","","","","","",""
"","html-keyboard-response","154","419579","0.0-252.0","jjrpqbuy","1440","900","","","","","","","","","","","959","oco","Inducer trial","","j","2","","true","","","","0","","","","",""
"","call-function","155","419580","0.0-254.0-0.0","jjrpqbuy","","","","","","","","","","","","","","","","","","","","","","","","","","","","",""
"","html-keyboard-response","156","419889","0.0-254.0-1.0","jjrpqbuy","1440","900","","","","","","","","","","","null","Wrong","Feedback","","null","","","","","","","","","","","",""
"","call-function","157","419889","0.0-254.0-2.0","jjrpqbuy","","","","","","","","","","","","","","","","","","","","","","","","","","","","",""
"","html-keyboard-response","158","421392","0.0-255.0","jjrpqbuy","1440","900","","","","","","","","","","","null","+","Fixation - long","","null","","","","","","","","","","","",""
"","html-keyboard-response","159","427078","0.0-256.0","jjrpqbuy","1440","900","","","","","","","","","","","5685","If dpf press LEFT | If pfl press RIGHT","Inducer instructions",""," ","3","","","","","","","","","","",""
"","html-keyboard-response","160","427841","0.0-257.0","jjrpqbuy","1440","900","","","","","","","","","","","null","+","Fixation - short","","null","","","","","","","","","","","",""
"","html-keyboard-response","161","428561","0.0-258.0","jjrpqbuy","1440","900","","","","","","","","","","","720","pfl","Diagnostic trial","","j","3","0","false","false","RIGHT","j","1","RIGHT","true","","",""
"","html-keyboard-response","162","429321","0.0-261.0","jjrpqbuy","1440","900","","","","","","","","","","","null","+","Fixation - short","","null","","","","","","","","","","","",""
"","html-keyboard-response","163","429834","0.0-262.0","jjrpqbuy","1440","900","","","","","","","","","","","512","dpf","Diagnostic trial","","f","3","1","false","true","LEFT","f","1","LEFT","true","","",""
"","html-keyboard-response","164","430593","0.0-265.0","jjrpqbuy","1440","900","","","","","","","","","","","null","+","Fixation - short","","null","","","","","","","","","","","",""
"","html-keyboard-response","165","431210","0.0-266.0","jjrpqbuy","1440","900","","","","","","","","","","","616","dpf","Diagnostic trial","","f","3","2","false","true","LEFT","f","1","LEFT","true","","",""
"","html-keyboard-response","166","431973","0.0-269.0","jjrpqbuy","1440","900","","","","","","","","","","","null","+","Fixation - short","","null","","","","","","","","","","","",""
"","html-keyboard-response","167","432473","0.0-270.0","jjrpqbuy","1440","900","","","","","","","","","","","499","dpf","Diagnostic trial","","f","3","3","false","true","LEFT","f","1","LEFT","true","","",""
"","html-keyboard-response","168","433234","0.0-273.0","jjrpqbuy","1440","900","","","","","","","","","","","null","+","Fixation - short","","null","","","","","","","","","","","",""
"","html-keyboard-response","169","433746","0.0-274.0","jjrpqbuy","1440","900","","","","","","","","","","","511","dpf","Diagnostic trial","","f","3","4","false","false","RIGHT","j","0","LEFT","false","","",""
"","call-function","170","433747","0.0-276.0-0.0","jjrpqbuy","","","","","","","","","","","","","","","","","","","","","","","","","","","","",""
"","html-keyboard-response","171","434059","0.0-276.0-1.0","jjrpqbuy","1440","900","","","","","","","","","","","null","Wrong","Feedback","","null","","","","","","","","","","","",""
"","call-function","172","434060","0.0-276.0-2.0","jjrpqbuy","","","","","","","","","","","","","","","","","","","","","","","","","","","","",""
"","html-keyboard-response","173","434819","0.0-277.0","jjrpqbuy","1440","900","","","","","","","","","","","null","+","Fixation - short","","null","","","","","","","","","","","",""
"","html-keyboard-response","174","435397","0.0-278.0","jjrpqbuy","1440","900","","","","","","","","","","","577","pfl","Diagnostic trial","","f","3","5","false","true","LEFT","f","1","RIGHT","false","","",""
"","html-keyboard-response","175","436154","0.0-281.0","jjrpqbuy","1440","900","","","","","","","","","","","null","+","Fixation - short","","null","","","","","","","","","","","",""
"","html-keyboard-response","176","436783","0.0-282.0","jjrpqbuy","1440","900","","","","","","","","","","","629","pfl","Diagnostic trial","","j","3","6","false","false","RIGHT","j","1","RIGHT","true","","",""
"","html-keyboard-response","177","437540","0.0-285.0","jjrpqbuy","1440","900","","","","","","","","","","","null","+","Fixation - short","","null","","","","","","","","","","","",""
"","html-keyboard-response","178","438121","0.0-286.0","jjrpqbuy","1440","900","","","","","","","","","","","581","dpf","Diagnostic trial","","f","3","7","false","true","LEFT","f","1","LEFT","true","","",""
"","html-keyboard-response","179","438883","0.0-289.0","jjrpqbuy","1440","900","","","","","","","","","","","null","+","Fixation - short","","null","","","","","","","","","","","",""
"","html-keyboard-response","180","439470","0.0-290.0","jjrpqbuy","1440","900","","","","","","","","","","","586","dpf","Diagnostic trial","","j","3","8","false","false","RIGHT","j","1","LEFT","false","","",""
"","html-keyboard-response","181","440223","0.0-293.0","jjrpqbuy","1440","900","","","","","","","","","","","null","+","Fixation - short","","null","","","","","","","","","","","",""
"","html-keyboard-response","182","441093","0.0-294.0","jjrpqbuy","1440","900","","","","","","","","","","","869","dpf","Inducer trial","","j","3","","true","","","","0","","","","",""
"","call-function","183","441094","0.0-296.0-0.0","jjrpqbuy","","","","","","","","","","","","","","","","","","","","","","","","","","","","",""
"","html-keyboard-response","184","441400","0.0-296.0-1.0","jjrpqbuy","1440","900","","","","","","","","","","","null","Wrong","Feedback","","null","","","","","","","","","","","",""
"","call-function","185","441401","0.0-296.0-2.0","jjrpqbuy","","","","","","","","","","","","","","","","","","","","","","","","","","","","",""
"","html-keyboard-response","186","442904","0.0-297.0","jjrpqbuy","1440","900","","","","","","","","","","","null","+","Fixation - long","","null","","","","","","","","","","","",""
"","html-keyboard-response","187","450306","0.0-298.0","jjrpqbuy","1440","900","","","","","","","","","","","7401","If eug press LEFT | If idd press RIGHT","Inducer instructions",""," ","4","","","","","","","","","","",""
"","html-keyboard-response","188","451065","0.0-299.0","jjrpqbuy","1440","900","","","","","","","","","","","null","+","Fixation - short","","null","","","","","","","","","","","",""
"","html-keyboard-response","189","451823","0.0-300.0","jjrpqbuy","1440","900","","","","","","","","","","","758","eug","Diagnostic trial","","f","4","0","false","true","LEFT","f","1","LEFT","true","","",""
"","html-keyboard-response","190","452587","0.0-303.0","jjrpqbuy","1440","900","","","","","","","","","","","null","+","Fixation - short","","null","","","","","","","","","","","",""
"","html-keyboard-response","191","453218","0.0-304.0","jjrpqbuy","1440","900","","","","","","","","","","","630","idd","Diagnostic trial","","j","4","1","false","false","RIGHT","j","1","RIGHT","true","","",""
"","html-keyboard-response","192","453974","0.0-307.0","jjrpqbuy","1440","900","","","","","","","","","","","null","+","Fixation - short","","null","","","","","","","","","","","",""
"","html-keyboard-response","193","454719","0.0-308.0","jjrpqbuy","1440","900","","","","","","","","","","","744","eug","Diagnostic trial","","j","4","2","false","false","RIGHT","j","1","LEFT","false","","",""
"","html-keyboard-response","194","455483","0.0-311.0","jjrpqbuy","1440","900","","","","","","","","","","","null","+","Fixation - short","","null","","","","","","","","","","","",""
"","html-keyboard-response","195","456292","0.0-312.0","jjrpqbuy","1440","900","","","","","","","","","","","808","idd","Diagnostic trial","","j","4","3","false","false","RIGHT","j","1","RIGHT","true","","",""
"","html-keyboard-response","196","457050","0.0-315.0","jjrpqbuy","1440","900","","","","","","","","","","","null","+","Fixation - short","","null","","","","","","","","","","","",""
"","html-keyboard-response","197","457576","0.0-316.0","jjrpqbuy","1440","900","","","","","","","","","","","525","eug","Inducer trial","","f","4","","true","","","","1","","","","",""
"","html-keyboard-response","198","459081","0.0-319.0","jjrpqbuy","1440","900","","","","","","","","","","","null","+","Fixation - long","","null","","","","","","","","","","","",""
"","html-keyboard-response","199","461399","0.0-320.0","jjrpqbuy","1440","900","","","","","","","","","","","2317","If uga press LEFT | If r22 press RIGHT","Inducer instructions",""," ","5","","","","","","","","","","",""
"","html-keyboard-response","200","462159","0.0-321.0","jjrpqbuy","1440","900","","","","","","","","","","","null","+","Fixation - short","","null","","","","","","","","","","","",""
"","html-keyboard-response","201","462630","0.0-322.0","jjrpqbuy","1440","900","","","","","","","","","","","470","r22","Diagnostic trial","","j","5","0","false","false","RIGHT","j","1","RIGHT","true","","",""
"","html-keyboard-response","202","463382","0.0-325.0","jjrpqbuy","1440","900","","","","","","","","","","","null","+","Fixation - short","","null","","","","","","","","","","","",""
"","html-keyboard-response","203","463760","0.0-326.0","jjrpqbuy","1440","900","","","","","","","","","","","377","r22","Diagnostic trial","","j","5","1","false","true","LEFT","f","0","RIGHT","false","","",""
"","call-function","204","463760","0.0-328.0-0.0","jjrpqbuy","","","","","","","","","","","","","","","","","","","","","","","","","","","","",""
"","html-keyboard-response","205","464071","0.0-328.0-1.0","jjrpqbuy","1440","900","","","","","","","","","","","null","Wrong","Feedback","","null","","","","","","","","","","","",""
"","call-function","206","464071","0.0-328.0-2.0","jjrpqbuy","","","","","","","","","","","","","","","","","","","","","","","","","","","","",""
"","html-keyboard-response","207","464835","0.0-329.0","jjrpqbuy","1440","900","","","","","","","","","","","null","+","Fixation - short","","null","","","","","","","","","","","",""
"","html-keyboard-response","208","465414","0.0-330.0","jjrpqbuy","1440","900","","","","","","","","","","","579","uga","Diagnostic trial","","j","5","2","false","false","RIGHT","j","1","LEFT","false","","",""
"","html-keyboard-response","209","466175","0.0-333.0","jjrpqbuy","1440","900","","","","","","","","","","","null","+","Fixation - short","","null","","","","","","","","","","","",""
"","html-keyboard-response","210","466676","0.0-334.0","jjrpqbuy","1440","900","","","","","","","","","","","500","r22","Diagnostic trial","","f","5","3","false","true","LEFT","f","1","RIGHT","false","","",""
"","html-keyboard-response","211","467430","0.0-337.0","jjrpqbuy","1440","900","","","","","","","","","","","null","+","Fixation - short","","null","","","","","","","","","","","",""
"","html-keyboard-response","212","468106","0.0-338.0","jjrpqbuy","1440","900","","","","","","","","","","","675","uga","Diagnostic trial","","f","5","4","false","true","LEFT","f","1","LEFT","true","","",""
"","html-keyboard-response","213","468862","0.0-341.0","jjrpqbuy","1440","900","","","","","","","","","","","null","+","Fixation - short","","null","","","","","","","","","","","",""
"","html-keyboard-response","214","469437","0.0-342.0","jjrpqbuy","1440","900","","","","","","","","","","","574","r22","Diagnostic trial","","j","5","5","false","true","LEFT","f","0","RIGHT","false","","",""
"","call-function","215","469438","0.0-344.0-0.0","jjrpqbuy","","","","","","","","","","","","","","","","","","","","","","","","","","","","",""
"","html-keyboard-response","216","469742","0.0-344.0-1.0","jjrpqbuy","1440","900","","","","","","","","","","","null","Wrong","Feedback","","null","","","","","","","","","","","",""
"","call-function","217","469742","0.0-344.0-2.0","jjrpqbuy","","","","","","","","","","","","","","","","","","","","","","","","","","","","",""
"","html-keyboard-response","218","470504","0.0-345.0","jjrpqbuy","1440","900","","","","","","","","","","","null","+","Fixation - short","","null","","","","","","","","","","","",""
"","html-keyboard-response","219","472461","0.0-346.0","jjrpqbuy","1440","900","","","","","","","","","","","1956","uga","Diagnostic trial","","j","5","6","false","false","RIGHT","j","1","LEFT","false","","",""
"","html-keyboard-response","220","473214","0.0-349.0","jjrpqbuy","1440","900","","","","","","","","","","","null","+","Fixation - short","","null","","","","","","","","","","","",""
"","html-keyboard-response","221","473910","0.0-350.0","jjrpqbuy","1440","900","","","","","","","","","","","695","r22","Diagnostic trial","","j","5","7","false","false","RIGHT","j","1","RIGHT","true","","",""
"","html-keyboard-response","222","474673","0.0-353.0","jjrpqbuy","1440","900","","","","","","","","","","","null","+","Fixation - short","","null","","","","","","","","","","","",""
"","html-keyboard-response","223","475160","0.0-354.0","jjrpqbuy","1440","900","","","","","","","","","","","487","uga","Inducer trial","","f","5","","true","","","","1","","","","",""
"","html-keyboard-response","224","476670","0.0-357.0","jjrpqbuy","1440","900","","","","","","","","","","","null","+","Fixation - long","","null","","","","","","","","","","","",""
"","html-keyboard-response","225","479439","0.0-358.0","jjrpqbuy","1440","900","","","","","","","","","","","2769","If m3p press LEFT | If atr press RIGHT","Inducer instructions",""," ","6","","","","","","","","","","",""
"","html-keyboard-response","226","480197","0.0-359.0","jjrpqbuy","1440","900","","","","","","","","","","","null","+","Fixation - short","","null","","","","","","","","","","","",""
"","html-keyboard-response","227","480848","0.0-360.0","jjrpqbuy","1440","900","","","","","","","","","","","649","m3p","Diagnostic trial","","j","6","0","false","true","LEFT","f","0","LEFT","true","","",""
"","call-function","228","480848","0.0-362.0-0.0","jjrpqbuy","","","","","","","","","","","","","","","","","","","","","","","","","","","","",""
"","html-keyboard-response","229","481161","0.0-362.0-1.0","jjrpqbuy","1440","900","","","","","","","","","","","null","Wrong","Feedback","","null","","","","","","","","","","","",""
"","call-function","230","481162","0.0-362.0-2.0","jjrpqbuy","","","","","","","","","","","","","","","","","","","","","","","","","","","","",""
"","html-keyboard-response","231","481917","0.0-363.0","jjrpqbuy","1440","900","","","","","","","","","","","null","+","Fixation - short","","null","","","","","","","","","","","",""
"","html-keyboard-response","232","482530","0.0-364.0","jjrpqbuy","1440","900","","","","","","","","","","","612","m3p","Diagnostic trial","","j","6","1","false","false","RIGHT","j","1","LEFT","false","","",""
"","html-keyboard-response","233","483286","0.0-367.0","jjrpqbuy","1440","900","","","","","","","","","","","null","+","Fixation - short","","null","","","","","","","","","","","",""
"","html-keyboard-response","234","484094","0.0-368.0","jjrpqbuy","1440","900","","","","","","","","","","","807","atr","Diagnostic trial","","j","6","2","false","false","RIGHT","j","1","RIGHT","true","","",""
"","html-keyboard-response","235","484854","0.0-371.0","jjrpqbuy","1440","900","","","","","","","","","","","null","+","Fixation - short","","null","","","","","","","","","","","",""
"","html-keyboard-response","236","485313","0.0-372.0","jjrpqbuy","1440","900","","","","","","","","","","","458","atr","Diagnostic trial","","f","6","3","false","true","LEFT","f","1","RIGHT","false","","",""
"","html-keyboard-response","237","486069","0.0-375.0","jjrpqbuy","1440","900","","","","","","","","","","","null","+","Fixation - short","","null","","","","","","","","","","","",""
"","html-keyboard-response","238","486751","0.0-376.0","jjrpqbuy","1440","900","","","","","","","","","","","681","atr","Diagnostic trial","","f","6","4","false","true","LEFT","f","1","RIGHT","false","","",""
"","html-keyboard-response","239","487509","0.0-379.0","jjrpqbuy","1440","900","","","","","","","","","","","null","+","Fixation - short","","null","","","","","","","","","","","",""
"","html-keyboard-response","240","487962","0.0-380.0","jjrpqbuy","1440","900","","","","","","","","","","","452","atr","Diagnostic trial","","f","6","5","false","true","LEFT","f","1","RIGHT","false","","",""
"","html-keyboard-response","241","488716","0.0-383.0","jjrpqbuy","1440","900","","","","","","","","","","","null","+","Fixation - short","","null","","","","","","","","","","","",""
"","html-keyboard-response","242","489293","0.0-384.0","jjrpqbuy","1440","900","","","","","","","","","","","576","atr","Inducer trial","","f","6","","true","","","","0","","","","",""
"","call-function","243","489294","0.0-386.0-0.0","jjrpqbuy","","","","","","","","","","","","","","","","","","","","","","","","","","","","",""
"","html-keyboard-response","244","489597","0.0-386.0-1.0","jjrpqbuy","1440","900","","","","","","","","","","","null","Wrong","Feedback","","null","","","","","","","","","","","",""
"","call-function","245","489597","0.0-386.0-2.0","jjrpqbuy","","","","","","","","","","","","","","","","","","","","","","","","","","","","",""
"","html-keyboard-response","246","491100","0.0-387.0","jjrpqbuy","1440","900","","","","","","","","","","","null","+","Fixation - long","","null","","","","","","","","","","","",""
"","html-keyboard-response","247","494579","0.0-388.0","jjrpqbuy","1440","900","","","","","","","","","","","3478","If vvm press LEFT | If rve press RIGHT","Inducer instructions",""," ","7","","","","","","","","","","",""
"","html-keyboard-response","248","495333","0.0-389.0","jjrpqbuy","1440","900","","","","","","","","","","","null","+","Fixation - short","","null","","","","","","","","","","","",""
"","html-keyboard-response","249","496016","0.0-390.0","jjrpqbuy","1440","900","","","","","","","","","","","682","rve","Diagnostic trial","","j","7","0","false","false","RIGHT","j","1","RIGHT","true","","",""
"","html-keyboard-response","250","496776","0.0-393.0","jjrpqbuy","1440","900","","","","","","","","","","","null","+","Fixation - short","","null","","","","","","","","","","","",""
"","html-keyboard-response","251","497468","0.0-394.0","jjrpqbuy","1440","900","","","","","","","","","","","691","rve","Diagnostic trial","","f","7","1","false","true","LEFT","f","1","RIGHT","false","","",""
"","html-keyboard-response","252","498229","0.0-397.0","jjrpqbuy","1440","900","","","","","","","","","","","null","+","Fixation - short","","null","","","","","","","","","","","",""
"","html-keyboard-response","253","498991","0.0-398.0","jjrpqbuy","1440","900","","","","","","","","","","","762","rve","Diagnostic trial","","j","7","2","false","true","LEFT","f","0","RIGHT","false","","",""
"","call-function","254","498992","0.0-400.0-0.0","jjrpqbuy","","","","","","","","","","","","","","","","","","","","","","","","","","","","",""
"","html-keyboard-response","255","499299","0.0-400.0-1.0","jjrpqbuy","1440","900","","","","","","","","","","","null","Wrong","Feedback","","null","","","","","","","","","","","",""
"","call-function","256","499300","0.0-400.0-2.0","jjrpqbuy","","","","","","","","","","","","","","","","","","","","","","","","","","","","",""
"","html-keyboard-response","257","500053","0.0-401.0","jjrpqbuy","1440","900","","","","","","","","","","","null","+","Fixation - short","","null","","","","","","","","","","","",""
"","html-keyboard-response","258","500749","0.0-402.0","jjrpqbuy","1440","900","","","","","","","","","","","695","vvm","Diagnostic trial","","f","7","3","false","true","LEFT","f","1","LEFT","true","","",""
"","html-keyboard-response","259","501512","0.0-405.0","jjrpqbuy","1440","900","","","","","","","","","","","null","+","Fixation - short","","null","","","","","","","","","","","",""
"","html-keyboard-response","260","502541","0.0-406.0","jjrpqbuy","1440","900","","","","","","","","","","","1028","vvm","Inducer trial","","f","7","","true","","","","1","","","","",""
"","html-keyboard-response","261","504044","0.0-409.0","jjrpqbuy","1440","900","","","","","","","","","","","null","+","Fixation - long","","null","","","","","","","","","","","",""
"","html-keyboard-response","262","506250","0.0-410.0","jjrpqbuy","1440","900","","","","","","","","","","","2205","If cea press LEFT | If dba press RIGHT","Inducer instructions",""," ","8","","","","","","","","","","",""
"","html-keyboard-response","263","507004","0.0-411.0","jjrpqbuy","1440","900","","","","","","","","","","","null","+","Fixation - short","","null","","","","","","","","","","","",""
"","html-keyboard-response","264","507677","0.0-412.0","jjrpqbuy","1440","900","","","","","","","","","","","672","dba","Diagnostic trial","","j","8","0","false","false","RIGHT","j","1","RIGHT","true","","",""
"","html-keyboard-response","265","508438","0.0-415.0","jjrpqbuy","1440","900","","","","","","","","","","","null","+","Fixation - short","","null","","","","","","","","","","","",""
"","html-keyboard-response","266","508953","0.0-416.0","jjrpqbuy","1440","900","","","","","","","","","","","514","cea","Diagnostic trial","","f","8","1","false","true","LEFT","f","1","LEFT","true","","",""
"","html-keyboard-response","267","509709","0.0-419.0","jjrpqbuy","1440","900","","","","","","","","","","","null","+","Fixation - short","","null","","","","","","","","","","","",""
"","html-keyboard-response","268","510441","0.0-420.0","jjrpqbuy","1440","900","","","","","","","","","","","731","dba","Diagnostic trial","","j","8","2","false","false","RIGHT","j","1","RIGHT","true","","",""
"","html-keyboard-response","269","511195","0.0-423.0","jjrpqbuy","1440","900","","","","","","","","","","","null","+","Fixation - short","","null","","","","","","","","","","","",""
"","html-keyboard-response","270","511931","0.0-424.0","jjrpqbuy","1440","900","","","","","","","","","","","735","cea","Diagnostic trial","","j","8","3","false","false","RIGHT","j","1","LEFT","false","","",""
"","html-keyboard-response","271","512683","0.0-427.0","jjrpqbuy","1440","900","","","","","","","","","","","null","+","Fixation - short","","null","","","","","","","","","","","",""
"","html-keyboard-response","272","513239","0.0-428.0","jjrpqbuy","1440","900","","","","","","","","","","","555","dba","Diagnostic trial","","j","8","4","false","false","RIGHT","j","1","RIGHT","true","","",""
"","html-keyboard-response","273","513995","0.0-431.0","jjrpqbuy","1440","900","","","","","","","","","","","null","+","Fixation - short","","null","","","","","","","","","","","",""
"","html-keyboard-response","274","514491","0.0-432.0","jjrpqbuy","1440","900","","","","","","","","","","","495","dba","Diagnostic trial","","j","8","5","false","false","RIGHT","j","1","RIGHT","true","","",""
"","html-keyboard-response","275","515246","0.0-435.0","jjrpqbuy","1440","900","","","","","","","","","","","null","+","Fixation - short","","null","","","","","","","","","","","",""
"","html-keyboard-response","276","515939","0.0-436.0","jjrpqbuy","1440","900","","","","","","","","","","","693","cea","Diagnostic trial","","f","8","6","false","true","LEFT","f","1","LEFT","true","","",""
"","html-keyboard-response","277","516702","0.0-439.0","jjrpqbuy","1440","900","","","","","","","","","","","null","+","Fixation - short","","null","","","","","","","","","","","",""
"","html-keyboard-response","278","517638","0.0-440.0","jjrpqbuy","1440","900","","","","","","","","","","","935","cea","Inducer trial","","j","8","","true","","","","0","","","","",""
"","call-function","279","517639","0.0-442.0-0.0","jjrpqbuy","","","","","","","","","","","","","","","","","","","","","","","","","","","","",""
"","html-keyboard-response","280","517947","0.0-442.0-1.0","jjrpqbuy","1440","900","","","","","","","","","","","null","Wrong","Feedback","","null","","","","","","","","","","","",""
"","call-function","281","517948","0.0-442.0-2.0","jjrpqbuy","","","","","","","","","","","","","","","","","","","","","","","","","","","","",""
"","html-keyboard-response","282","519450","0.0-443.0","jjrpqbuy","1440","900","","","","","","","","","","","null","+","Fixation - long","","null","","","","","","","","","","","",""
"","html-keyboard-response","283","523110","0.0-444.0","jjrpqbuy","1440","900","","","","","","","","","","","3659","If rch press LEFT | If oac press RIGHT","Inducer instructions",""," ","9","","","","","","","","","","",""
"","html-keyboard-response","284","523866","0.0-445.0","jjrpqbuy","1440","900","","","","","","","","","","","null","+","Fixation - short","","null","","","","","","","","","","","",""
"","html-keyboard-response","285","524625","0.0-446.0","jjrpqbuy","1440","900","","","","","","","","","","","758","rch","Diagnostic trial","","j","9","0","false","false","RIGHT","j","1","LEFT","false","","",""
"","html-keyboard-response","286","525382","0.0-449.0","jjrpqbuy","1440","900","","","","","","","","","","","null","+","Fixation - short","","null","","","","","","","","","","","",""
"","html-keyboard-response","287","525839","0.0-450.0","jjrpqbuy","1440","900","","","","","","","","","","","457","rch","Diagnostic trial","","j","9","1","false","false","RIGHT","j","1","LEFT","false","","",""
"","html-keyboard-response","288","526595","0.0-453.0","jjrpqbuy","1440","900","","","","","","","","","","","null","+","Fixation - short","","null","","","","","","","","","","","",""
"","html-keyboard-response","289","527183","0.0-454.0","jjrpqbuy","1440","900","","","","","","","","","","","587","oac","Diagnostic trial","","j","9","2","false","false","RIGHT","j","1","RIGHT","true","","",""
"","html-keyboard-response","290","527942","0.0-457.0","jjrpqbuy","1440","900","","","","","","","","","","","null","+","Fixation - short","","null","","","","","","","","","","","",""
"","html-keyboard-response","291","528509","0.0-458.0","jjrpqbuy","1440","900","","","","","","","","","","","566","rch","Diagnostic trial","","j","9","3","false","false","RIGHT","j","1","LEFT","false","","",""
"","html-keyboard-response","292","529266","0.0-461.0","jjrpqbuy","1440","900","","","","","","","","","","","null","+","Fixation - short","","null","","","","","","","","","","","",""
"","html-keyboard-response","293","529777","0.0-462.0","jjrpqbuy","1440","900","","","","","","","","","","","511","oac","Diagnostic trial","","j","9","4","false","false","RIGHT","j","1","RIGHT","true","","",""
"","html-keyboard-response","294","530531","0.0-465.0","jjrpqbuy","1440","900","","","","","","","","","","","null","+","Fixation - short","","null","","","","","","","","","","","",""
"","html-keyboard-response","295","530989","0.0-466.0","jjrpqbuy","1440","900","","","","","","","","","","","457","oac","Diagnostic trial","","j","9","5","false","false","RIGHT","j","1","RIGHT","true","","",""
"","html-keyboard-response","296","531749","0.0-469.0","jjrpqbuy","1440","900","","","","","","","","","","","null","+","Fixation - short","","null","","","","","","","","","","","",""
"","html-keyboard-response","297","532156","0.0-470.0","jjrpqbuy","1440","900","","","","","","","","","","","406","oac","Diagnostic trial","","j","9","6","false","false","RIGHT","j","1","RIGHT","true","","",""
"","html-keyboard-response","298","532916","0.0-473.0","jjrpqbuy","1440","900","","","","","","","","","","","null","+","Fixation - short","","null","","","","","","","","","","","",""
"","html-keyboard-response","299","533474","0.0-474.0","jjrpqbuy","1440","900","","","","","","","","","","","557","oac","Diagnostic trial","","f","9","7","false","true","LEFT","f","1","RIGHT","false","","",""
"","html-keyboard-response","300","534238","0.0-477.0","jjrpqbuy","1440","900","","","","","","","","","","","null","+","Fixation - short","","null","","","","","","","","","","","",""
"","html-keyboard-response","301","535173","0.0-478.0","jjrpqbuy","1440","900","","","","","","","","","","","935","rch","Diagnostic trial","","j","9","8","false","true","LEFT","f","0","LEFT","true","","",""
"","call-function","302","535174","0.0-480.0-0.0","jjrpqbuy","","","","","","","","","","","","","","","","","","","","","","","","","","","","",""
"","html-keyboard-response","303","535482","0.0-480.0-1.0","jjrpqbuy","1440","900","","","","","","","","","","","null","Wrong","Feedback","","null","","","","","","","","","","","",""
"","call-function","304","535483","0.0-480.0-2.0","jjrpqbuy","","","","","","","","","","","","","","","","","","","","","","","","","","","","",""
"","html-keyboard-response","305","536242","0.0-481.0","jjrpqbuy","1440","900","","","","","","","","","","","null","+","Fixation - short","","null","","","","","","","","","","","",""
"","html-keyboard-response","306","536824","0.0-482.0","jjrpqbuy","1440","900","","","","","","","","","","","581","rch","Diagnostic trial","","f","9","9","false","false","RIGHT","j","0","LEFT","false","","",""
"","call-function","307","536824","0.0-484.0-0.0","jjrpqbuy","","","","","","","","","","","","","","","","","","","","","","","","","","","","",""
"","html-keyboard-response","308","537131","0.0-484.0-1.0","jjrpqbuy","1440","900","","","","","","","","","","","null","Wrong","Feedback","","null","","","","","","","","","","","",""
"","call-function","309","537131","0.0-484.0-2.0","jjrpqbuy","","","","","","","","","","","","","","","","","","","","","","","","","","","","",""
"","html-keyboard-response","310","537891","0.0-485.0","jjrpqbuy","1440","900","","","","","","","","","","","null","+","Fixation - short","","null","","","","","","","","","","","",""
"","html-keyboard-response","311","538510","0.0-486.0","jjrpqbuy","1440","900","","","","","","","","","","","618","oac","Diagnostic trial","","f","9","10","false","true","LEFT","f","1","RIGHT","false","","",""
"","html-keyboard-response","312","539265","0.0-489.0","jjrpqbuy","1440","900","","","","","","","","","","","null","+","Fixation - short","","null","","","","","","","","","","","",""
"","html-keyboard-response","313","540085","0.0-490.0","jjrpqbuy","1440","900","","","","","","","","","","","819","oac","Diagnostic trial","","j","9","11","false","false","RIGHT","j","1","RIGHT","true","","",""
"","html-keyboard-response","314","540841","0.0-493.0","jjrpqbuy","1440","900","","","","","","","","","","","null","+","Fixation - short","","null","","","","","","","","","","","",""
"","html-keyboard-response","315","541450","0.0-494.0","jjrpqbuy","1440","900","","","","","","","","","","","608","oac","Diagnostic trial","","f","9","12","false","true","LEFT","f","1","RIGHT","false","","",""
"","html-keyboard-response","316","542209","0.0-497.0","jjrpqbuy","1440","900","","","","","","","","","","","null","+","Fixation - short","","null","","","","","","","","","","","",""
"","html-keyboard-response","317","542746","0.0-498.0","jjrpqbuy","1440","900","","","","","","","","","","","536","oac","Diagnostic trial","","f","9","13","false","true","LEFT","f","1","RIGHT","false","","",""
"","html-keyboard-response","318","543504","0.0-501.0","jjrpqbuy","1440","900","","","","","","","","","","","null","+","Fixation - short","","null","","","","","","","","","","","",""
"","html-keyboard-response","319","544330","0.0-502.0","jjrpqbuy","1440","900","","","","","","","","","","","824","oac","Diagnostic trial","","f","9","14","false","true","LEFT","f","1","RIGHT","false","","",""
"","html-keyboard-response","320","545089","0.0-505.0","jjrpqbuy","1440","900","","","","","","","","","","","null","+","Fixation - short","","null","","","","","","","","","","","",""
"","html-keyboard-response","321","545816","0.0-506.0","jjrpqbuy","1440","900","","","","","","","","","","","726","rch","Inducer trial","","f","9","","true","","","","1","","","","",""
"","html-keyboard-response","322","547321","0.0-509.0","jjrpqbuy","1440","900","","","","","","","","","","","null","+","Fixation - long","","null","","","","","","","","","","","",""
"","html-keyboard-response","323","548511","0.0-510.0","jjrpqbuy","1440","900","","","","","","","","","","","1190","If kil press LEFT | If hrf press RIGHT","Inducer instructions",""," ","10","","","","","","","","","","",""
"","html-keyboard-response","324","549266","0.0-511.0","jjrpqbuy","1440","900","","","","","","","","","","","null","+","Fixation - short","","null","","","","","","","","","","","",""
"","html-keyboard-response","325","549981","0.0-512.0","jjrpqbuy","1440","900","","","","","","","","","","","714","kil","Diagnostic trial","","j","10","0","false","false","RIGHT","j","1","LEFT","false","","",""
"","html-keyboard-response","326","550736","0.0-515.0","jjrpqbuy","1440","900","","","","","","","","","","","null","+","Fixation - short","","null","","","","","","","","","","","",""
"","html-keyboard-response","327","551213","0.0-516.0","jjrpqbuy","1440","900","","","","","","","","","","","476","kil","Diagnostic trial","","j","10","1","false","false","RIGHT","j","1","LEFT","false","","",""
"","html-keyboard-response","328","551969","0.0-519.0","jjrpqbuy","1440","900","","","","","","","","","","","null","+","Fixation - short","","null","","","","","","","","","","","",""
"","html-keyboard-response","329","552542","0.0-520.0","jjrpqbuy","1440","900","","","","","","","","","","","572","hrf","Diagnostic trial","","j","10","2","false","false","RIGHT","j","1","RIGHT","true","","",""
"","html-keyboard-response","330","553297","0.0-523.0","jjrpqbuy","1440","900","","","","","","","","","","","null","+","Fixation - short","","null","","","","","","","","","","","",""
"","html-keyboard-response","331","553809","0.0-524.0","jjrpqbuy","1440","900","","","","","","","","","","","511","kil","Diagnostic trial","","f","10","3","false","true","LEFT","f","1","LEFT","true","","",""
"","html-keyboard-response","332","554569","0.0-527.0","jjrpqbuy","1440","900","","","","","","","","","","","null","+","Fixation - short","","null","","","","","","","","","","","",""
"","html-keyboard-response","333","555452","0.0-528.0","jjrpqbuy","1440","900","","","","","","","","","","","882","hrf","Diagnostic trial","","f","10","4","false","true","LEFT","f","1","RIGHT","false","","",""
"","html-keyboard-response","334","556210","0.0-531.0","jjrpqbuy","1440","900","","","","","","","","","","","null","+","Fixation - short","","null","","","","","","","","","","","",""
"","html-keyboard-response","335","556784","0.0-532.0","jjrpqbuy","1440","900","","","","","","","","","","","573","hrf","Diagnostic trial","","f","10","5","false","true","LEFT","f","1","RIGHT","false","","",""
"","html-keyboard-response","336","557536","0.0-535.0","jjrpqbuy","1440","900","","","","","","","","","","","null","+","Fixation - short","","null","","","","","","","","","","","",""
"","html-keyboard-response","337","558307","0.0-536.0","jjrpqbuy","1440","900","","","","","","","","","","","771","kil","Diagnostic trial","","j","10","6","false","false","RIGHT","j","1","LEFT","false","","",""
"","html-keyboard-response","338","559064","0.0-539.0","jjrpqbuy","1440","900","","","","","","","","","","","null","+","Fixation - short","","null","","","","","","","","","","","",""
"","html-keyboard-response","339","559741","0.0-540.0","jjrpqbuy","1440","900","","","","","","","","","","","676","kil","Diagnostic trial","","f","10","7","false","true","LEFT","f","1","LEFT","true","","",""
"","html-keyboard-response","340","560496","0.0-543.0","jjrpqbuy","1440","900","","","","","","","","","","","null","+","Fixation - short","","null","","","","","","","","","","","",""
"","html-keyboard-response","341","561204","0.0-544.0","jjrpqbuy","1440","900","","","","","","","","","","","707","kil","Diagnostic trial","","f","10","8","false","true","LEFT","f","1","LEFT","true","","",""
"","html-keyboard-response","342","561959","0.0-547.0","jjrpqbuy","1440","900","","","","","","","","","","","null","+","Fixation - short","","null","","","","","","","","","","","",""
"","html-keyboard-response","343","562558","0.0-548.0","jjrpqbuy","1440","900","","","","","","","","","","","597","kil","Diagnostic trial","","f","10","9","false","true","LEFT","f","1","LEFT","true","","",""
"","html-keyboard-response","344","563317","0.0-551.0","jjrpqbuy","1440","900","","","","","","","","","","","null","+","Fixation - short","","null","","","","","","","","","","","",""
"","html-keyboard-response","345","564128","0.0-552.0","jjrpqbuy","1440","900","","","","","","","","","","","811","kil","Inducer trial","","f","10","","true","","","","1","","","","",""
"","html-keyboard-response","346","565633","0.0-555.0","jjrpqbuy","1440","900","","","","","","","","","","","null","+","Fixation - long","","null","","","","","","","","","","","",""
"","call-function","347","565634","0.0-556.0","jjrpqbuy","","","","","","","","","","","","","","","","","","","","","","","","","","","","",""
"","survey","348","569696","0.0-557.0","jjrpqbuy","1440","900","","","","","","","","","","","3958","feedback","Feedback","","{""open_feedback"":""""}","","","","","","","","","","[]","","[{""event"":""fullscreenenter"",""trial"":3,""time"":165416}]"
