"value","trial_type","trial_index","time_elapsed","internal_node_id","id","width","height","webaudio","browser","browser_version","mobile","os","fullscreen","vsync_rate","webcam","microphone","view_history","rt","stimulus","trial_info","success","response","inducer_run","diagnostic_run","inducer_trial","italic","correct_diag_response_side","correct_response_key","correct_response","correct_inducer_response_side","congruent","accuracy","open_feedback","interactive"
"","call-function","0","1","0.0-0.0","8fagy35y","","","","","","","","","","","","","","","","","","","","","","","","","","","","",""
"","browser-check","1","1514","0.0-1.0","8fagy35y","1440","783","true","chrome","120.0.0","false","Mac OS","true","40.03","true","true","","","","","","","","","","","","","","","","","",""
"","instructions","2","56591","0.0-2.0","8fagy35y","","","","","","","","","","","","[{""page_index"":0,""viewing_time"":10500},{""page_index"":1,""viewing_time"":16421},{""page_index"":2,""viewing_time"":28157}]","55078","The experiment and consent","The experiment and consent","","","","","","","","","","","","","",""
"","fullscreen","3","72730","0.0-3.0","8fagy35y","1440","900","","","","","","","","","","","15127","","Full screen","true","","","","","","","","","","","","",""
"","instructions","4","122236","0.0-4.0","8fagy35y","1440","900","","","","","","","","","","[{""page_index"":0,""viewing_time"":28602},{""page_index"":1,""viewing_time"":20903}]","49505","Instructions","Basic overview explanation","","","","","","","","","","","","","",""
"","html-keyboard-response","5","133025","0.0-5.0","8fagy35y","1440","900","","","","","","","","","","","9283","If italic press LEFT | If upright press RIGHT","Diagnostic instructions",""," ","","","","","","","","","","","",""
"","html-keyboard-response","6","133780","0.0-6.0","8fagy35y","1440","900","","","","","","","","","","","null","+","Fixation - short","","null","","","","","","","","","","","",""
"","html-keyboard-response","7","134497","0.0-7.0","8fagy35y","1440","900","","","","","","","","","","","716","pib","Practice diganostic trial","","j","practice","0","false","false","RIGHT","j","1","","","","",""
"","html-keyboard-response","8","135255","0.0-10.0","8fagy35y","1440","900","","","","","","","","","","","null","+","Fixation - short","","null","","","","","","","","","","","",""
"","html-keyboard-response","9","135837","0.0-11.0","8fagy35y","1440","900","","","","","","","","","","","580","dpf","Practice diganostic trial","","j","practice","1","false","false","RIGHT","j","1","","","","",""
"","html-keyboard-response","10","136593","0.0-14.0","8fagy35y","1440","900","","","","","","","","","","","null","+","Fixation - short","","null","","","","","","","","","","","",""
"","html-keyboard-response","11","137070","0.0-15.0","8fagy35y","1440","900","","","","","","","","","","","476","pib","Practice diganostic trial","","j","practice","2","false","false","RIGHT","j","1","","","","",""
"","html-keyboard-response","12","137822","0.0-18.0","8fagy35y","1440","900","","","","","","","","","","","null","+","Fixation - short","","null","","","","","","","","","","","",""
"","html-keyboard-response","13","138289","0.0-19.0","8fagy35y","1440","900","","","","","","","","","","","466","dpf","Practice diganostic trial","","j","practice","3","false","false","RIGHT","j","1","","","","",""
"","html-keyboard-response","14","139045","0.0-22.0","8fagy35y","1440","900","","","","","","","","","","","null","+","Fixation - short","","null","","","","","","","","","","","",""
"","html-keyboard-response","15","139526","0.0-23.0","8fagy35y","1440","900","","","","","","","","","","","480","dpf","Practice diganostic trial","","j","practice","4","false","false","RIGHT","j","1","","","","",""
"","html-keyboard-response","16","140283","0.0-26.0","8fagy35y","1440","900","","","","","","","","","","","null","+","Fixation - short","","null","","","","","","","","","","","",""
"","html-keyboard-response","17","140913","0.0-27.0","8fagy35y","1440","900","","","","","","","","","","","630","pib","Practice diganostic trial","","j","practice","5","false","false","RIGHT","j","1","","","","",""
"","html-keyboard-response","18","141669","0.0-30.0","8fagy35y","1440","900","","","","","","","","","","","null","+","Fixation - short","","null","","","","","","","","","","","",""
"","html-keyboard-response","19","142305","0.0-31.0","8fagy35y","1440","900","","","","","","","","","","","635","dpf","Practice diganostic trial","","j","practice","6","false","false","RIGHT","j","1","","","","",""
"","html-keyboard-response","20","143057","0.0-34.0","8fagy35y","1440","900","","","","","","","","","","","null","+","Fixation - short","","null","","","","","","","","","","","",""
"","html-keyboard-response","21","143696","0.0-35.0","8fagy35y","1440","900","","","","","","","","","","","638","dpf","Practice diganostic trial","","f","practice","7","false","true","LEFT","f","1","","","","",""
"","html-keyboard-response","22","144452","0.0-38.0","8fagy35y","1440","900","","","","","","","","","","","null","+","Fixation - short","","null","","","","","","","","","","","",""
"","html-keyboard-response","23","145008","0.0-39.0","8fagy35y","1440","900","","","","","","","","","","","555","dpf","Practice diganostic trial","","j","practice","8","false","false","RIGHT","j","1","","","","",""
"","html-keyboard-response","24","145764","0.0-42.0","8fagy35y","1440","900","","","","","","","","","","","null","+","Fixation - short","","null","","","","","","","","","","","",""
"","html-keyboard-response","25","146306","0.0-43.0","8fagy35y","1440","900","","","","","","","","","","","541","pib","Practice diganostic trial","","f","practice","9","false","true","LEFT","f","1","","","","",""
"","html-keyboard-response","26","147058","0.0-46.0","8fagy35y","1440","900","","","","","","","","","","","null","+","Fixation - short","","null","","","","","","","","","","","",""
"","html-keyboard-response","27","147593","0.0-47.0","8fagy35y","1440","900","","","","","","","","","","","534","pib","Practice diganostic trial","","j","practice","10","false","false","RIGHT","j","1","","","","",""
"","html-keyboard-response","28","148350","0.0-50.0","8fagy35y","1440","900","","","","","","","","","","","null","+","Fixation - short","","null","","","","","","","","","","","",""
"","html-keyboard-response","29","149054","0.0-51.0","8fagy35y","1440","900","","","","","","","","","","","703","dpf","Practice diganostic trial","","f","practice","11","false","true","LEFT","f","1","","","","",""
"","html-keyboard-response","30","149805","0.0-54.0","8fagy35y","1440","900","","","","","","","","","","","null","+","Fixation - short","","null","","","","","","","","","","","",""
"","html-keyboard-response","31","150404","0.0-55.0","8fagy35y","1440","900","","","","","","","","","","","598","dpf","Practice diganostic trial","","f","practice","12","false","true","LEFT","f","1","","","","",""
"","html-keyboard-response","32","151157","0.0-58.0","8fagy35y","1440","900","","","","","","","","","","","null","+","Fixation - short","","null","","","","","","","","","","","",""
"","html-keyboard-response","33","151930","0.0-59.0","8fagy35y","1440","900","","","","","","","","","","","772","pib","Practice diganostic trial","","f","practice","13","false","true","LEFT","f","1","","","","",""
"","html-keyboard-response","34","152682","0.0-62.0","8fagy35y","1440","900","","","","","","","","","","","null","+","Fixation - short","","null","","","","","","","","","","","",""
"","html-keyboard-response","35","153417","0.0-63.0","8fagy35y","1440","900","","","","","","","","","","","734","pib","Practice diganostic trial","","f","practice","14","false","true","LEFT","f","1","","","","",""
"","html-keyboard-response","36","154170","0.0-66.0","8fagy35y","1440","900","","","","","","","","","","","null","+","Fixation - short","","null","","","","","","","","","","","",""
"","instructions","37","177480","0.0-67.0","8fagy35y","1440","900","","","","","","","","","","[{""page_index"":0,""viewing_time"":23310}]","23311","Instructions","Final experiment explanation","","","","","","","","","","","","","",""
"","html-keyboard-response","38","188884","0.0-68.0","8fagy35y","1440","900","","","","","","","","","","","9896","If clr press LEFT | If nua press RIGHT","Practice inducer instructions",""," ","practice","","","","","","","","","","",""
"","html-keyboard-response","39","189585","0.0-69.0","8fagy35y","1440","900","","","","","","","","","","","700","clr","Practice inducer trial","","f","practice","","true","","","","1","","","","",""
"","html-keyboard-response","40","190337","0.0-72.0","8fagy35y","1440","900","","","","","","","","","","","null","+","Fixation - short","","null","","","","","","","","","","","",""
"","html-keyboard-response","41","196412","0.0-73.0","8fagy35y","1440","900","","","","","","","","","","","6074","If dlo press LEFT | If spm press RIGHT","Practice inducer instructions",""," ","practice","","","","","","","","","","",""
"","html-keyboard-response","42","197143","0.0-74.0","8fagy35y","1440","900","","","","","","","","","","","731","dlo","Practice inducer trial","","f","practice","","true","","","","1","","","","",""
"","html-keyboard-response","43","197897","0.0-77.0","8fagy35y","1440","900","","","","","","","","","","","null","+","Fixation - short","","null","","","","","","","","","","","",""
"","html-keyboard-response","44","211575","0.0-78.0","8fagy35y","1440","900","","","","","","","","","","","13678","If dv6 press LEFT | If cuo press RIGHT","Practice inducer instructions",""," ","practice","","","","","","","","","","",""
"","html-keyboard-response","45","212385","0.0-79.0","8fagy35y","1440","900","","","","","","","","","","","809","cuo","Practice inducer trial","","j","practice","","true","","","","1","","","","",""
"","html-keyboard-response","46","213142","0.0-82.0","8fagy35y","1440","900","","","","","","","","","","","null","+","Fixation - short","","null","","","","","","","","","","","",""
"","html-keyboard-response","47","220233","0.0-83.0","8fagy35y","1440","900","","","","","","","","","","","7090","If wue press LEFT | If ows press RIGHT","Practice inducer instructions",""," ","practice","","","","","","","","","","",""
"","html-keyboard-response","48","221217","0.0-84.0","8fagy35y","1440","900","","","","","","","","","","","983","ows","Practice inducer trial","","j","practice","","true","","","","1","","","","",""
"","html-keyboard-response","49","221970","0.0-87.0","8fagy35y","1440","900","","","","","","","","","","","null","+","Fixation - short","","null","","","","","","","","","","","",""
"","html-keyboard-response","50","226982","0.0-88.0","8fagy35y","1440","900","","","","","","","","","","","5011","End practice","End of practice",""," ","","","","","","","","","","","",""
"","html-keyboard-response","51","228485","0.0-89.0","8fagy35y","1440","900","","","","","","","","","","","null","+","Fixation - long","","null","","","","","","","","","","","",""
"","html-keyboard-response","52","232759","0.0-90.0","8fagy35y","1440","900","","","","","","","","","","","4273","If t53 press LEFT | If eug press RIGHT","Inducer instructions",""," ","0","","","","","","","","","","",""
"","html-keyboard-response","53","233512","0.0-91.0","8fagy35y","1440","900","","","","","","","","","","","null","+","Fixation - short","","null","","","","","","","","","","","",""
"","html-keyboard-response","54","234189","0.0-92.0","8fagy35y","1440","900","","","","","","","","","","","676","eug","Diagnostic trial","","j","0","0","false","true","LEFT","f","0","RIGHT","false","","",""
"","call-function","55","234190","0.0-94.0-0.0","8fagy35y","","","","","","","","","","","","","","","","","","","","","","","","","","","","",""
"","html-keyboard-response","56","234491","0.0-94.0-1.0","8fagy35y","1440","900","","","","","","","","","","","null","Wrong","Feedback","","null","","","","","","","","","","","",""
"","call-function","57","234492","0.0-94.0-2.0","8fagy35y","","","","","","","","","","","","","","","","","","","","","","","","","","","","",""
"","html-keyboard-response","58","235244","0.0-95.0","8fagy35y","1440","900","","","","","","","","","","","null","+","Fixation - short","","null","","","","","","","","","","","",""
"","html-keyboard-response","59","236881","0.0-96.0","8fagy35y","1440","900","","","","","","","","","","","1636","t53","Diagnostic trial","","j","0","1","false","true","LEFT","f","0","LEFT","true","","",""
"","call-function","60","236881","0.0-98.0-0.0","8fagy35y","","","","","","","","","","","","","","","","","","","","","","","","","","","","",""
"","html-keyboard-response","61","237188","0.0-98.0-1.0","8fagy35y","1440","900","","","","","","","","","","","null","Wrong","Feedback","","null","","","","","","","","","","","",""
"","call-function","62","237189","0.0-98.0-2.0","8fagy35y","","","","","","","","","","","","","","","","","","","","","","","","","","","","",""
"","html-keyboard-response","63","237945","0.0-99.0","8fagy35y","1440","900","","","","","","","","","","","null","+","Fixation - short","","null","","","","","","","","","","","",""
"","html-keyboard-response","64","239542","0.0-100.0","8fagy35y","1440","900","","","","","","","","","","","1595","t53","Diagnostic trial","","f","0","2","false","false","RIGHT","j","0","LEFT","false","","",""
"","call-function","65","239542","0.0-102.0-0.0","8fagy35y","","","","","","","","","","","","","","","","","","","","","","","","","","","","",""
"","html-keyboard-response","66","239848","0.0-102.0-1.0","8fagy35y","1440","900","","","","","","","","","","","null","Wrong","Feedback","","null","","","","","","","","","","","",""
"","call-function","67","239848","0.0-102.0-2.0","8fagy35y","","","","","","","","","","","","","","","","","","","","","","","","","","","","",""
"","html-keyboard-response","68","240603","0.0-103.0","8fagy35y","1440","900","","","","","","","","","","","null","+","Fixation - short","","null","","","","","","","","","","","",""
"","html-keyboard-response","69","241905","0.0-104.0","8fagy35y","1440","900","","","","","","","","","","","1301","eug","Diagnostic trial","","j","0","3","false","true","LEFT","f","0","RIGHT","false","","",""
"","call-function","70","241905","0.0-106.0-0.0","8fagy35y","","","","","","","","","","","","","","","","","","","","","","","","","","","","",""
"","html-keyboard-response","71","242208","0.0-106.0-1.0","8fagy35y","1440","900","","","","","","","","","","","null","Wrong","Feedback","","null","","","","","","","","","","","",""
"","call-function","72","242208","0.0-106.0-2.0","8fagy35y","","","","","","","","","","","","","","","","","","","","","","","","","","","","",""
"","html-keyboard-response","73","242965","0.0-107.0","8fagy35y","1440","900","","","","","","","","","","","null","+","Fixation - short","","null","","","","","","","","","","","",""
"","html-keyboard-response","74","244971","0.0-108.0","8fagy35y","1440","900","","","","","","","","","","","null","t53","Diagnostic trial","","null","0","4","false","true","LEFT","f","NaN","LEFT","true","","",""
"","call-function","75","244973","0.0-109.0-0.0","8fagy35y","","","","","","","","","","","","","","","","","","","","","","","","","","","","",""
"","html-keyboard-response","76","245278","0.0-109.0-1.0","8fagy35y","1440","900","","","","","","","","","","","null","Slow","Feedback","","null","","","","","","","","","","","",""
"","call-function","77","245279","0.0-109.0-2.0","8fagy35y","","","","","","","","","","","","","","","","","","","","","","","","","","","","",""
"","html-keyboard-response","78","246032","0.0-111.0","8fagy35y","1440","900","","","","","","","","","","","null","+","Fixation - short","","null","","","","","","","","","","","",""
"","html-keyboard-response","79","247056","0.0-112.0","8fagy35y","1440","900","","","","","","","","","","","1023","t53","Diagnostic trial","","j","0","5","false","true","LEFT","f","0","LEFT","true","","",""
"","call-function","80","247057","0.0-114.0-0.0","8fagy35y","","","","","","","","","","","","","","","","","","","","","","","","","","","","",""
"","html-keyboard-response","81","247360","0.0-114.0-1.0","8fagy35y","1440","900","","","","","","","","","","","null","Wrong","Feedback","","null","","","","","","","","","","","",""
"","call-function","82","247360","0.0-114.0-2.0","8fagy35y","","","","","","","","","","","","","","","","","","","","","","","","","","","","",""
"","html-keyboard-response","83","248115","0.0-115.0","8fagy35y","1440","900","","","","","","","","","","","null","+","Fixation - short","","null","","","","","","","","","","","",""
"","html-keyboard-response","84","249035","0.0-116.0","8fagy35y","1440","900","","","","","","","","","","","919","t53","Diagnostic trial","","j","0","6","false","true","LEFT","f","0","LEFT","true","","",""
"","call-function","85","249036","0.0-118.0-0.0","8fagy35y","","","","","","","","","","","","","","","","","","","","","","","","","","","","",""
"","html-keyboard-response","86","249343","0.0-118.0-1.0","8fagy35y","1440","900","","","","","","","","","","","null","Wrong","Feedback","","null","","","","","","","","","","","",""
"","call-function","87","249343","0.0-118.0-2.0","8fagy35y","","","","","","","","","","","","","","","","","","","","","","","","","","","","",""
"","html-keyboard-response","88","250095","0.0-119.0","8fagy35y","1440","900","","","","","","","","","","","null","+","Fixation - short","","null","","","","","","","","","","","",""
"","html-keyboard-response","89","250659","0.0-120.0","8fagy35y","1440","900","","","","","","","","","","","563","eug","Diagnostic trial","","f","0","7","false","false","RIGHT","j","0","RIGHT","true","","",""
"","call-function","90","250660","0.0-122.0-0.0","8fagy35y","","","","","","","","","","","","","","","","","","","","","","","","","","","","",""
"","html-keyboard-response","91","250962","0.0-122.0-1.0","8fagy35y","1440","900","","","","","","","","","","","null","Wrong","Feedback","","null","","","","","","","","","","","",""
"","call-function","92","250963","0.0-122.0-2.0","8fagy35y","","","","","","","","","","","","","","","","","","","","","","","","","","","","",""
"","html-keyboard-response","93","251720","0.0-123.0","8fagy35y","1440","900","","","","","","","","","","","null","+","Fixation - short","","null","","","","","","","","","","","",""
"","html-keyboard-response","94","252281","0.0-124.0","8fagy35y","1440","900","","","","","","","","","","","560","t53","Diagnostic trial","","j","0","8","false","true","LEFT","f","0","LEFT","true","","",""
"","call-function","95","252282","0.0-126.0-0.0","8fagy35y","","","","","","","","","","","","","","","","","","","","","","","","","","","","",""
"","html-keyboard-response","96","252585","0.0-126.0-1.0","8fagy35y","1440","900","","","","","","","","","","","null","Wrong","Feedback","","null","","","","","","","","","","","",""
"","call-function","97","252586","0.0-126.0-2.0","8fagy35y","","","","","","","","","","","","","","","","","","","","","","","","","","","","",""
"","html-keyboard-response","98","253338","0.0-127.0","8fagy35y","1440","900","","","","","","","","","","","null","+","Fixation - short","","null","","","","","","","","","","","",""
"","html-keyboard-response","99","254145","0.0-128.0","8fagy35y","1440","900","","","","","","","","","","","806","t53","Diagnostic trial","","j","0","9","false","true","LEFT","f","0","LEFT","true","","",""
"","call-function","100","254146","0.0-130.0-0.0","8fagy35y","","","","","","","","","","","","","","","","","","","","","","","","","","","","",""
"","html-keyboard-response","101","254447","0.0-130.0-1.0","8fagy35y","1440","900","","","","","","","","","","","null","Wrong","Feedback","","null","","","","","","","","","","","",""
"","call-function","102","254448","0.0-130.0-2.0","8fagy35y","","","","","","","","","","","","","","","","","","","","","","","","","","","","",""
"","html-keyboard-response","103","255200","0.0-131.0","8fagy35y","1440","900","","","","","","","","","","","null","+","Fixation - short","","null","","","","","","","","","","","",""
"","html-keyboard-response","104","255711","0.0-132.0","8fagy35y","1440","900","","","","","","","","","","","510","t53","Diagnostic trial","","j","0","10","false","true","LEFT","f","0","LEFT","true","","",""
"","call-function","105","255712","0.0-134.0-0.0","8fagy35y","","","","","","","","","","","","","","","","","","","","","","","","","","","","",""
"","html-keyboard-response","106","256014","0.0-134.0-1.0","8fagy35y","1440","900","","","","","","","","","","","null","Wrong","Feedback","","null","","","","","","","","","","","",""
"","call-function","107","256014","0.0-134.0-2.0","8fagy35y","","","","","","","","","","","","","","","","","","","","","","","","","","","","",""
"","html-keyboard-response","108","256766","0.0-135.0","8fagy35y","1440","900","","","","","","","","","","","null","+","Fixation - short","","null","","","","","","","","","","","",""
"","html-keyboard-response","109","257562","0.0-136.0","8fagy35y","1440","900","","","","","","","","","","","795","t53","Diagnostic trial","","j","0","11","false","true","LEFT","f","0","LEFT","true","","",""
"","call-function","110","257563","0.0-138.0-0.0","8fagy35y","","","","","","","","","","","","","","","","","","","","","","","","","","","","",""
"","html-keyboard-response","111","257867","0.0-138.0-1.0","8fagy35y","1440","900","","","","","","","","","","","null","Wrong","Feedback","","null","","","","","","","","","","","",""
"","call-function","112","257868","0.0-138.0-2.0","8fagy35y","","","","","","","","","","","","","","","","","","","","","","","","","","","","",""
"","html-keyboard-response","113","258625","0.0-139.0","8fagy35y","1440","900","","","","","","","","","","","null","+","Fixation - short","","null","","","","","","","","","","","",""
"","html-keyboard-response","114","259322","0.0-140.0","8fagy35y","1440","900","","","","","","","","","","","696","t53","Diagnostic trial","","j","0","12","false","true","LEFT","f","0","LEFT","true","","",""
"","call-function","115","259322","0.0-142.0-0.0","8fagy35y","","","","","","","","","","","","","","","","","","","","","","","","","","","","",""
"","html-keyboard-response","116","259625","0.0-142.0-1.0","8fagy35y","1440","900","","","","","","","","","","","null","Wrong","Feedback","","null","","","","","","","","","","","",""
"","call-function","117","259625","0.0-142.0-2.0","8fagy35y","","","","","","","","","","","","","","","","","","","","","","","","","","","","",""
"","html-keyboard-response","118","260377","0.0-143.0","8fagy35y","1440","900","","","","","","","","","","","null","+","Fixation - short","","null","","","","","","","","","","","",""
"","html-keyboard-response","119","261101","0.0-144.0","8fagy35y","1440","900","","","","","","","","","","","722","eug","Inducer trial","","f","0","","true","","","","0","","","","",""
"","call-function","120","261102","0.0-146.0-0.0","8fagy35y","","","","","","","","","","","","","","","","","","","","","","","","","","","","",""
"","html-keyboard-response","121","261403","0.0-146.0-1.0","8fagy35y","1440","900","","","","","","","","","","","null","Wrong","Feedback","","null","","","","","","","","","","","",""
"","call-function","122","261404","0.0-146.0-2.0","8fagy35y","","","","","","","","","","","","","","","","","","","","","","","","","","","","",""
"","html-keyboard-response","123","262911","0.0-147.0","8fagy35y","1440","900","","","","","","","","","","","null","+","Fixation - long","","null","","","","","","","","","","","",""
"","html-keyboard-response","124","271046","0.0-148.0","8fagy35y","1440","900","","","","","","","","","","","8134","If xss press LEFT | If lst press RIGHT","Inducer instructions",""," ","1","","","","","","","","","","",""
"","html-keyboard-response","125","271798","0.0-149.0","8fagy35y","1440","900","","","","","","","","","","","null","+","Fixation - short","","null","","","","","","","","","","","",""
"","html-keyboard-response","126","272406","0.0-150.0","8fagy35y","1440","900","","","","","","","","","","","607","xss","Diagnostic trial","","f","1","0","false","true","LEFT","f","1","LEFT","true","","",""
"","html-keyboard-response","127","273159","0.0-153.0","8fagy35y","1440","900","","","","","","","","","","","null","+","Fixation - short","","null","","","","","","","","","","","",""
"","html-keyboard-response","128","274031","0.0-154.0","8fagy35y","1440","900","","","","","","","","","","","872","lst","Diagnostic trial","","j","1","1","false","false","RIGHT","j","1","RIGHT","true","","",""
"","html-keyboard-response","129","274788","0.0-157.0","8fagy35y","1440","900","","","","","","","","","","","null","+","Fixation - short","","null","","","","","","","","","","","",""
"","html-keyboard-response","130","275971","0.0-158.0","8fagy35y","1440","900","","","","","","","","","","","1182","lst","Diagnostic trial","","j","1","2","false","false","RIGHT","j","1","RIGHT","true","","",""
"","html-keyboard-response","131","276724","0.0-161.0","8fagy35y","1440","900","","","","","","","","","","","null","+","Fixation - short","","null","","","","","","","","","","","",""
"","html-keyboard-response","132","277244","0.0-162.0","8fagy35y","1440","900","","","","","","","","","","","518","lst","Diagnostic trial","","j","1","3","false","false","RIGHT","j","1","RIGHT","true","","",""
"","html-keyboard-response","133","277998","0.0-165.0","8fagy35y","1440","900","","","","","","","","","","","null","+","Fixation - short","","null","","","","","","","","","","","",""
"","html-keyboard-response","134","278591","0.0-166.0","8fagy35y","1440","900","","","","","","","","","","","592","xss","Diagnostic trial","","f","1","4","false","false","RIGHT","j","0","LEFT","false","","",""
"","call-function","135","278591","0.0-168.0-0.0","8fagy35y","","","","","","","","","","","","","","","","","","","","","","","","","","","","",""
"","html-keyboard-response","136","278898","0.0-168.0-1.0","8fagy35y","1440","900","","","","","","","","","","","null","Wrong","Feedback","","null","","","","","","","","","","","",""
"","call-function","137","278898","0.0-168.0-2.0","8fagy35y","","","","","","","","","","","","","","","","","","","","","","","","","","","","",""
"","html-keyboard-response","138","279653","0.0-169.0","8fagy35y","1440","900","","","","","","","","","","","null","+","Fixation - short","","null","","","","","","","","","","","",""
"","html-keyboard-response","139","280204","0.0-170.0","8fagy35y","1440","900","","","","","","","","","","","550","xss","Diagnostic trial","","f","1","5","false","true","LEFT","f","1","LEFT","true","","",""
"","html-keyboard-response","140","280960","0.0-173.0","8fagy35y","1440","900","","","","","","","","","","","null","+","Fixation - short","","null","","","","","","","","","","","",""
"","html-keyboard-response","141","281531","0.0-174.0","8fagy35y","1440","900","","","","","","","","","","","569","xss","Diagnostic trial","","f","1","6","false","true","LEFT","f","1","LEFT","true","","",""
"","html-keyboard-response","142","282283","0.0-177.0","8fagy35y","1440","900","","","","","","","","","","","null","+","Fixation - short","","null","","","","","","","","","","","",""
"","html-keyboard-response","143","282814","0.0-178.0","8fagy35y","1440","900","","","","","","","","","","","530","xss","Diagnostic trial","","f","1","7","false","false","RIGHT","j","0","LEFT","false","","",""
"","call-function","144","282814","0.0-180.0-0.0","8fagy35y","","","","","","","","","","","","","","","","","","","","","","","","","","","","",""
"","html-keyboard-response","145","283121","0.0-180.0-1.0","8fagy35y","1440","900","","","","","","","","","","","null","Wrong","Feedback","","null","","","","","","","","","","","",""
"","call-function","146","283121","0.0-180.0-2.0","8fagy35y","","","","","","","","","","","","","","","","","","","","","","","","","","","","",""
"","html-keyboard-response","147","283874","0.0-181.0","8fagy35y","1440","900","","","","","","","","","","","null","+","Fixation - short","","null","","","","","","","","","","","",""
"","html-keyboard-response","148","284540","0.0-182.0","8fagy35y","1440","900","","","","","","","","","","","665","lst","Diagnostic trial","","j","1","8","false","true","LEFT","f","0","RIGHT","false","","",""
"","call-function","149","284541","0.0-184.0-0.0","8fagy35y","","","","","","","","","","","","","","","","","","","","","","","","","","","","",""
"","html-keyboard-response","150","284844","0.0-184.0-1.0","8fagy35y","1440","900","","","","","","","","","","","null","Wrong","Feedback","","null","","","","","","","","","","","",""
"","call-function","151","284844","0.0-184.0-2.0","8fagy35y","","","","","","","","","","","","","","","","","","","","","","","","","","","","",""
"","html-keyboard-response","152","285600","0.0-185.0","8fagy35y","1440","900","","","","","","","","","","","null","+","Fixation - short","","null","","","","","","","","","","","",""
"","html-keyboard-response","153","286138","0.0-186.0","8fagy35y","1440","900","","","","","","","","","","","537","xss","Diagnostic trial","","f","1","9","false","true","LEFT","f","1","LEFT","true","","",""
"","html-keyboard-response","154","286895","0.0-189.0","8fagy35y","1440","900","","","","","","","","","","","null","+","Fixation - short","","null","","","","","","","","","","","",""
"","html-keyboard-response","155","287332","0.0-190.0","8fagy35y","1440","900","","","","","","","","","","","436","xss","Diagnostic trial","","f","1","10","false","false","RIGHT","j","0","LEFT","false","","",""
"","call-function","156","287333","0.0-192.0-0.0","8fagy35y","","","","","","","","","","","","","","","","","","","","","","","","","","","","",""
"","html-keyboard-response","157","287640","0.0-192.0-1.0","8fagy35y","1440","900","","","","","","","","","","","null","Wrong","Feedback","","null","","","","","","","","","","","",""
"","call-function","158","287641","0.0-192.0-2.0","8fagy35y","","","","","","","","","","","","","","","","","","","","","","","","","","","","",""
"","html-keyboard-response","159","288393","0.0-193.0","8fagy35y","1440","900","","","","","","","","","","","null","+","Fixation - short","","null","","","","","","","","","","","",""
"","html-keyboard-response","160","289493","0.0-194.0","8fagy35y","1440","900","","","","","","","","","","","1099","lst","Inducer trial","","f","1","","true","","","","0","","","","",""
"","call-function","161","289494","0.0-196.0-0.0","8fagy35y","","","","","","","","","","","","","","","","","","","","","","","","","","","","",""
"","html-keyboard-response","162","289799","0.0-196.0-1.0","8fagy35y","1440","900","","","","","","","","","","","null","Wrong","Feedback","","null","","","","","","","","","","","",""
"","call-function","163","289800","0.0-196.0-2.0","8fagy35y","","","","","","","","","","","","","","","","","","","","","","","","","","","","",""
"","html-keyboard-response","164","291303","0.0-197.0","8fagy35y","1440","900","","","","","","","","","","","null","+","Fixation - long","","null","","","","","","","","","","","",""
"","html-keyboard-response","165","296813","0.0-198.0","8fagy35y","1440","900","","","","","","","","","","","5510","If ctv press LEFT | If s.r press RIGHT","Inducer instructions",""," ","2","","","","","","","","","","",""
"","html-keyboard-response","166","297566","0.0-199.0","8fagy35y","1440","900","","","","","","","","","","","null","+","Fixation - short","","null","","","","","","","","","","","",""
"","html-keyboard-response","167","298022","0.0-200.0","8fagy35y","1440","900","","","","","","","","","","","455","ctv","Diagnostic trial","","f","2","0","false","true","LEFT","f","1","LEFT","true","","",""
"","html-keyboard-response","168","298776","0.0-203.0","8fagy35y","1440","900","","","","","","","","","","","null","+","Fixation - short","","null","","","","","","","","","","","",""
"","html-keyboard-response","169","299322","0.0-204.0","8fagy35y","1440","900","","","","","","","","","","","545","ctv","Diagnostic trial","","f","2","1","false","true","LEFT","f","1","LEFT","true","","",""
"","html-keyboard-response","170","300073","0.0-207.0","8fagy35y","1440","900","","","","","","","","","","","null","+","Fixation - short","","null","","","","","","","","","","","",""
"","html-keyboard-response","171","300527","0.0-208.0","8fagy35y","1440","900","","","","","","","","","","","452","ctv","Diagnostic trial","","f","2","2","false","true","LEFT","f","1","LEFT","true","","",""
"","html-keyboard-response","172","301279","0.0-211.0","8fagy35y","1440","900","","","","","","","","","","","null","+","Fixation - short","","null","","","","","","","","","","","",""
"","html-keyboard-response","173","301819","0.0-212.0","8fagy35y","1440","900","","","","","","","","","","","539","s.r","Diagnostic trial","","j","2","3","false","false","RIGHT","j","1","RIGHT","true","","",""
"","html-keyboard-response","174","302573","0.0-215.0","8fagy35y","1440","900","","","","","","","","","","","null","+","Fixation - short","","null","","","","","","","","","","","",""
"","html-keyboard-response","175","303267","0.0-216.0","8fagy35y","1440","900","","","","","","","","","","","693","ctv","Diagnostic trial","","f","2","4","false","false","RIGHT","j","0","LEFT","false","","",""
"","call-function","176","303268","0.0-218.0-0.0","8fagy35y","","","","","","","","","","","","","","","","","","","","","","","","","","","","",""
"","html-keyboard-response","177","303574","0.0-218.0-1.0","8fagy35y","1440","900","","","","","","","","","","","null","Wrong","Feedback","","null","","","","","","","","","","","",""
"","call-function","178","303574","0.0-218.0-2.0","8fagy35y","","","","","","","","","","","","","","","","","","","","","","","","","","","","",""
"","html-keyboard-response","179","304326","0.0-219.0","8fagy35y","1440","900","","","","","","","","","","","null","+","Fixation - short","","null","","","","","","","","","","","",""
"","html-keyboard-response","180","304862","0.0-220.0","8fagy35y","1440","900","","","","","","","","","","","535","s.r","Diagnostic trial","","j","2","5","false","false","RIGHT","j","1","RIGHT","true","","",""
"","html-keyboard-response","181","305619","0.0-223.0","8fagy35y","1440","900","","","","","","","","","","","null","+","Fixation - short","","null","","","","","","","","","","","",""
"","html-keyboard-response","182","306735","0.0-224.0","8fagy35y","1440","900","","","","","","","","","","","1115","ctv","Diagnostic trial","","f","2","6","false","true","LEFT","f","1","LEFT","true","","",""
"","html-keyboard-response","183","307488","0.0-227.0","8fagy35y","1440","900","","","","","","","","","","","null","+","Fixation - short","","null","","","","","","","","","","","",""
"","html-keyboard-response","184","308048","0.0-228.0","8fagy35y","1440","900","","","","","","","","","","","559","ctv","Diagnostic trial","","f","2","7","false","false","RIGHT","j","0","LEFT","false","","",""
"","call-function","185","308048","0.0-230.0-0.0","8fagy35y","","","","","","","","","","","","","","","","","","","","","","","","","","","","",""
"","html-keyboard-response","186","308354","0.0-230.0-1.0","8fagy35y","1440","900","","","","","","","","","","","null","Wrong","Feedback","","null","","","","","","","","","","","",""
"","call-function","187","308354","0.0-230.0-2.0","8fagy35y","","","","","","","","","","","","","","","","","","","","","","","","","","","","",""
"","html-keyboard-response","188","309109","0.0-231.0","8fagy35y","1440","900","","","","","","","","","","","null","+","Fixation - short","","null","","","","","","","","","","","",""
"","html-keyboard-response","189","309698","0.0-232.0","8fagy35y","1440","900","","","","","","","","","","","588","s.r","Diagnostic trial","","j","2","8","false","true","LEFT","f","0","RIGHT","false","","",""
"","call-function","190","309698","0.0-234.0-0.0","8fagy35y","","","","","","","","","","","","","","","","","","","","","","","","","","","","",""
"","html-keyboard-response","191","310002","0.0-234.0-1.0","8fagy35y","1440","900","","","","","","","","","","","null","Wrong","Feedback","","null","","","","","","","","","","","",""
"","call-function","192","310002","0.0-234.0-2.0","8fagy35y","","","","","","","","","","","","","","","","","","","","","","","","","","","","",""
"","html-keyboard-response","193","310754","0.0-235.0","8fagy35y","1440","900","","","","","","","","","","","null","+","Fixation - short","","null","","","","","","","","","","","",""
"","html-keyboard-response","194","311608","0.0-236.0","8fagy35y","1440","900","","","","","","","","","","","852","ctv","Diagnostic trial","","f","2","9","false","false","RIGHT","j","0","LEFT","false","","",""
"","call-function","195","311608","0.0-238.0-0.0","8fagy35y","","","","","","","","","","","","","","","","","","","","","","","","","","","","",""
"","html-keyboard-response","196","311912","0.0-238.0-1.0","8fagy35y","1440","900","","","","","","","","","","","null","Wrong","Feedback","","null","","","","","","","","","","","",""
"","call-function","197","311912","0.0-238.0-2.0","8fagy35y","","","","","","","","","","","","","","","","","","","","","","","","","","","","",""
"","html-keyboard-response","198","312669","0.0-239.0","8fagy35y","1440","900","","","","","","","","","","","null","+","Fixation - short","","null","","","","","","","","","","","",""
"","html-keyboard-response","199","313475","0.0-240.0","8fagy35y","1440","900","","","","","","","","","","","805","ctv","Inducer trial","","f","2","","true","","","","1","","","","",""
"","html-keyboard-response","200","314982","0.0-243.0","8fagy35y","1440","900","","","","","","","","","","","null","+","Fixation - long","","null","","","","","","","","","","","",""
"","html-keyboard-response","201","323691","0.0-244.0","8fagy35y","1440","900","","","","","","","","","","","8708","If slp press LEFT | If me1 press RIGHT","Inducer instructions",""," ","3","","","","","","","","","","",""
"","html-keyboard-response","202","324443","0.0-245.0","8fagy35y","1440","900","","","","","","","","","","","null","+","Fixation - short","","null","","","","","","","","","","","",""
"","html-keyboard-response","203","325008","0.0-246.0","8fagy35y","1440","900","","","","","","","","","","","564","slp","Diagnostic trial","","f","3","0","false","false","RIGHT","j","0","LEFT","false","","",""
"","call-function","204","325008","0.0-248.0-0.0","8fagy35y","","","","","","","","","","","","","","","","","","","","","","","","","","","","",""
"","html-keyboard-response","205","325315","0.0-248.0-1.0","8fagy35y","1440","900","","","","","","","","","","","null","Wrong","Feedback","","null","","","","","","","","","","","",""
"","call-function","206","325316","0.0-248.0-2.0","8fagy35y","","","","","","","","","","","","","","","","","","","","","","","","","","","","",""
"","html-keyboard-response","207","326072","0.0-249.0","8fagy35y","1440","900","","","","","","","","","","","null","+","Fixation - short","","null","","","","","","","","","","","",""
"","html-keyboard-response","208","326554","0.0-250.0","8fagy35y","1440","900","","","","","","","","","","","481","slp","Diagnostic trial","","f","3","1","false","false","RIGHT","j","0","LEFT","false","","",""
"","call-function","209","326554","0.0-252.0-0.0","8fagy35y","","","","","","","","","","","","","","","","","","","","","","","","","","","","",""
"","html-keyboard-response","210","326856","0.0-252.0-1.0","8fagy35y","1440","900","","","","","","","","","","","null","Wrong","Feedback","","null","","","","","","","","","","","",""
"","call-function","211","326856","0.0-252.0-2.0","8fagy35y","","","","","","","","","","","","","","","","","","","","","","","","","","","","",""
"","html-keyboard-response","212","327612","0.0-253.0","8fagy35y","1440","900","","","","","","","","","","","null","+","Fixation - short","","null","","","","","","","","","","","",""
"","html-keyboard-response","213","328275","0.0-254.0","8fagy35y","1440","900","","","","","","","","","","","662","me1","Diagnostic trial","","j","3","2","false","false","RIGHT","j","1","RIGHT","true","","",""
"","html-keyboard-response","214","329032","0.0-257.0","8fagy35y","1440","900","","","","","","","","","","","null","+","Fixation - short","","null","","","","","","","","","","","",""
"","html-keyboard-response","215","329731","0.0-258.0","8fagy35y","1440","900","","","","","","","","","","","698","slp","Diagnostic trial","","f","3","3","false","false","RIGHT","j","0","LEFT","false","","",""
"","call-function","216","329732","0.0-260.0-0.0","8fagy35y","","","","","","","","","","","","","","","","","","","","","","","","","","","","",""
"","html-keyboard-response","217","330039","0.0-260.0-1.0","8fagy35y","1440","900","","","","","","","","","","","null","Wrong","Feedback","","null","","","","","","","","","","","",""
"","call-function","218","330040","0.0-260.0-2.0","8fagy35y","","","","","","","","","","","","","","","","","","","","","","","","","","","","",""
"","html-keyboard-response","219","330796","0.0-261.0","8fagy35y","1440","900","","","","","","","","","","","null","+","Fixation - short","","null","","","","","","","","","","","",""
"","html-keyboard-response","220","331390","0.0-262.0","8fagy35y","1440","900","","","","","","","","","","","593","me1","Diagnostic trial","","j","3","4","false","false","RIGHT","j","1","RIGHT","true","","",""
"","html-keyboard-response","221","332142","0.0-265.0","8fagy35y","1440","900","","","","","","","","","","","null","+","Fixation - short","","null","","","","","","","","","","","",""
"","html-keyboard-response","222","332756","0.0-266.0","8fagy35y","1440","900","","","","","","","","","","","613","slp","Diagnostic trial","","f","3","5","false","false","RIGHT","j","0","LEFT","false","","",""
"","call-function","223","332757","0.0-268.0-0.0","8fagy35y","","","","","","","","","","","","","","","","","","","","","","","","","","","","",""
"","html-keyboard-response","224","333063","0.0-268.0-1.0","8fagy35y","1440","900","","","","","","","","","","","null","Wrong","Feedback","","null","","","","","","","","","","","",""
"","call-function","225","333064","0.0-268.0-2.0","8fagy35y","","","","","","","","","","","","","","","","","","","","","","","","","","","","",""
"","html-keyboard-response","226","333815","0.0-269.0","8fagy35y","1440","900","","","","","","","","","","","null","+","Fixation - short","","null","","","","","","","","","","","",""
"","html-keyboard-response","227","334619","0.0-270.0","8fagy35y","1440","900","","","","","","","","","","","803","slp","Diagnostic trial","","j","3","6","false","false","RIGHT","j","1","LEFT","false","","",""
"","html-keyboard-response","228","335372","0.0-273.0","8fagy35y","1440","900","","","","","","","","","","","null","+","Fixation - short","","null","","","","","","","","","","","",""
"","html-keyboard-response","229","336004","0.0-274.0","8fagy35y","1440","900","","","","","","","","","","","631","me1","Diagnostic trial","","j","3","7","false","false","RIGHT","j","1","RIGHT","true","","",""
"","html-keyboard-response","230","336760","0.0-277.0","8fagy35y","1440","900","","","","","","","","","","","null","+","Fixation - short","","null","","","","","","","","","","","",""
"","html-keyboard-response","231","337357","0.0-278.0","8fagy35y","1440","900","","","","","","","","","","","596","slp","Inducer trial","","f","3","","true","","","","1","","","","",""
"","html-keyboard-response","232","338860","0.0-281.0","8fagy35y","1440","900","","","","","","","","","","","null","+","Fixation - long","","null","","","","","","","","","","","",""
"","html-keyboard-response","233","348074","0.0-282.0","8fagy35y","1440","900","","","","","","","","","","","9213","If emd press LEFT | If kpt press RIGHT","Inducer instructions",""," ","4","","","","","","","","","","",""
"","html-keyboard-response","234","348827","0.0-283.0","8fagy35y","1440","900","","","","","","","","","","","null","+","Fixation - short","","null","","","","","","","","","","","",""
"","html-keyboard-response","235","349424","0.0-284.0","8fagy35y","1440","900","","","","","","","","","","","596","kpt","Diagnostic trial","","j","4","0","false","false","RIGHT","j","1","RIGHT","true","","",""
"","html-keyboard-response","236","350181","0.0-287.0","8fagy35y","1440","900","","","","","","","","","","","null","+","Fixation - short","","null","","","","","","","","","","","",""
"","html-keyboard-response","237","350708","0.0-288.0","8fagy35y","1440","900","","","","","","","","","","","526","kpt","Diagnostic trial","","j","4","1","false","true","LEFT","f","0","RIGHT","false","","",""
"","call-function","238","350708","0.0-290.0-0.0","8fagy35y","","","","","","","","","","","","","","","","","","","","","","","","","","","","",""
"","html-keyboard-response","239","351011","0.0-290.0-1.0","8fagy35y","1440","900","","","","","","","","","","","null","Wrong","Feedback","","null","","","","","","","","","","","",""
"","call-function","240","351012","0.0-290.0-2.0","8fagy35y","","","","","","","","","","","","","","","","","","","","","","","","","","","","",""
"","html-keyboard-response","241","351768","0.0-291.0","8fagy35y","1440","900","","","","","","","","","","","null","+","Fixation - short","","null","","","","","","","","","","","",""
"","html-keyboard-response","242","352553","0.0-292.0","8fagy35y","1440","900","","","","","","","","","","","783","kpt","Diagnostic trial","","j","4","2","false","true","LEFT","f","0","RIGHT","false","","",""
"","call-function","243","352553","0.0-294.0-0.0","8fagy35y","","","","","","","","","","","","","","","","","","","","","","","","","","","","",""
"","html-keyboard-response","244","352854","0.0-294.0-1.0","8fagy35y","1440","900","","","","","","","","","","","null","Wrong","Feedback","","null","","","","","","","","","","","",""
"","call-function","245","352855","0.0-294.0-2.0","8fagy35y","","","","","","","","","","","","","","","","","","","","","","","","","","","","",""
"","html-keyboard-response","246","353606","0.0-295.0","8fagy35y","1440","900","","","","","","","","","","","null","+","Fixation - short","","null","","","","","","","","","","","",""
"","html-keyboard-response","247","354209","0.0-296.0","8fagy35y","1440","900","","","","","","","","","","","603","emd","Diagnostic trial","","f","4","3","false","false","RIGHT","j","0","LEFT","false","","",""
"","call-function","248","354210","0.0-298.0-0.0","8fagy35y","","","","","","","","","","","","","","","","","","","","","","","","","","","","",""
"","html-keyboard-response","249","354512","0.0-298.0-1.0","8fagy35y","1440","900","","","","","","","","","","","null","Wrong","Feedback","","null","","","","","","","","","","","",""
"","call-function","250","354512","0.0-298.0-2.0","8fagy35y","","","","","","","","","","","","","","","","","","","","","","","","","","","","",""
"","html-keyboard-response","251","355265","0.0-299.0","8fagy35y","1440","900","","","","","","","","","","","null","+","Fixation - short","","null","","","","","","","","","","","",""
"","html-keyboard-response","252","356198","0.0-300.0","8fagy35y","1440","900","","","","","","","","","","","932","kpt","Inducer trial","","j","4","","true","","","","1","","","","",""
"","html-keyboard-response","253","357700","0.0-303.0","8fagy35y","1440","900","","","","","","","","","","","null","+","Fixation - long","","null","","","","","","","","","","","",""
"","html-keyboard-response","254","367012","0.0-304.0","8fagy35y","1440","900","","","","","","","","","","","9311","If alh press LEFT | If wjb press RIGHT","Inducer instructions",""," ","5","","","","","","","","","","",""
"","html-keyboard-response","255","367770","0.0-305.0","8fagy35y","1440","900","","","","","","","","","","","null","+","Fixation - short","","null","","","","","","","","","","","",""
"","html-keyboard-response","256","368285","0.0-306.0","8fagy35y","1440","900","","","","","","","","","","","514","alh","Diagnostic trial","","f","5","0","false","false","RIGHT","j","0","LEFT","false","","",""
"","call-function","257","368286","0.0-308.0-0.0","8fagy35y","","","","","","","","","","","","","","","","","","","","","","","","","","","","",""
"","html-keyboard-response","258","368592","0.0-308.0-1.0","8fagy35y","1440","900","","","","","","","","","","","null","Wrong","Feedback","","null","","","","","","","","","","","",""
"","call-function","259","368592","0.0-308.0-2.0","8fagy35y","","","","","","","","","","","","","","","","","","","","","","","","","","","","",""
"","html-keyboard-response","260","369344","0.0-309.0","8fagy35y","1440","900","","","","","","","","","","","null","+","Fixation - short","","null","","","","","","","","","","","",""
"","html-keyboard-response","261","369893","0.0-310.0","8fagy35y","1440","900","","","","","","","","","","","548","wjb","Diagnostic trial","","j","5","1","false","true","LEFT","f","0","RIGHT","false","","",""
"","call-function","262","369894","0.0-312.0-0.0","8fagy35y","","","","","","","","","","","","","","","","","","","","","","","","","","","","",""
"","html-keyboard-response","263","370196","0.0-312.0-1.0","8fagy35y","1440","900","","","","","","","","","","","null","Wrong","Feedback","","null","","","","","","","","","","","",""
"","call-function","264","370197","0.0-312.0-2.0","8fagy35y","","","","","","","","","","","","","","","","","","","","","","","","","","","","",""
"","html-keyboard-response","265","370953","0.0-313.0","8fagy35y","1440","900","","","","","","","","","","","null","+","Fixation - short","","null","","","","","","","","","","","",""
"","html-keyboard-response","266","371564","0.0-314.0","8fagy35y","1440","900","","","","","","","","","","","610","wjb","Diagnostic trial","","j","5","2","false","false","RIGHT","j","1","RIGHT","true","","",""
"","html-keyboard-response","267","372320","0.0-317.0","8fagy35y","1440","900","","","","","","","","","","","null","+","Fixation - short","","null","","","","","","","","","","","",""
"","html-keyboard-response","268","372894","0.0-318.0","8fagy35y","1440","900","","","","","","","","","","","573","alh","Diagnostic trial","","f","5","3","false","true","LEFT","f","1","LEFT","true","","",""
"","html-keyboard-response","269","373646","0.0-321.0","8fagy35y","1440","900","","","","","","","","","","","null","+","Fixation - short","","null","","","","","","","","","","","",""
"","html-keyboard-response","270","374271","0.0-322.0","8fagy35y","1440","900","","","","","","","","","","","623","wjb","Diagnostic trial","","j","5","4","false","true","LEFT","f","0","RIGHT","false","","",""
"","call-function","271","374271","0.0-324.0-0.0","8fagy35y","","","","","","","","","","","","","","","","","","","","","","","","","","","","",""
"","html-keyboard-response","272","374577","0.0-324.0-1.0","8fagy35y","1440","900","","","","","","","","","","","null","Wrong","Feedback","","null","","","","","","","","","","","",""
"","call-function","273","374578","0.0-324.0-2.0","8fagy35y","","","","","","","","","","","","","","","","","","","","","","","","","","","","",""
"","html-keyboard-response","274","375332","0.0-325.0","8fagy35y","1440","900","","","","","","","","","","","null","+","Fixation - short","","null","","","","","","","","","","","",""
"","html-keyboard-response","275","375939","0.0-326.0","8fagy35y","1440","900","","","","","","","","","","","606","wjb","Diagnostic trial","","j","5","5","false","false","RIGHT","j","1","RIGHT","true","","",""
"","html-keyboard-response","276","376691","0.0-329.0","8fagy35y","1440","900","","","","","","","","","","","null","+","Fixation - short","","null","","","","","","","","","","","",""
"","html-keyboard-response","277","377179","0.0-330.0","8fagy35y","1440","900","","","","","","","","","","","487","wjb","Diagnostic trial","","j","5","6","false","false","RIGHT","j","1","RIGHT","true","","",""
"","html-keyboard-response","278","377930","0.0-333.0","8fagy35y","1440","900","","","","","","","","","","","null","+","Fixation - short","","null","","","","","","","","","","","",""
"","html-keyboard-response","279","378383","0.0-334.0","8fagy35y","1440","900","","","","","","","","","","","452","wjb","Diagnostic trial","","j","5","7","false","true","LEFT","f","0","RIGHT","false","","",""
"","call-function","280","378383","0.0-336.0-0.0","8fagy35y","","","","","","","","","","","","","","","","","","","","","","","","","","","","",""
"","html-keyboard-response","281","378690","0.0-336.0-1.0","8fagy35y","1440","900","","","","","","","","","","","null","Wrong","Feedback","","null","","","","","","","","","","","",""
"","call-function","282","378690","0.0-336.0-2.0","8fagy35y","","","","","","","","","","","","","","","","","","","","","","","","","","","","",""
"","html-keyboard-response","283","379441","0.0-337.0","8fagy35y","1440","900","","","","","","","","","","","null","+","Fixation - short","","null","","","","","","","","","","","",""
"","html-keyboard-response","284","380026","0.0-338.0","8fagy35y","1440","900","","","","","","","","","","","584","alh","Diagnostic trial","","f","5","8","false","true","LEFT","f","1","LEFT","true","","",""
"","html-keyboard-response","285","380783","0.0-341.0","8fagy35y","1440","900","","","","","","","","","","","null","+","Fixation - short","","null","","","","","","","","","","","",""
"","html-keyboard-response","286","381595","0.0-342.0","8fagy35y","1440","900","","","","","","","","","","","811","wjb","Inducer trial","","j","5","","true","","","","1","","","","",""
"","html-keyboard-response","287","383101","0.0-345.0","8fagy35y","1440","900","","","","","","","","","","","null","+","Fixation - long","","null","","","","","","","","","","","",""
"","html-keyboard-response","288","392274","0.0-346.0","8fagy35y","1440","900","","","","","","","","","","","9171","If w&d press LEFT | If yag press RIGHT","Inducer instructions",""," ","6","","","","","","","","","","",""
"","html-keyboard-response","289","393031","0.0-347.0","8fagy35y","1440","900","","","","","","","","","","","null","+","Fixation - short","","null","","","","","","","","","","","",""
"","html-keyboard-response","290","393475","0.0-348.0","8fagy35y","1440","900","","","","","","","","","","","443","w&d","Diagnostic trial","","f","6","0","false","false","RIGHT","j","0","LEFT","false","","",""
"","call-function","291","393476","0.0-350.0-0.0","8fagy35y","","","","","","","","","","","","","","","","","","","","","","","","","","","","",""
"","html-keyboard-response","292","393778","0.0-350.0-1.0","8fagy35y","1440","900","","","","","","","","","","","null","Wrong","Feedback","","null","","","","","","","","","","","",""
"","call-function","293","393778","0.0-350.0-2.0","8fagy35y","","","","","","","","","","","","","","","","","","","","","","","","","","","","",""
"","html-keyboard-response","294","394530","0.0-351.0","8fagy35y","1440","900","","","","","","","","","","","null","+","Fixation - short","","null","","","","","","","","","","","",""
"","html-keyboard-response","295","395028","0.0-352.0","8fagy35y","1440","900","","","","","","","","","","","497","yag","Diagnostic trial","","j","6","1","false","true","LEFT","f","0","RIGHT","false","","",""
"","call-function","296","395029","0.0-354.0-0.0","8fagy35y","","","","","","","","","","","","","","","","","","","","","","","","","","","","",""
"","html-keyboard-response","297","395331","0.0-354.0-1.0","8fagy35y","1440","900","","","","","","","","","","","null","Wrong","Feedback","","null","","","","","","","","","","","",""
"","call-function","298","395332","0.0-354.0-2.0","8fagy35y","","","","","","","","","","","","","","","","","","","","","","","","","","","","",""
"","html-keyboard-response","299","396086","0.0-355.0","8fagy35y","1440","900","","","","","","","","","","","null","+","Fixation - short","","null","","","","","","","","","","","",""
"","html-keyboard-response","300","396598","0.0-356.0","8fagy35y","1440","900","","","","","","","","","","","510","w&d","Diagnostic trial","","f","6","2","false","true","LEFT","f","1","LEFT","true","","",""
"","html-keyboard-response","301","397350","0.0-359.0","8fagy35y","1440","900","","","","","","","","","","","null","+","Fixation - short","","null","","","","","","","","","","","",""
"","html-keyboard-response","302","398024","0.0-360.0","8fagy35y","1440","900","","","","","","","","","","","673","yag","Diagnostic trial","","j","6","3","false","false","RIGHT","j","1","RIGHT","true","","",""
"","html-keyboard-response","303","398781","0.0-363.0","8fagy35y","1440","900","","","","","","","","","","","null","+","Fixation - short","","null","","","","","","","","","","","",""
"","html-keyboard-response","304","399300","0.0-364.0","8fagy35y","1440","900","","","","","","","","","","","518","w&d","Diagnostic trial","","f","6","4","false","false","RIGHT","j","0","LEFT","false","","",""
"","call-function","305","399301","0.0-366.0-0.0","8fagy35y","","","","","","","","","","","","","","","","","","","","","","","","","","","","",""
"","html-keyboard-response","306","399607","0.0-366.0-1.0","8fagy35y","1440","900","","","","","","","","","","","null","Wrong","Feedback","","null","","","","","","","","","","","",""
"","call-function","307","399608","0.0-366.0-2.0","8fagy35y","","","","","","","","","","","","","","","","","","","","","","","","","","","","",""
"","html-keyboard-response","308","400362","0.0-367.0","8fagy35y","1440","900","","","","","","","","","","","null","+","Fixation - short","","null","","","","","","","","","","","",""
"","html-keyboard-response","309","400903","0.0-368.0","8fagy35y","1440","900","","","","","","","","","","","540","yag","Diagnostic trial","","j","6","5","false","true","LEFT","f","0","RIGHT","false","","",""
"","call-function","310","400904","0.0-370.0-0.0","8fagy35y","","","","","","","","","","","","","","","","","","","","","","","","","","","","",""
"","html-keyboard-response","311","401206","0.0-370.0-1.0","8fagy35y","1440","900","","","","","","","","","","","null","Wrong","Feedback","","null","","","","","","","","","","","",""
"","call-function","312","401206","0.0-370.0-2.0","8fagy35y","","","","","","","","","","","","","","","","","","","","","","","","","","","","",""
"","html-keyboard-response","313","401959","0.0-371.0","8fagy35y","1440","900","","","","","","","","","","","null","+","Fixation - short","","null","","","","","","","","","","","",""
"","html-keyboard-response","314","402437","0.0-372.0","8fagy35y","1440","900","","","","","","","","","","","477","yag","Diagnostic trial","","f","6","6","false","true","LEFT","f","1","RIGHT","false","","",""
"","html-keyboard-response","315","403190","0.0-375.0","8fagy35y","1440","900","","","","","","","","","","","null","+","Fixation - short","","null","","","","","","","","","","","",""
"","html-keyboard-response","316","403813","0.0-376.0","8fagy35y","1440","900","","","","","","","","","","","622","w&d","Diagnostic trial","","j","6","7","false","false","RIGHT","j","1","LEFT","false","","",""
"","html-keyboard-response","317","404568","0.0-379.0","8fagy35y","1440","900","","","","","","","","","","","null","+","Fixation - short","","null","","","","","","","","","","","",""
"","html-keyboard-response","318","406300","0.0-380.0","8fagy35y","1440","900","","","","","","","","","","","1731","w&d","Inducer trial","","f","6","","true","","","","1","","","","",""
"","html-keyboard-response","319","407806","0.0-383.0","8fagy35y","1440","900","","","","","","","","","","","null","+","Fixation - long","","null","","","","","","","","","","","",""
"","html-keyboard-response","320","414621","0.0-384.0","8fagy35y","1440","900","","","","","","","","","","","6814","If byp press LEFT | If lbx press RIGHT","Inducer instructions",""," ","7","","","","","","","","","","",""
"","html-keyboard-response","321","415375","0.0-385.0","8fagy35y","1440","900","","","","","","","","","","","null","+","Fixation - short","","null","","","","","","","","","","","",""
"","html-keyboard-response","322","415832","0.0-386.0","8fagy35y","1440","900","","","","","","","","","","","456","byp","Diagnostic trial","","f","7","0","false","true","LEFT","f","1","LEFT","true","","",""
"","html-keyboard-response","323","416589","0.0-389.0","8fagy35y","1440","900","","","","","","","","","","","null","+","Fixation - short","","null","","","","","","","","","","","",""
"","html-keyboard-response","324","417312","0.0-390.0","8fagy35y","1440","900","","","","","","","","","","","722","lbx","Diagnostic trial","","j","7","1","false","false","RIGHT","j","1","RIGHT","true","","",""
"","html-keyboard-response","325","418069","0.0-393.0","8fagy35y","1440","900","","","","","","","","","","","null","+","Fixation - short","","null","","","","","","","","","","","",""
"","html-keyboard-response","326","418739","0.0-394.0","8fagy35y","1440","900","","","","","","","","","","","669","lbx","Diagnostic trial","","j","7","2","false","false","RIGHT","j","1","RIGHT","true","","",""
"","html-keyboard-response","327","419493","0.0-397.0","8fagy35y","1440","900","","","","","","","","","","","null","+","Fixation - short","","null","","","","","","","","","","","",""
"","html-keyboard-response","328","420073","0.0-398.0","8fagy35y","1440","900","","","","","","","","","","","579","byp","Diagnostic trial","","f","7","3","false","true","LEFT","f","1","LEFT","true","","",""
"","html-keyboard-response","329","420824","0.0-401.0","8fagy35y","1440","900","","","","","","","","","","","null","+","Fixation - short","","null","","","","","","","","","","","",""
"","html-keyboard-response","330","421392","0.0-402.0","8fagy35y","1440","900","","","","","","","","","","","567","byp","Diagnostic trial","","f","7","4","false","true","LEFT","f","1","LEFT","true","","",""
"","html-keyboard-response","331","422144","0.0-405.0","8fagy35y","1440","900","","","","","","","","","","","null","+","Fixation - short","","null","","","","","","","","","","","",""
"","html-keyboard-response","332","422937","0.0-406.0","8fagy35y","1440","900","","","","","","","","","","","792","lbx","Diagnostic trial","","j","7","5","false","true","LEFT","f","0","RIGHT","false","","",""
"","call-function","333","422938","0.0-408.0-0.0","8fagy35y","","","","","","","","","","","","","","","","","","","","","","","","","","","","",""
"","html-keyboard-response","334","423240","0.0-408.0-1.0","8fagy35y","1440","900","","","","","","","","","","","null","Wrong","Feedback","","null","","","","","","","","","","","",""
"","call-function","335","423241","0.0-408.0-2.0","8fagy35y","","","","","","","","","","","","","","","","","","","","","","","","","","","","",""
"","html-keyboard-response","336","423993","0.0-409.0","8fagy35y","1440","900","","","","","","","","","","","null","+","Fixation - short","","null","","","","","","","","","","","",""
"","html-keyboard-response","337","424470","0.0-410.0","8fagy35y","1440","900","","","","","","","","","","","476","byp","Diagnostic trial","","f","7","6","false","true","LEFT","f","1","LEFT","true","","",""
"","html-keyboard-response","338","425222","0.0-413.0","8fagy35y","1440","900","","","","","","","","","","","null","+","Fixation - short","","null","","","","","","","","","","","",""
"","html-keyboard-response","339","425723","0.0-414.0","8fagy35y","1440","900","","","","","","","","","","","499","byp","Diagnostic trial","","f","7","7","false","false","RIGHT","j","0","LEFT","false","","",""
"","call-function","340","425723","0.0-416.0-0.0","8fagy35y","","","","","","","","","","","","","","","","","","","","","","","","","","","","",""
"","html-keyboard-response","341","426030","0.0-416.0-1.0","8fagy35y","1440","900","","","","","","","","","","","null","Wrong","Feedback","","null","","","","","","","","","","","",""
"","call-function","342","426031","0.0-416.0-2.0","8fagy35y","","","","","","","","","","","","","","","","","","","","","","","","","","","","",""
"","html-keyboard-response","343","426783","0.0-417.0","8fagy35y","1440","900","","","","","","","","","","","null","+","Fixation - short","","null","","","","","","","","","","","",""
"","html-keyboard-response","344","427358","0.0-418.0","8fagy35y","1440","900","","","","","","","","","","","575","lbx","Diagnostic trial","","j","7","8","false","false","RIGHT","j","1","RIGHT","true","","",""
"","html-keyboard-response","345","428110","0.0-421.0","8fagy35y","1440","900","","","","","","","","","","","null","+","Fixation - short","","null","","","","","","","","","","","",""
"","html-keyboard-response","346","428667","0.0-422.0","8fagy35y","1440","900","","","","","","","","","","","557","byp","Diagnostic trial","","j","7","9","false","true","LEFT","f","0","LEFT","true","","",""
"","call-function","347","428668","0.0-424.0-0.0","8fagy35y","","","","","","","","","","","","","","","","","","","","","","","","","","","","",""
"","html-keyboard-response","348","428970","0.0-424.0-1.0","8fagy35y","1440","900","","","","","","","","","","","null","Wrong","Feedback","","null","","","","","","","","","","","",""
"","call-function","349","428970","0.0-424.0-2.0","8fagy35y","","","","","","","","","","","","","","","","","","","","","","","","","","","","",""
"","html-keyboard-response","350","429723","0.0-425.0","8fagy35y","1440","900","","","","","","","","","","","null","+","Fixation - short","","null","","","","","","","","","","","",""
"","html-keyboard-response","351","431537","0.0-426.0","8fagy35y","1440","900","","","","","","","","","","","1813","byp","Inducer trial","","f","7","","true","","","","1","","","","",""
"","html-keyboard-response","352","433041","0.0-429.0","8fagy35y","1440","900","","","","","","","","","","","null","+","Fixation - long","","null","","","","","","","","","","","",""
"","html-keyboard-response","353","443964","0.0-430.0","8fagy35y","1440","900","","","","","","","","","","","10923","If eif press LEFT | If vh1 press RIGHT","Inducer instructions",""," ","8","","","","","","","","","","",""
"","html-keyboard-response","354","444719","0.0-431.0","8fagy35y","1440","900","","","","","","","","","","","null","+","Fixation - short","","null","","","","","","","","","","","",""
"","html-keyboard-response","355","445320","0.0-432.0","8fagy35y","1440","900","","","","","","","","","","","600","vh1","Diagnostic trial","","j","8","0","false","true","LEFT","f","0","RIGHT","false","","",""
"","call-function","356","445321","0.0-434.0-0.0","8fagy35y","","","","","","","","","","","","","","","","","","","","","","","","","","","","",""
"","html-keyboard-response","357","445627","0.0-434.0-1.0","8fagy35y","1440","900","","","","","","","","","","","null","Wrong","Feedback","","null","","","","","","","","","","","",""
"","call-function","358","445628","0.0-434.0-2.0","8fagy35y","","","","","","","","","","","","","","","","","","","","","","","","","","","","",""
"","html-keyboard-response","359","446383","0.0-435.0","8fagy35y","1440","900","","","","","","","","","","","null","+","Fixation - short","","null","","","","","","","","","","","",""
"","html-keyboard-response","360","446873","0.0-436.0","8fagy35y","1440","900","","","","","","","","","","","488","vh1","Diagnostic trial","","j","8","1","false","false","RIGHT","j","1","RIGHT","true","","",""
"","html-keyboard-response","361","447624","0.0-439.0","8fagy35y","1440","900","","","","","","","","","","","null","+","Fixation - short","","null","","","","","","","","","","","",""
"","html-keyboard-response","362","448145","0.0-440.0","8fagy35y","1440","900","","","","","","","","","","","519","vh1","Diagnostic trial","","j","8","2","false","true","LEFT","f","0","RIGHT","false","","",""
"","call-function","363","448146","0.0-442.0-0.0","8fagy35y","","","","","","","","","","","","","","","","","","","","","","","","","","","","",""
"","html-keyboard-response","364","448452","0.0-442.0-1.0","8fagy35y","1440","900","","","","","","","","","","","null","Wrong","Feedback","","null","","","","","","","","","","","",""
"","call-function","365","448453","0.0-442.0-2.0","8fagy35y","","","","","","","","","","","","","","","","","","","","","","","","","","","","",""
"","html-keyboard-response","366","449204","0.0-443.0","8fagy35y","1440","900","","","","","","","","","","","null","+","Fixation - short","","null","","","","","","","","","","","",""
"","html-keyboard-response","367","449633","0.0-444.0","8fagy35y","1440","900","","","","","","","","","","","428","vh1","Diagnostic trial","","j","8","3","false","false","RIGHT","j","1","RIGHT","true","","",""
"","html-keyboard-response","368","450385","0.0-447.0","8fagy35y","1440","900","","","","","","","","","","","null","+","Fixation - short","","null","","","","","","","","","","","",""
"","html-keyboard-response","369","450927","0.0-448.0","8fagy35y","1440","900","","","","","","","","","","","541","eif","Diagnostic trial","","f","8","4","false","true","LEFT","f","1","LEFT","true","","",""
"","html-keyboard-response","370","451684","0.0-451.0","8fagy35y","1440","900","","","","","","","","","","","null","+","Fixation - short","","null","","","","","","","","","","","",""
"","html-keyboard-response","371","452057","0.0-452.0","8fagy35y","1440","900","","","","","","","","","","","372","eif","Diagnostic trial","","f","8","5","false","false","RIGHT","j","0","LEFT","false","","",""
"","call-function","372","452058","0.0-454.0-0.0","8fagy35y","","","","","","","","","","","","","","","","","","","","","","","","","","","","",""
"","html-keyboard-response","373","452362","0.0-454.0-1.0","8fagy35y","1440","900","","","","","","","","","","","null","Wrong","Feedback","","null","","","","","","","","","","","",""
"","call-function","374","452362","0.0-454.0-2.0","8fagy35y","","","","","","","","","","","","","","","","","","","","","","","","","","","","",""
"","html-keyboard-response","375","453115","0.0-455.0","8fagy35y","1440","900","","","","","","","","","","","null","+","Fixation - short","","null","","","","","","","","","","","",""
"","html-keyboard-response","376","453560","0.0-456.0","8fagy35y","1440","900","","","","","","","","","","","445","eif","Diagnostic trial","","f","8","6","false","true","LEFT","f","1","LEFT","true","","",""
"","html-keyboard-response","377","454316","0.0-459.0","8fagy35y","1440","900","","","","","","","","","","","null","+","Fixation - short","","null","","","","","","","","","","","",""
"","html-keyboard-response","378","454918","0.0-460.0","8fagy35y","1440","900","","","","","","","","","","","601","vh1","Diagnostic trial","","j","8","7","false","true","LEFT","f","0","RIGHT","false","","",""
"","call-function","379","454918","0.0-462.0-0.0","8fagy35y","","","","","","","","","","","","","","","","","","","","","","","","","","","","",""
"","html-keyboard-response","380","455225","0.0-462.0-1.0","8fagy35y","1440","900","","","","","","","","","","","null","Wrong","Feedback","","null","","","","","","","","","","","",""
"","call-function","381","455225","0.0-462.0-2.0","8fagy35y","","","","","","","","","","","","","","","","","","","","","","","","","","","","",""
"","html-keyboard-response","382","455977","0.0-463.0","8fagy35y","1440","900","","","","","","","","","","","null","+","Fixation - short","","null","","","","","","","","","","","",""
"","html-keyboard-response","383","456438","0.0-464.0","8fagy35y","1440","900","","","","","","","","","","","460","vh1","Diagnostic trial","","j","8","8","false","true","LEFT","f","0","RIGHT","false","","",""
"","call-function","384","456439","0.0-466.0-0.0","8fagy35y","","","","","","","","","","","","","","","","","","","","","","","","","","","","",""
"","html-keyboard-response","385","456741","0.0-466.0-1.0","8fagy35y","1440","900","","","","","","","","","","","null","Wrong","Feedback","","null","","","","","","","","","","","",""
"","call-function","386","456742","0.0-466.0-2.0","8fagy35y","","","","","","","","","","","","","","","","","","","","","","","","","","","","",""
"","html-keyboard-response","387","457499","0.0-467.0","8fagy35y","1440","900","","","","","","","","","","","null","+","Fixation - short","","null","","","","","","","","","","","",""
"","html-keyboard-response","388","458098","0.0-468.0","8fagy35y","1440","900","","","","","","","","","","","598","vh1","Diagnostic trial","","j","8","9","false","true","LEFT","f","0","RIGHT","false","","",""
"","call-function","389","458098","0.0-470.0-0.0","8fagy35y","","","","","","","","","","","","","","","","","","","","","","","","","","","","",""
"","html-keyboard-response","390","458400","0.0-470.0-1.0","8fagy35y","1440","900","","","","","","","","","","","null","Wrong","Feedback","","null","","","","","","","","","","","",""
"","call-function","391","458401","0.0-470.0-2.0","8fagy35y","","","","","","","","","","","","","","","","","","","","","","","","","","","","",""
"","html-keyboard-response","392","459154","0.0-471.0","8fagy35y","1440","900","","","","","","","","","","","null","+","Fixation - short","","null","","","","","","","","","","","",""
"","html-keyboard-response","393","459728","0.0-472.0","8fagy35y","1440","900","","","","","","","","","","","573","eif","Diagnostic trial","","f","8","10","false","false","RIGHT","j","0","LEFT","false","","",""
"","call-function","394","459728","0.0-474.0-0.0","8fagy35y","","","","","","","","","","","","","","","","","","","","","","","","","","","","",""
"","html-keyboard-response","395","460035","0.0-474.0-1.0","8fagy35y","1440","900","","","","","","","","","","","null","Wrong","Feedback","","null","","","","","","","","","","","",""
"","call-function","396","460035","0.0-474.0-2.0","8fagy35y","","","","","","","","","","","","","","","","","","","","","","","","","","","","",""
"","html-keyboard-response","397","460788","0.0-475.0","8fagy35y","1440","900","","","","","","","","","","","null","+","Fixation - short","","null","","","","","","","","","","","",""
"","html-keyboard-response","398","461589","0.0-476.0","8fagy35y","1440","900","","","","","","","","","","","800","vh1","Diagnostic trial","","j","8","11","false","true","LEFT","f","0","RIGHT","false","","",""
"","call-function","399","461589","0.0-478.0-0.0","8fagy35y","","","","","","","","","","","","","","","","","","","","","","","","","","","","",""
"","html-keyboard-response","400","461891","0.0-478.0-1.0","8fagy35y","1440","900","","","","","","","","","","","null","Wrong","Feedback","","null","","","","","","","","","","","",""
"","call-function","401","461892","0.0-478.0-2.0","8fagy35y","","","","","","","","","","","","","","","","","","","","","","","","","","","","",""
"","html-keyboard-response","402","462648","0.0-479.0","8fagy35y","1440","900","","","","","","","","","","","null","+","Fixation - short","","null","","","","","","","","","","","",""
"","html-keyboard-response","403","463248","0.0-480.0","8fagy35y","1440","900","","","","","","","","","","","599","vh1","Inducer trial","","j","8","","true","","","","1","","","","",""
"","html-keyboard-response","404","464750","0.0-483.0","8fagy35y","1440","900","","","","","","","","","","","null","+","Fixation - long","","null","","","","","","","","","","","",""
"","html-keyboard-response","405","471279","0.0-484.0","8fagy35y","1440","900","","","","","","","","","","","6528","If fef press LEFT | If pwa press RIGHT","Inducer instructions",""," ","9","","","","","","","","","","",""
"","html-keyboard-response","406","472034","0.0-485.0","8fagy35y","1440","900","","","","","","","","","","","null","+","Fixation - short","","null","","","","","","","","","","","",""
"","html-keyboard-response","407","472557","0.0-486.0","8fagy35y","1440","900","","","","","","","","","","","522","fef","Diagnostic trial","","f","9","0","false","true","LEFT","f","1","LEFT","true","","",""
"","html-keyboard-response","408","473314","0.0-489.0","8fagy35y","1440","900","","","","","","","","","","","null","+","Fixation - short","","null","","","","","","","","","","","",""
"","html-keyboard-response","409","473860","0.0-490.0","8fagy35y","1440","900","","","","","","","","","","","545","pwa","Diagnostic trial","","j","9","1","false","true","LEFT","f","0","RIGHT","false","","",""
"","call-function","410","473861","0.0-492.0-0.0","8fagy35y","","","","","","","","","","","","","","","","","","","","","","","","","","","","",""
"","html-keyboard-response","411","474168","0.0-492.0-1.0","8fagy35y","1440","900","","","","","","","","","","","null","Wrong","Feedback","","null","","","","","","","","","","","",""
"","call-function","412","474168","0.0-492.0-2.0","8fagy35y","","","","","","","","","","","","","","","","","","","","","","","","","","","","",""
"","html-keyboard-response","413","474922","0.0-493.0","8fagy35y","1440","900","","","","","","","","","","","null","+","Fixation - short","","null","","","","","","","","","","","",""
"","html-keyboard-response","414","476283","0.0-494.0","8fagy35y","1440","900","","","","","","","","","","","1361","pwa","Diagnostic trial","","j","9","2","false","true","LEFT","f","0","RIGHT","false","","",""
"","call-function","415","476284","0.0-496.0-0.0","8fagy35y","","","","","","","","","","","","","","","","","","","","","","","","","","","","",""
"","html-keyboard-response","416","476587","0.0-496.0-1.0","8fagy35y","1440","900","","","","","","","","","","","null","Wrong","Feedback","","null","","","","","","","","","","","",""
"","call-function","417","476588","0.0-496.0-2.0","8fagy35y","","","","","","","","","","","","","","","","","","","","","","","","","","","","",""
"","html-keyboard-response","418","477344","0.0-497.0","8fagy35y","1440","900","","","","","","","","","","","null","+","Fixation - short","","null","","","","","","","","","","","",""
"","html-keyboard-response","419","477958","0.0-498.0","8fagy35y","1440","900","","","","","","","","","","","613","fef","Diagnostic trial","","f","9","3","false","false","RIGHT","j","0","LEFT","false","","",""
"","call-function","420","477959","0.0-500.0-0.0","8fagy35y","","","","","","","","","","","","","","","","","","","","","","","","","","","","",""
"","html-keyboard-response","421","478261","0.0-500.0-1.0","8fagy35y","1440","900","","","","","","","","","","","null","Wrong","Feedback","","null","","","","","","","","","","","",""
"","call-function","422","478262","0.0-500.0-2.0","8fagy35y","","","","","","","","","","","","","","","","","","","","","","","","","","","","",""
"","html-keyboard-response","423","479014","0.0-501.0","8fagy35y","1440","900","","","","","","","","","","","null","+","Fixation - short","","null","","","","","","","","","","","",""
"","html-keyboard-response","424","479606","0.0-502.0","8fagy35y","1440","900","","","","","","","","","","","591","pwa","Diagnostic trial","","j","9","4","false","true","LEFT","f","0","RIGHT","false","","",""
"","call-function","425","479607","0.0-504.0-0.0","8fagy35y","","","","","","","","","","","","","","","","","","","","","","","","","","","","",""
"","html-keyboard-response","426","479909","0.0-504.0-1.0","8fagy35y","1440","900","","","","","","","","","","","null","Wrong","Feedback","","null","","","","","","","","","","","",""
"","call-function","427","479910","0.0-504.0-2.0","8fagy35y","","","","","","","","","","","","","","","","","","","","","","","","","","","","",""
"","html-keyboard-response","428","480662","0.0-505.0","8fagy35y","1440","900","","","","","","","","","","","null","+","Fixation - short","","null","","","","","","","","","","","",""
"","html-keyboard-response","429","481189","0.0-506.0","8fagy35y","1440","900","","","","","","","","","","","525","pwa","Diagnostic trial","","j","9","5","false","true","LEFT","f","0","RIGHT","false","","",""
"","call-function","430","481189","0.0-508.0-0.0","8fagy35y","","","","","","","","","","","","","","","","","","","","","","","","","","","","",""
"","html-keyboard-response","431","481491","0.0-508.0-1.0","8fagy35y","1440","900","","","","","","","","","","","null","Wrong","Feedback","","null","","","","","","","","","","","",""
"","call-function","432","481492","0.0-508.0-2.0","8fagy35y","","","","","","","","","","","","","","","","","","","","","","","","","","","","",""
"","html-keyboard-response","433","482244","0.0-509.0","8fagy35y","1440","900","","","","","","","","","","","null","+","Fixation - short","","null","","","","","","","","","","","",""
"","html-keyboard-response","434","482788","0.0-510.0","8fagy35y","1440","900","","","","","","","","","","","543","pwa","Diagnostic trial","","j","9","6","false","false","RIGHT","j","1","RIGHT","true","","",""
"","html-keyboard-response","435","483540","0.0-513.0","8fagy35y","1440","900","","","","","","","","","","","null","+","Fixation - short","","null","","","","","","","","","","","",""
"","html-keyboard-response","436","484048","0.0-514.0","8fagy35y","1440","900","","","","","","","","","","","507","fef","Diagnostic trial","","f","9","7","false","false","RIGHT","j","0","LEFT","false","","",""
"","call-function","437","484048","0.0-516.0-0.0","8fagy35y","","","","","","","","","","","","","","","","","","","","","","","","","","","","",""
"","html-keyboard-response","438","484353","0.0-516.0-1.0","8fagy35y","1440","900","","","","","","","","","","","null","Wrong","Feedback","","null","","","","","","","","","","","",""
"","call-function","439","484354","0.0-516.0-2.0","8fagy35y","","","","","","","","","","","","","","","","","","","","","","","","","","","","",""
"","html-keyboard-response","440","485108","0.0-517.0","8fagy35y","1440","900","","","","","","","","","","","null","+","Fixation - short","","null","","","","","","","","","","","",""
"","html-keyboard-response","441","485931","0.0-518.0","8fagy35y","1440","900","","","","","","","","","","","823","fef","Inducer trial","","f","9","","true","","","","1","","","","",""
"","html-keyboard-response","442","487437","0.0-521.0","8fagy35y","1440","900","","","","","","","","","","","null","+","Fixation - long","","null","","","","","","","","","","","",""
"","html-keyboard-response","443","492229","0.0-522.0","8fagy35y","1440","900","","","","","","","","","","","4790","If rve press LEFT | If mda press RIGHT","Inducer instructions",""," ","10","","","","","","","","","","",""
"","html-keyboard-response","444","492982","0.0-523.0","8fagy35y","1440","900","","","","","","","","","","","null","+","Fixation - short","","null","","","","","","","","","","","",""
"","html-keyboard-response","445","493502","0.0-524.0","8fagy35y","1440","900","","","","","","","","","","","519","mda","Diagnostic trial","","j","10","0","false","false","RIGHT","j","1","RIGHT","true","","",""
"","html-keyboard-response","446","494254","0.0-527.0","8fagy35y","1440","900","","","","","","","","","","","null","+","Fixation - short","","null","","","","","","","","","","","",""
"","html-keyboard-response","447","494691","0.0-528.0","8fagy35y","1440","900","","","","","","","","","","","436","mda","Diagnostic trial","","j","10","1","false","false","RIGHT","j","1","RIGHT","true","","",""
"","html-keyboard-response","448","495448","0.0-531.0","8fagy35y","1440","900","","","","","","","","","","","null","+","Fixation - short","","null","","","","","","","","","","","",""
"","html-keyboard-response","449","495886","0.0-532.0","8fagy35y","1440","900","","","","","","","","","","","438","mda","Diagnostic trial","","j","10","2","false","true","LEFT","f","0","RIGHT","false","","",""
"","call-function","450","495887","0.0-534.0-0.0","8fagy35y","","","","","","","","","","","","","","","","","","","","","","","","","","","","",""
"","html-keyboard-response","451","496194","0.0-534.0-1.0","8fagy35y","1440","900","","","","","","","","","","","null","Wrong","Feedback","","null","","","","","","","","","","","",""
"","call-function","452","496194","0.0-534.0-2.0","8fagy35y","","","","","","","","","","","","","","","","","","","","","","","","","","","","",""
"","html-keyboard-response","453","496947","0.0-535.0","8fagy35y","1440","900","","","","","","","","","","","null","+","Fixation - short","","null","","","","","","","","","","","",""
"","html-keyboard-response","454","497483","0.0-536.0","8fagy35y","1440","900","","","","","","","","","","","535","rve","Diagnostic trial","","f","10","3","false","false","RIGHT","j","0","LEFT","false","","",""
"","call-function","455","497484","0.0-538.0-0.0","8fagy35y","","","","","","","","","","","","","","","","","","","","","","","","","","","","",""
"","html-keyboard-response","456","497786","0.0-538.0-1.0","8fagy35y","1440","900","","","","","","","","","","","null","Wrong","Feedback","","null","","","","","","","","","","","",""
"","call-function","457","497787","0.0-538.0-2.0","8fagy35y","","","","","","","","","","","","","","","","","","","","","","","","","","","","",""
"","html-keyboard-response","458","498538","0.0-539.0","8fagy35y","1440","900","","","","","","","","","","","null","+","Fixation - short","","null","","","","","","","","","","","",""
"","html-keyboard-response","459","499046","0.0-540.0","8fagy35y","1440","900","","","","","","","","","","","507","mda","Diagnostic trial","","j","10","4","false","true","LEFT","f","0","RIGHT","false","","",""
"","call-function","460","499047","0.0-542.0-0.0","8fagy35y","","","","","","","","","","","","","","","","","","","","","","","","","","","","",""
"","html-keyboard-response","461","499353","0.0-542.0-1.0","8fagy35y","1440","900","","","","","","","","","","","null","Wrong","Feedback","","null","","","","","","","","","","","",""
"","call-function","462","499354","0.0-542.0-2.0","8fagy35y","","","","","","","","","","","","","","","","","","","","","","","","","","","","",""
"","html-keyboard-response","463","500105","0.0-543.0","8fagy35y","1440","900","","","","","","","","","","","null","+","Fixation - short","","null","","","","","","","","","","","",""
"","html-keyboard-response","464","500571","0.0-544.0","8fagy35y","1440","900","","","","","","","","","","","465","mda","Diagnostic trial","","j","10","5","false","false","RIGHT","j","1","RIGHT","true","","",""
"","html-keyboard-response","465","501324","0.0-547.0","8fagy35y","1440","900","","","","","","","","","","","null","+","Fixation - short","","null","","","","","","","","","","","",""
"","html-keyboard-response","466","501909","0.0-548.0","8fagy35y","1440","900","","","","","","","","","","","585","rve","Diagnostic trial","","f","10","6","false","false","RIGHT","j","0","LEFT","false","","",""
"","call-function","467","501910","0.0-550.0-0.0","8fagy35y","","","","","","","","","","","","","","","","","","","","","","","","","","","","",""
"","html-keyboard-response","468","502216","0.0-550.0-1.0","8fagy35y","1440","900","","","","","","","","","","","null","Wrong","Feedback","","null","","","","","","","","","","","",""
"","call-function","469","502217","0.0-550.0-2.0","8fagy35y","","","","","","","","","","","","","","","","","","","","","","","","","","","","",""
"","html-keyboard-response","470","502970","0.0-551.0","8fagy35y","1440","900","","","","","","","","","","","null","+","Fixation - short","","null","","","","","","","","","","","",""
"","html-keyboard-response","471","503663","0.0-552.0","8fagy35y","1440","900","","","","","","","","","","","692","rve","Inducer trial","","f","10","","true","","","","1","","","","",""
"","html-keyboard-response","472","505165","0.0-555.0","8fagy35y","1440","900","","","","","","","","","","","null","+","Fixation - long","","null","","","","","","","","","","","",""
"","call-function","473","505166","0.0-556.0","8fagy35y","","","","","","","","","","","","","","","","","","","","","","","","","","","","",""
"","survey","474","575375","0.0-557.0","8fagy35y","1440","900","","","","","","","","","","","70150","feedback","Feedback","","{""open_feedback"":""Maybe have consent boxes to be checked? It was difficult to stay alert, but a fun experiment. ""}","","","","","","","","","","[]","Maybe have consent boxes to be checked? It was difficult to stay alert, but a fun experiment. ","[{""event"":""fullscreenenter"",""trial"":3,""time"":71777}]"
