"value","trial_type","trial_index","time_elapsed","internal_node_id","id","width","height","webaudio","browser","browser_version","mobile","os","fullscreen","vsync_rate","webcam","microphone","view_history","rt","stimulus","trial_info","page_index1","page_index2","page_index3","success","response","inducer_run","diagnostic_run","inducer_trial","italic","correct_inducer_response_side","correct_diag_response_side","correct_response_key","correct_response","congruent","accuracy","gender","age","distraction","distraction_feedback","motivation","motivation_feedback","open_feedback"
"","call-function","0","1","0.0-0.0","670lfbkv","","","","","","","","","","","","","","","","","","","","","","","","","","","","","","","","","","","","",""
"","browser-check","1","1004","0.0-1.0","670lfbkv","894","956","true","chrome","118.0.0","false","Windows 10","true","60.67","true","true","","","","","","","","","","","","","","","","","","","","","","","","","",""
"","instructions","2","4886","0.0-2.0","670lfbkv","","","","","","","","","","","","[{""page_index"":0,""viewing_time"":824},{""page_index"":1,""viewing_time"":1169},{""page_index"":2,""viewing_time"":1887}]","3881","The experiment and consent","The experiment and consent","824","1169","1887","","","","","","","","","","","","","","","","","","",""
"","fullscreen","3","7194","0.0-3.0","670lfbkv","894","1092","","","","","","","","","","","1292","","technicals","","","","true","","","","","","","","","","","","","","","","","",""
"","instructions","4","10588","0.0-4.0","670lfbkv","894","1092","","","","","","","","","","[{""page_index"":0,""viewing_time"":1702},{""page_index"":1,""viewing_time"":1690}]","3392","Instructions","Final experiment explanation","1702","1690","","","","","","","","","","","","","","","","","","","",""
"","html-keyboard-response","5","14223","0.0-5.0","670lfbkv","894","1092","","","","","","","","","","","2129","If italic press RIGHT | If upright press LEFT","Diagnostic instructions","","","",""," ","","","","","","","","","","","","","","","","",""
"","html-keyboard-response","6","20567","0.0-6.0","670lfbkv","894","1092","","","","","","","","","","","6342","If tne press RIGHT | If sbk press LEFT","Inducer instructions","","","",""," ","1","","","","","","","","","","","","","","","",""
"","html-keyboard-response","7","21321","0.0-7.0","670lfbkv","894","1092","","","","","","","","","","","null","+","Fixation - short","","","","","null","","","","","","","","","","","","","","","","",""
"","html-keyboard-response","8","22258","0.0-8.0","670lfbkv","894","1092","","","","","","","","","","","935","tne","Diagnostic trial","","","","","f","1","1","false","false","RIGHT","LEFT","f","true","false","","","","","","","",""
"","html-keyboard-response","9","23013","0.0-11.0","670lfbkv","894","1092","","","","","","","","","","","null","+","Fixation - short","","","","","null","","","","","","","","","","","","","","","","",""
"","html-keyboard-response","10","23608","0.0-12.0","670lfbkv","894","1092","","","","","","","","","","","593","tne","Diagnostic trial","","","","","j","1","2","false","true","RIGHT","RIGHT","j","true","true","","","","","","","",""
"","html-keyboard-response","11","24366","0.0-15.0","670lfbkv","894","1092","","","","","","","","","","","null","+","Fixation - short","","","","","null","","","","","","","","","","","","","","","","",""
"","html-keyboard-response","12","24799","0.0-16.0","670lfbkv","894","1092","","","","","","","","","","","433","tne","Diagnostic trial","","","","","j","1","3","false","true","RIGHT","RIGHT","j","true","true","","","","","","","",""
"","html-keyboard-response","13","25564","0.0-19.0","670lfbkv","894","1092","","","","","","","","","","","null","+","Fixation - short","","","","","null","","","","","","","","","","","","","","","","",""
"","html-keyboard-response","14","25977","0.0-20.0","670lfbkv","894","1092","","","","","","","","","","","412","tne","Diagnostic trial","","","","","j","1","4","false","true","RIGHT","RIGHT","j","true","true","","","","","","","",""
"","html-keyboard-response","15","26738","0.0-23.0","670lfbkv","894","1092","","","","","","","","","","","null","+","Fixation - short","","","","","null","","","","","","","","","","","","","","","","",""
"","html-keyboard-response","16","27322","0.0-24.0","670lfbkv","894","1092","","","","","","","","","","","584","sbk","Diagnostic trial","","","","","f","1","5","false","false","LEFT","LEFT","f","true","true","","","","","","","",""
"","html-keyboard-response","17","28086","0.0-27.0","670lfbkv","894","1092","","","","","","","","","","","null","+","Fixation - short","","","","","null","","","","","","","","","","","","","","","","",""
"","html-keyboard-response","18","28700","0.0-28.0","670lfbkv","894","1092","","","","","","","","","","","613","sbk","Diagnostic trial","","","","","f","1","6","false","false","LEFT","LEFT","f","true","true","","","","","","","",""
"","html-keyboard-response","19","29458","0.0-31.0","670lfbkv","894","1092","","","","","","","","","","","null","+","Fixation - short","","","","","null","","","","","","","","","","","","","","","","",""
"","html-keyboard-response","20","30496","0.0-32.0","670lfbkv","894","1092","","","","","","","","","","","1037","tne","Diagnostic trial","","","","","f","1","7","false","false","RIGHT","LEFT","f","true","false","","","","","","","",""
"","html-keyboard-response","21","31250","0.0-35.0","670lfbkv","894","1092","","","","","","","","","","","null","+","Fixation - short","","","","","null","","","","","","","","","","","","","","","","",""
"","html-keyboard-response","22","31738","0.0-36.0","670lfbkv","894","1092","","","","","","","","","","","487","tne","Diagnostic trial","","","","","j","1","8","false","true","RIGHT","RIGHT","j","true","true","","","","","","","",""
"","html-keyboard-response","23","32491","0.0-39.0","670lfbkv","894","1092","","","","","","","","","","","null","+","Fixation - short","","","","","null","","","","","","","","","","","","","","","","",""
"","html-keyboard-response","24","33175","0.0-40.0","670lfbkv","894","1092","","","","","","","","","","","684","tne","Diagnostic trial","","","","","f","1","9","false","false","RIGHT","LEFT","f","true","false","","","","","","","",""
"","html-keyboard-response","25","33941","0.0-43.0","670lfbkv","894","1092","","","","","","","","","","","null","+","Fixation - short","","","","","null","","","","","","","","","","","","","","","","",""
"","html-keyboard-response","26","34506","0.0-44.0","670lfbkv","894","1092","","","","","","","","","","","564","tne","Diagnostic trial","","","","","f","1","10","false","false","RIGHT","LEFT","f","true","false","","","","","","","",""
"","html-keyboard-response","27","35263","0.0-47.0","670lfbkv","894","1092","","","","","","","","","","","null","+","Fixation - short","","","","","null","","","","","","","","","","","","","","","","",""
"","html-keyboard-response","28","35724","0.0-48.0","670lfbkv","894","1092","","","","","","","","","","","461","tne","Diagnostic trial","","","","","f","1","11","false","false","RIGHT","LEFT","f","true","false","","","","","","","",""
"","html-keyboard-response","29","36483","0.0-51.0","670lfbkv","894","1092","","","","","","","","","","","null","+","Fixation - short","","","","","null","","","","","","","","","","","","","","","","",""
"","html-keyboard-response","30","37078","0.0-52.0","670lfbkv","894","1092","","","","","","","","","","","594","tne","Diagnostic trial","","","","","f","1","12","false","false","RIGHT","LEFT","f","true","false","","","","","","","",""
"","html-keyboard-response","31","37839","0.0-55.0","670lfbkv","894","1092","","","","","","","","","","","null","+","Fixation - short","","","","","null","","","","","","","","","","","","","","","","",""
"","html-keyboard-response","32","38540","0.0-56.0","670lfbkv","894","1092","","","","","","","","","","","700","sbk","Diagnostic trial","","","","","f","1","13","false","false","LEFT","LEFT","f","true","true","","","","","","","",""
"","html-keyboard-response","33","39296","0.0-59.0","670lfbkv","894","1092","","","","","","","","","","","null","+","Fixation - short","","","","","null","","","","","","","","","","","","","","","","",""
"","html-keyboard-response","34","39805","0.0-60.0","670lfbkv","894","1092","","","","","","","","","","","507","sbk","Diagnostic trial","","","","","f","1","14","false","true","LEFT","RIGHT","j","false","false","","","","","","","",""
"","call-function","35","39807","0.0-62.0-0.0","670lfbkv","","","","","","","","","","","","","","","","","","","","","","","","","","","","","","","","","","","","",""
"","html-keyboard-response","36","40108","0.0-62.0-1.0","670lfbkv","894","1092","","","","","","","","","","","null","Wrong","Feedback","","","","","null","","","","","","","","","","","","","","","","",""
"","call-function","37","40109","0.0-62.0-2.0","670lfbkv","","","","","","","","","","","","","","","","","","","","","","","","","","","","","","","","","","","","",""
"","html-keyboard-response","38","40872","0.0-63.0","670lfbkv","894","1092","","","","","","","","","","","null","+","Fixation - short","","","","","null","","","","","","","","","","","","","","","","",""
"","html-keyboard-response","39","42001","0.0-64.0","670lfbkv","894","1092","","","","","","","","","","","1130","tne","Diagnostic trial","","","","","f","1","15","false","false","RIGHT","LEFT","f","true","false","","","","","","","",""
"","html-keyboard-response","40","42758","0.0-67.0","670lfbkv","894","1092","","","","","","","","","","","null","+","Fixation - short","","","","","null","","","","","","","","","","","","","","","","",""
"","html-keyboard-response","41","43303","0.0-68.0","670lfbkv","894","1092","","","","","","","","","","","545","sbk","Diagnostic trial","","","","","f","1","16","false","false","LEFT","LEFT","f","true","true","","","","","","","",""
"","html-keyboard-response","42","44067","0.0-71.0","670lfbkv","894","1092","","","","","","","","","","","null","+","Fixation - short","","","","","null","","","","","","","","","","","","","","","","",""
"","html-keyboard-response","43","44589","0.0-72.0","670lfbkv","894","1092","","","","","","","","","","","520","sbk","Inducer trial","","","","","j","1","","true","","LEFT","","f","false","","","","","","","","",""
"","call-function","44","44590","0.0-74.0-0.0","670lfbkv","","","","","","","","","","","","","","","","","","","","","","","","","","","","","","","","","","","","",""
"","html-keyboard-response","45","44895","0.0-74.0-1.0","670lfbkv","894","1092","","","","","","","","","","","null","Wrong","Feedback","","","","","null","","","","","","","","","","","","","","","","",""
"","call-function","46","44895","0.0-74.0-2.0","670lfbkv","","","","","","","","","","","","","","","","","","","","","","","","","","","","","","","","","","","","",""
"","html-keyboard-response","47","46403","0.0-75.0","670lfbkv","894","1092","","","","","","","","","","","null","+","Fixation - long","","","","","null","","","","","","","","","","","","","","","","",""
"","html-keyboard-response","48","57829","0.0-76.0","670lfbkv","894","1092","","","","","","","","","","","11426","If ubr press RIGHT | If iec press LEFT","Inducer instructions","","","",""," ","2","","","","","","","","","","","","","","","",""
"","html-keyboard-response","49","58594","0.0-77.0","670lfbkv","894","1092","","","","","","","","","","","null","+","Fixation - short","","","","","null","","","","","","","","","","","","","","","","",""
"","html-keyboard-response","50","59859","0.0-78.0","670lfbkv","894","1092","","","","","","","","","","","1265","ubr","Diagnostic trial","","","","","j","2","1","false","true","RIGHT","RIGHT","j","true","true","","","","","","","",""
"","html-keyboard-response","51","60621","0.0-81.0","670lfbkv","894","1092","","","","","","","","","","","null","+","Fixation - short","","","","","null","","","","","","","","","","","","","","","","",""
"","html-keyboard-response","52","61216","0.0-82.0","670lfbkv","894","1092","","","","","","","","","","","594","ubr","Diagnostic trial","","","","","f","2","2","false","false","RIGHT","LEFT","f","true","false","","","","","","","",""
"","html-keyboard-response","53","61976","0.0-85.0","670lfbkv","894","1092","","","","","","","","","","","null","+","Fixation - short","","","","","null","","","","","","","","","","","","","","","","",""
"","html-keyboard-response","54","62790","0.0-86.0","670lfbkv","894","1092","","","","","","","","","","","814","ubr","Diagnostic trial","","","","","j","2","3","false","true","RIGHT","RIGHT","j","true","true","","","","","","","",""
"","html-keyboard-response","55","63549","0.0-89.0","670lfbkv","894","1092","","","","","","","","","","","null","+","Fixation - short","","","","","null","","","","","","","","","","","","","","","","",""
"","html-keyboard-response","56","64702","0.0-90.0","670lfbkv","894","1092","","","","","","","","","","","1152","iec","Diagnostic trial","","","","","j","2","4","false","true","LEFT","RIGHT","j","true","false","","","","","","","",""
"","html-keyboard-response","57","65462","0.0-93.0","670lfbkv","894","1092","","","","","","","","","","","null","+","Fixation - short","","","","","null","","","","","","","","","","","","","","","","",""
"","html-keyboard-response","58","65953","0.0-94.0","670lfbkv","894","1092","","","","","","","","","","","490","iec","Diagnostic trial","","","","","j","2","5","false","true","LEFT","RIGHT","j","true","false","","","","","","","",""
"","html-keyboard-response","59","66707","0.0-97.0","670lfbkv","894","1092","","","","","","","","","","","null","+","Fixation - short","","","","","null","","","","","","","","","","","","","","","","",""
"","html-keyboard-response","60","67403","0.0-98.0","670lfbkv","894","1092","","","","","","","","","","","696","ubr","Diagnostic trial","","","","","f","2","6","false","false","RIGHT","LEFT","f","true","false","","","","","","","",""
"","html-keyboard-response","61","68160","0.0-101.0","670lfbkv","894","1092","","","","","","","","","","","null","+","Fixation - short","","","","","null","","","","","","","","","","","","","","","","",""
"","html-keyboard-response","62","69101","0.0-102.0","670lfbkv","894","1092","","","","","","","","","","","939","iec","Diagnostic trial","","","","","j","2","7","false","true","LEFT","RIGHT","j","true","false","","","","","","","",""
"","html-keyboard-response","63","69861","0.0-105.0","670lfbkv","894","1092","","","","","","","","","","","null","+","Fixation - short","","","","","null","","","","","","","","","","","","","","","","",""
"","html-keyboard-response","64","70550","0.0-106.0","670lfbkv","894","1092","","","","","","","","","","","688","ubr","Diagnostic trial","","","","","f","2","8","false","false","RIGHT","LEFT","f","true","false","","","","","","","",""
"","html-keyboard-response","65","71305","0.0-109.0","670lfbkv","894","1092","","","","","","","","","","","null","+","Fixation - short","","","","","null","","","","","","","","","","","","","","","","",""
"","html-keyboard-response","66","72268","0.0-110.0","670lfbkv","894","1092","","","","","","","","","","","963","ubr","Diagnostic trial","","","","","f","2","9","false","false","RIGHT","LEFT","f","true","false","","","","","","","",""
"","html-keyboard-response","67","73026","0.0-113.0","670lfbkv","894","1092","","","","","","","","","","","null","+","Fixation - short","","","","","null","","","","","","","","","","","","","","","","",""
"","html-keyboard-response","68","73607","0.0-114.0","670lfbkv","894","1092","","","","","","","","","","","580","ubr","Diagnostic trial","","","","","j","2","10","false","true","RIGHT","RIGHT","j","true","true","","","","","","","",""
"","html-keyboard-response","69","74365","0.0-117.0","670lfbkv","894","1092","","","","","","","","","","","null","+","Fixation - short","","","","","null","","","","","","","","","","","","","","","","",""
"","html-keyboard-response","70","74830","0.0-118.0","670lfbkv","894","1092","","","","","","","","","","","464","iec","Diagnostic trial","","","","","f","2","11","false","false","LEFT","LEFT","f","true","true","","","","","","","",""
"","html-keyboard-response","71","75584","0.0-121.0","670lfbkv","894","1092","","","","","","","","","","","null","+","Fixation - short","","","","","null","","","","","","","","","","","","","","","","",""
"","html-keyboard-response","72","76233","0.0-122.0","670lfbkv","894","1092","","","","","","","","","","","648","ubr","Diagnostic trial","","","","","f","2","12","false","false","RIGHT","LEFT","f","true","false","","","","","","","",""
"","html-keyboard-response","73","76998","0.0-125.0","670lfbkv","894","1092","","","","","","","","","","","null","+","Fixation - short","","","","","null","","","","","","","","","","","","","","","","",""
"","html-keyboard-response","74","78152","0.0-126.0","670lfbkv","894","1092","","","","","","","","","","","1153","ubr","Inducer trial","","","","","f","2","","true","","RIGHT","","j","false","","","","","","","","",""
"","call-function","75","78154","0.0-128.0-0.0","670lfbkv","","","","","","","","","","","","","","","","","","","","","","","","","","","","","","","","","","","","",""
"","html-keyboard-response","76","78458","0.0-128.0-1.0","670lfbkv","894","1092","","","","","","","","","","","null","Wrong","Feedback","","","","","null","","","","","","","","","","","","","","","","",""
"","call-function","77","78459","0.0-128.0-2.0","670lfbkv","","","","","","","","","","","","","","","","","","","","","","","","","","","","","","","","","","","","",""
"","html-keyboard-response","78","79968","0.0-129.0","670lfbkv","894","1092","","","","","","","","","","","null","+","Fixation - long","","","","","null","","","","","","","","","","","","","","","","",""
"","call-function","79","79969","0.0-130.0","670lfbkv","","","","","","","","","","","","","","","","","","","","","","","","","","","","","","","","","","","","",""
"","survey","80","95595","0.0-131.0","670lfbkv","894","1092","","","","","","","","","","","15530","gender-age-distraction-motivation-feedback","Demographics, motivation, distraction and feedback","","","","","{""P0_Q0"":null,""gender"":""Other"",""age"":14,""P1_Q0"":null,""distraction"":4,""distraction_feedback"":"""",""P2_Q0"":null,""motivation"":4,""motivation_feedback"":"""",""open_feedback"":""dwa""}","","","","","","","","","","[]","Other","14","4","","4","","dwa"
