"value","trial_type","trial_index","time_elapsed","internal_node_id","id","width","height","webaudio","browser","browser_version","mobile","os","fullscreen","vsync_rate","webcam","microphone","view_history","rt","stimulus","trial_info","page_index1","page_index2","page_index3","success","response","inducer_run","diagnostic_run","inducer_trial","italic","correct_diag_response_side","correct_response_key","correct","correct_response","correct_inducer_response_side","congruent","inducer_correct_response","slider_start","accuracy","gender","age","motivation_feedback","distraction","distraction_feedback","open_feedback"
"","call-function","0","1","0.0-0.0","6vxj24fa","","","","","","","","","","","","","","","","","","","","","","","","","","","","","","","","","","","","","","",""
"","browser-check","1","264","0.0-1.0","6vxj24fa","1659","945","true","edge-chromium","119.0.0","false","Windows 10","true","240.96","true","true","","","","","","","","","","","","","","","","","","","","","","","","","","","",""
"","instructions","2","202771","0.0-2.0","6vxj24fa","","","","","","","","","","","","[{""page_index"":0,""viewing_time"":18570},{""page_index"":1,""viewing_time"":173089},{""page_index"":2,""viewing_time"":10846}]","202505","The experiment and consent","The experiment and consent","18570","173089","10846","","","","","","","","","","","","","","","","","","","","",""
"","fullscreen","3","208489","0.0-3.0","6vxj24fa","1707","1067","","","","","","","","","","","4715","","technicals","","","","true","","","","","","","","","","","","","","","","","","","",""
"","instructions","4","299294","0.0-4.0","6vxj24fa","1707","1067","","","","","","","","","","[{""page_index"":0,""viewing_time"":9469},{""page_index"":1,""viewing_time"":81335}]","90804","Instructions","Final experiment explanation","9469","81335","","","","","","","","","","","","","","","","","","","","","",""
"","html-keyboard-response","5","320799","0.0-5.0","6vxj24fa","1707","1067","","","","","","","","","","","null","If italic press LEFT | If upright press RIGHT","Diagnostic instructions","","","","","null","","","","","","","","","","","","","","","","","","",""
"","html-keyboard-response","6","322800","0.0-6.0","6vxj24fa","1707","1067","","","","","","","","","","","null","dog","practice","","","","","null","0","0","false","false","RIGHT","j","null","","","","","","","","","","","",""
"","call-function","7","322801","0.0-7.0-0.0","6vxj24fa","","","","","","","","","","","","","","","","","","","","","","","","","","","","","","","","","","","","","","",""
"","html-keyboard-response","8","323103","0.0-7.0-1.0","6vxj24fa","1707","1067","","","","","","","","","","","null","Slow","Feedback","","","","","null","","","","","","","","","","","","","","","","","","",""
"","call-function","9","323103","0.0-7.0-2.0","6vxj24fa","","","","","","","","","","","","","","","","","","","","","","","","","","","","","","","","","","","","","","",""
"","html-keyboard-response","10","323855","0.0-9.0","6vxj24fa","1707","1067","","","","","","","","","","","null","+","Fixation - short","","","","","null","","","","","","","","","","","","","","","","","","",""
"","html-keyboard-response","11","324872","0.0-10.0","6vxj24fa","1707","1067","","","","","","","","","","","1016","dog","practice","","","","","f","0","1","false","true","LEFT","f","","true","","","","","","","","","","",""
"","html-keyboard-response","12","325625","0.0-13.0","6vxj24fa","1707","1067","","","","","","","","","","","null","+","Fixation - short","","","","","null","","","","","","","","","","","","","","","","","","",""
"","html-keyboard-response","13","326447","0.0-14.0","6vxj24fa","1707","1067","","","","","","","","","","","822","cat","practice","","","","","f","0","2","false","true","LEFT","f","","true","","","","","","","","","","",""
"","html-keyboard-response","14","327199","0.0-17.0","6vxj24fa","1707","1067","","","","","","","","","","","null","+","Fixation - short","","","","","null","","","","","","","","","","","","","","","","","","",""
"","html-keyboard-response","15","328039","0.0-18.0","6vxj24fa","1707","1067","","","","","","","","","","","839","cat","practice","","","","","f","0","3","false","true","LEFT","f","","true","","","","","","","","","","",""
"","html-keyboard-response","16","328792","0.0-21.0","6vxj24fa","1707","1067","","","","","","","","","","","null","+","Fixation - short","","","","","null","","","","","","","","","","","","","","","","","","",""
"","html-keyboard-response","17","329464","0.0-22.0","6vxj24fa","1707","1067","","","","","","","","","","","671","cat","practice","","","","","f","0","4","false","true","LEFT","f","","true","","","","","","","","","","",""
"","html-keyboard-response","18","330216","0.0-25.0","6vxj24fa","1707","1067","","","","","","","","","","","null","+","Fixation - short","","","","","null","","","","","","","","","","","","","","","","","","",""
"","html-keyboard-response","19","331161","0.0-26.0","6vxj24fa","1707","1067","","","","","","","","","","","944","dog","practice","","","","","f","0","5","false","true","LEFT","f","","true","","","","","","","","","","",""
"","html-keyboard-response","20","331912","0.0-29.0","6vxj24fa","1707","1067","","","","","","","","","","","null","+","Fixation - short","","","","","null","","","","","","","","","","","","","","","","","","",""
"","html-keyboard-response","21","332833","0.0-30.0","6vxj24fa","1707","1067","","","","","","","","","","","920","dog","practice","","","","","j","0","6","false","false","RIGHT","j","","true","","","","","","","","","","",""
"","html-keyboard-response","22","333585","0.0-33.0","6vxj24fa","1707","1067","","","","","","","","","","","null","+","Fixation - short","","","","","null","","","","","","","","","","","","","","","","","","",""
"","html-keyboard-response","23","334411","0.0-34.0","6vxj24fa","1707","1067","","","","","","","","","","","826","dog","practice","","","","","j","0","7","false","false","RIGHT","j","","true","","","","","","","","","","",""
"","html-keyboard-response","24","335164","0.0-37.0","6vxj24fa","1707","1067","","","","","","","","","","","null","+","Fixation - short","","","","","null","","","","","","","","","","","","","","","","","","",""
"","html-keyboard-response","25","336088","0.0-38.0","6vxj24fa","1707","1067","","","","","","","","","","","923","dog","practice","","","","","f","0","8","false","true","LEFT","f","","true","","","","","","","","","","",""
"","html-keyboard-response","26","336840","0.0-41.0","6vxj24fa","1707","1067","","","","","","","","","","","null","+","Fixation - short","","","","","null","","","","","","","","","","","","","","","","","","",""
"","html-keyboard-response","27","337951","0.0-42.0","6vxj24fa","1707","1067","","","","","","","","","","","1111","cat","practice","","","","","j","0","9","false","false","RIGHT","j","","true","","","","","","","","","","",""
"","html-keyboard-response","28","338703","0.0-45.0","6vxj24fa","1707","1067","","","","","","","","","","","null","+","Fixation - short","","","","","null","","","","","","","","","","","","","","","","","","",""
"","html-keyboard-response","29","358705","0.0-46.0","6vxj24fa","1707","1067","","","","","","","","","","","null","If t53 press RIGHT | If k19 press LEFT","Inducer instructions","","","","","null","0","","","","","","","","","","","","","","","","","",""
"","html-keyboard-response","30","359458","0.0-47.0","6vxj24fa","1707","1067","","","","","","","","","","","null","+","Fixation - short","","","","","null","","","","","","","","","","","","","","","","","","",""
"","html-keyboard-response","31","360163","0.0-48.0","6vxj24fa","1707","1067","","","","","","","","","","","705","k19","Diagnostic trial","","","","","f","0","0","false","false","RIGHT","j","","false","LEFT","false","","","","","","","","",""
"","call-function","32","360165","0.0-50.0-0.0","6vxj24fa","","","","","","","","","","","","","","","","","","","","","","","","","","","","","","","","","","","","","","",""
"","html-keyboard-response","33","360466","0.0-50.0-1.0","6vxj24fa","1707","1067","","","","","","","","","","","null","Wrong","Feedback","","","","","null","","","","","","","","","","","","","","","","","","",""
"","call-function","34","360466","0.0-50.0-2.0","6vxj24fa","","","","","","","","","","","","","","","","","","","","","","","","","","","","","","","","","","","","","","",""
"","html-keyboard-response","35","361218","0.0-51.0","6vxj24fa","1707","1067","","","","","","","","","","","null","+","Fixation - short","","","","","null","","","","","","","","","","","","","","","","","","",""
"","html-keyboard-response","36","362811","0.0-52.0","6vxj24fa","1707","1067","","","","","","","","","","","1592","k19","Diagnostic trial","","","","","f","0","1","false","false","RIGHT","j","","false","LEFT","false","","","","","","","","",""
"","call-function","37","362811","0.0-54.0-0.0","6vxj24fa","","","","","","","","","","","","","","","","","","","","","","","","","","","","","","","","","","","","","","",""
"","html-keyboard-response","38","363113","0.0-54.0-1.0","6vxj24fa","1707","1067","","","","","","","","","","","null","Wrong","Feedback","","","","","null","","","","","","","","","","","","","","","","","","",""
"","call-function","39","363113","0.0-54.0-2.0","6vxj24fa","","","","","","","","","","","","","","","","","","","","","","","","","","","","","","","","","","","","","","",""
"","html-keyboard-response","40","363865","0.0-55.0","6vxj24fa","1707","1067","","","","","","","","","","","null","+","Fixation - short","","","","","null","","","","","","","","","","","","","","","","","","",""
"","html-keyboard-response","41","365868","0.0-56.0","6vxj24fa","1707","1067","","","","","","","","","","","null","k19","Diagnostic trial","","","","","null","0","2","false","true","LEFT","f","null","","LEFT","true","","","","","","","","",""
"","call-function","42","365868","0.0-57.0-0.0","6vxj24fa","","","","","","","","","","","","","","","","","","","","","","","","","","","","","","","","","","","","","","",""
"","html-keyboard-response","43","366169","0.0-57.0-1.0","6vxj24fa","1707","1067","","","","","","","","","","","null","Slow","Feedback","","","","","null","","","","","","","","","","","","","","","","","","",""
"","call-function","44","366170","0.0-57.0-2.0","6vxj24fa","","","","","","","","","","","","","","","","","","","","","","","","","","","","","","","","","","","","","","",""
"","html-keyboard-response","45","366922","0.0-59.0","6vxj24fa","1707","1067","","","","","","","","","","","null","+","Fixation - short","","","","","null","","","","","","","","","","","","","","","","","","",""
"","html-keyboard-response","46","367989","0.0-60.0","6vxj24fa","1707","1067","","","","","","","","","","","1067","t53","Diagnostic trial","","","","","j","0","3","false","false","RIGHT","j","","true","RIGHT","true","","","","","","","","",""
"","html-keyboard-response","47","368740","0.0-63.0","6vxj24fa","1707","1067","","","","","","","","","","","null","+","Fixation - short","","","","","null","","","","","","","","","","","","","","","","","","",""
"","html-keyboard-response","48","370208","0.0-64.0","6vxj24fa","1707","1067","","","","","","","","","","","1467","k19","Diagnostic trial","","","","","f","0","4","false","true","LEFT","f","","true","LEFT","true","","","","","","","","",""
"","html-keyboard-response","49","370960","0.0-67.0","6vxj24fa","1707","1067","","","","","","","","","","","null","+","Fixation - short","","","","","null","","","","","","","","","","","","","","","","","","",""
"","html-keyboard-response","50","371788","0.0-68.0","6vxj24fa","1707","1067","","","","","","","","","","","826","k19","Diagnostic trial","","","","","f","0","5","false","true","LEFT","f","","true","LEFT","true","","","","","","","","",""
"","html-keyboard-response","51","372540","0.0-71.0","6vxj24fa","1707","1067","","","","","","","","","","","null","+","Fixation - short","","","","","null","","","","","","","","","","","","","","","","","","",""
"","html-keyboard-response","52","373468","0.0-72.0","6vxj24fa","1707","1067","","","","","","","","","","","927","t53","Diagnostic trial","","","","","j","0","6","false","false","RIGHT","j","","true","RIGHT","true","","","","","","","","",""
"","html-keyboard-response","53","374220","0.0-75.0","6vxj24fa","1707","1067","","","","","","","","","","","null","+","Fixation - short","","","","","null","","","","","","","","","","","","","","","","","","",""
"","html-keyboard-response","54","375296","0.0-76.0","6vxj24fa","1707","1067","","","","","","","","","","","1075","k19","Diagnostic trial","","","","","f","0","7","false","true","LEFT","f","","true","LEFT","true","","","","","","","","",""
"","html-keyboard-response","55","376047","0.0-79.0","6vxj24fa","1707","1067","","","","","","","","","","","null","+","Fixation - short","","","","","null","","","","","","","","","","","","","","","","","","",""
"","html-keyboard-response","56","376996","0.0-80.0","6vxj24fa","1707","1067","","","","","","","","","","","948","k19","Diagnostic trial","","","","","j","0","8","false","false","RIGHT","j","","true","LEFT","false","","","","","","","","",""
"","html-keyboard-response","57","377747","0.0-83.0","6vxj24fa","1707","1067","","","","","","","","","","","null","+","Fixation - short","","","","","null","","","","","","","","","","","","","","","","","","",""
"","html-keyboard-response","58","378832","0.0-84.0","6vxj24fa","1707","1067","","","","","","","","","","","1084","t53","Diagnostic trial","","","","","j","0","9","false","false","RIGHT","j","","true","RIGHT","true","","","","","","","","",""
"","html-keyboard-response","59","379584","0.0-87.0","6vxj24fa","1707","1067","","","","","","","","","","","null","+","Fixation - short","","","","","null","","","","","","","","","","","","","","","","","","",""
"","html-keyboard-response","60","381585","0.0-88.0","6vxj24fa","1707","1067","","","","","","","","","","","null","k19","Inducer trial","","","","","null","0","","true","","","f","","","LEFT","","false","","","","","","","",""
"","call-function","61","381585","0.0-89.0-0.0","6vxj24fa","","","","","","","","","","","","","","","","","","","","","","","","","","","","","","","","","","","","","","",""
"","html-keyboard-response","62","381887","0.0-89.0-1.0","6vxj24fa","1707","1067","","","","","","","","","","","null","Slow","Feedback","","","","","null","","","","","","","","","","","","","","","","","","",""
"","call-function","63","381887","0.0-89.0-2.0","6vxj24fa","","","","","","","","","","","","","","","","","","","","","","","","","","","","","","","","","","","","","","",""
"","html-keyboard-response","64","383389","0.0-91.0","6vxj24fa","1707","1067","","","","","","","","","","","null","+","Fixation - long","","","","","null","","","","","","","","","","","","","","","","","","",""
"","html-keyboard-response","65","403390","0.0-92.0","6vxj24fa","1707","1067","","","","","","","","","","","null","If re8 press RIGHT | If i50 press LEFT","Inducer instructions","","","","","null","1","","","","","","","","","","","","","","","","","",""
"","html-keyboard-response","66","404143","0.0-93.0","6vxj24fa","1707","1067","","","","","","","","","","","null","+","Fixation - short","","","","","null","","","","","","","","","","","","","","","","","","",""
"","html-keyboard-response","67","405083","0.0-94.0","6vxj24fa","1707","1067","","","","","","","","","","","940","i50","Diagnostic trial","","","","","f","1","0","false","true","LEFT","f","","true","LEFT","true","","","","","","","","",""
"","html-keyboard-response","68","405835","0.0-97.0","6vxj24fa","1707","1067","","","","","","","","","","","null","+","Fixation - short","","","","","null","","","","","","","","","","","","","","","","","","",""
"","html-keyboard-response","69","406639","0.0-98.0","6vxj24fa","1707","1067","","","","","","","","","","","804","re8","Diagnostic trial","","","","","j","1","1","false","true","LEFT","f","","false","RIGHT","false","","","","","","","","",""
"","call-function","70","406640","0.0-100.0-0.0","6vxj24fa","","","","","","","","","","","","","","","","","","","","","","","","","","","","","","","","","","","","","","",""
"","html-keyboard-response","71","406942","0.0-100.0-1.0","6vxj24fa","1707","1067","","","","","","","","","","","null","Wrong","Feedback","","","","","null","","","","","","","","","","","","","","","","","","",""
"","call-function","72","406942","0.0-100.0-2.0","6vxj24fa","","","","","","","","","","","","","","","","","","","","","","","","","","","","","","","","","","","","","","",""
"","html-keyboard-response","73","407693","0.0-101.0","6vxj24fa","1707","1067","","","","","","","","","","","null","+","Fixation - short","","","","","null","","","","","","","","","","","","","","","","","","",""
"","html-keyboard-response","74","408640","0.0-102.0","6vxj24fa","1707","1067","","","","","","","","","","","946","i50","Diagnostic trial","","","","","f","1","2","false","true","LEFT","f","","true","LEFT","true","","","","","","","","",""
"","html-keyboard-response","75","409392","0.0-105.0","6vxj24fa","1707","1067","","","","","","","","","","","null","+","Fixation - short","","","","","null","","","","","","","","","","","","","","","","","","",""
"","html-keyboard-response","76","411013","0.0-106.0","6vxj24fa","1707","1067","","","","","","","","","","","1621","i50","Diagnostic trial","","","","","f","1","3","false","false","RIGHT","j","","false","LEFT","false","","","","","","","","",""
"","call-function","77","411014","0.0-108.0-0.0","6vxj24fa","","","","","","","","","","","","","","","","","","","","","","","","","","","","","","","","","","","","","","",""
"","html-keyboard-response","78","411315","0.0-108.0-1.0","6vxj24fa","1707","1067","","","","","","","","","","","null","Wrong","Feedback","","","","","null","","","","","","","","","","","","","","","","","","",""
"","call-function","79","411315","0.0-108.0-2.0","6vxj24fa","","","","","","","","","","","","","","","","","","","","","","","","","","","","","","","","","","","","","","",""
"","html-keyboard-response","80","412067","0.0-109.0","6vxj24fa","1707","1067","","","","","","","","","","","null","+","Fixation - short","","","","","null","","","","","","","","","","","","","","","","","","",""
"","html-keyboard-response","81","413012","0.0-110.0","6vxj24fa","1707","1067","","","","","","","","","","","944","i50","Diagnostic trial","","","","","f","1","4","false","true","LEFT","f","","true","LEFT","true","","","","","","","","",""
"","html-keyboard-response","82","413763","0.0-113.0","6vxj24fa","1707","1067","","","","","","","","","","","null","+","Fixation - short","","","","","null","","","","","","","","","","","","","","","","","","",""
"","html-keyboard-response","83","415119","0.0-114.0","6vxj24fa","1707","1067","","","","","","","","","","","1355","re8","Diagnostic trial","","","","","j","1","5","false","false","RIGHT","j","","true","RIGHT","true","","","","","","","","",""
"","html-keyboard-response","84","415871","0.0-117.0","6vxj24fa","1707","1067","","","","","","","","","","","null","+","Fixation - short","","","","","null","","","","","","","","","","","","","","","","","","",""
"","html-keyboard-response","85","416687","0.0-118.0","6vxj24fa","1707","1067","","","","","","","","","","","816","re8","Diagnostic trial","","","","","j","1","6","false","false","RIGHT","j","","true","RIGHT","true","","","","","","","","",""
"","html-keyboard-response","86","417440","0.0-121.0","6vxj24fa","1707","1067","","","","","","","","","","","null","+","Fixation - short","","","","","null","","","","","","","","","","","","","","","","","","",""
"","html-keyboard-response","87","418091","0.0-122.0","6vxj24fa","1707","1067","","","","","","","","","","","651","re8","Diagnostic trial","","","","","j","1","7","false","false","RIGHT","j","","true","RIGHT","true","","","","","","","","",""
"","html-keyboard-response","88","418843","0.0-125.0","6vxj24fa","1707","1067","","","","","","","","","","","null","+","Fixation - short","","","","","null","","","","","","","","","","","","","","","","","","",""
"","html-keyboard-response","89","420117","0.0-126.0","6vxj24fa","1707","1067","","","","","","","","","","","1273","re8","Diagnostic trial","","","","","f","1","8","false","true","LEFT","f","","true","RIGHT","false","","","","","","","","",""
"","html-keyboard-response","90","420868","0.0-129.0","6vxj24fa","1707","1067","","","","","","","","","","","null","+","Fixation - short","","","","","null","","","","","","","","","","","","","","","","","","",""
"","html-keyboard-response","91","421912","0.0-130.0","6vxj24fa","1707","1067","","","","","","","","","","","1043","re8","Diagnostic trial","","","","","j","1","9","false","false","RIGHT","j","","true","RIGHT","true","","","","","","","","",""
"","html-keyboard-response","92","422664","0.0-133.0","6vxj24fa","1707","1067","","","","","","","","","","","null","+","Fixation - short","","","","","null","","","","","","","","","","","","","","","","","","",""
"","html-keyboard-response","93","423835","0.0-134.0","6vxj24fa","1707","1067","","","","","","","","","","","1171","i50","Diagnostic trial","","","","","f","1","10","false","true","LEFT","f","","true","LEFT","true","","","","","","","","",""
"","html-keyboard-response","94","424587","0.0-137.0","6vxj24fa","1707","1067","","","","","","","","","","","null","+","Fixation - short","","","","","null","","","","","","","","","","","","","","","","","","",""
"","html-keyboard-response","95","425642","0.0-138.0","6vxj24fa","1707","1067","","","","","","","","","","","1055","i50","Diagnostic trial","","","","","f","1","11","false","true","LEFT","f","","true","LEFT","true","","","","","","","","",""
"","html-keyboard-response","96","426394","0.0-141.0","6vxj24fa","1707","1067","","","","","","","","","","","null","+","Fixation - short","","","","","null","","","","","","","","","","","","","","","","","","",""
"","html-keyboard-response","97","427509","0.0-142.0","6vxj24fa","1707","1067","","","","","","","","","","","1114","re8","Diagnostic trial","","","","","f","1","12","false","true","LEFT","f","","true","RIGHT","false","","","","","","","","",""
"","html-keyboard-response","98","428260","0.0-145.0","6vxj24fa","1707","1067","","","","","","","","","","","null","+","Fixation - short","","","","","null","","","","","","","","","","","","","","","","","","",""
"","html-keyboard-response","99","429155","0.0-146.0","6vxj24fa","1707","1067","","","","","","","","","","","894","i50","Diagnostic trial","","","","","f","1","13","false","true","LEFT","f","","true","LEFT","true","","","","","","","","",""
"","html-keyboard-response","100","429907","0.0-149.0","6vxj24fa","1707","1067","","","","","","","","","","","null","+","Fixation - short","","","","","null","","","","","","","","","","","","","","","","","","",""
"","html-keyboard-response","101","430824","0.0-150.0","6vxj24fa","1707","1067","","","","","","","","","","","916","re8","Diagnostic trial","","","","","f","1","14","false","true","LEFT","f","","true","RIGHT","false","","","","","","","","",""
"","html-keyboard-response","102","431576","0.0-153.0","6vxj24fa","1707","1067","","","","","","","","","","","null","+","Fixation - short","","","","","null","","","","","","","","","","","","","","","","","","",""
"","html-keyboard-response","103","432568","0.0-154.0","6vxj24fa","1707","1067","","","","","","","","","","","991","re8","Diagnostic trial","","","","","j","1","15","false","false","RIGHT","j","","true","RIGHT","true","","","","","","","","",""
"","html-keyboard-response","104","433320","0.0-157.0","6vxj24fa","1707","1067","","","","","","","","","","","null","+","Fixation - short","","","","","null","","","","","","","","","","","","","","","","","","",""
"","html-keyboard-response","105","434968","0.0-158.0","6vxj24fa","1707","1067","","","","","","","","","","","1647","i50","Inducer trial","","","","","f","1","","true","","","f","","","LEFT","","true","","","","","","","",""
"","html-keyboard-response","106","436470","0.0-161.0","6vxj24fa","1707","1067","","","","","","","","","","","null","+","Fixation - long","","","","","null","","","","","","","","","","","","","","","","","","",""
"","html-keyboard-response","107","456472","0.0-162.0","6vxj24fa","1707","1067","","","","","","","","","","","null","If ukt press LEFT | If wjb press RIGHT","Inducer instructions","","","","","null","2","","","","","","","","","","","","","","","","","",""
"","html-keyboard-response","108","457225","0.0-163.0","6vxj24fa","1707","1067","","","","","","","","","","","null","+","Fixation - short","","","","","null","","","","","","","","","","","","","","","","","","",""
"","html-keyboard-response","109","458092","0.0-164.0","6vxj24fa","1707","1067","","","","","","","","","","","866","wjb","Diagnostic trial","","","","","j","2","0","false","true","LEFT","f","","false","RIGHT","false","","","","","","","","",""
"","call-function","110","458092","0.0-166.0-0.0","6vxj24fa","","","","","","","","","","","","","","","","","","","","","","","","","","","","","","","","","","","","","","",""
"","html-keyboard-response","111","458394","0.0-166.0-1.0","6vxj24fa","1707","1067","","","","","","","","","","","null","Wrong","Feedback","","","","","null","","","","","","","","","","","","","","","","","","",""
"","call-function","112","458394","0.0-166.0-2.0","6vxj24fa","","","","","","","","","","","","","","","","","","","","","","","","","","","","","","","","","","","","","","",""
"","html-keyboard-response","113","459145","0.0-167.0","6vxj24fa","1707","1067","","","","","","","","","","","null","+","Fixation - short","","","","","null","","","","","","","","","","","","","","","","","","",""
"","html-keyboard-response","114","460722","0.0-168.0","6vxj24fa","1707","1067","","","","","","","","","","","1577","wjb","Diagnostic trial","","","","","f","2","1","false","false","RIGHT","j","","false","RIGHT","true","","","","","","","","",""
"","call-function","115","460723","0.0-170.0-0.0","6vxj24fa","","","","","","","","","","","","","","","","","","","","","","","","","","","","","","","","","","","","","","",""
"","html-keyboard-response","116","461024","0.0-170.0-1.0","6vxj24fa","1707","1067","","","","","","","","","","","null","Wrong","Feedback","","","","","null","","","","","","","","","","","","","","","","","","",""
"","call-function","117","461024","0.0-170.0-2.0","6vxj24fa","","","","","","","","","","","","","","","","","","","","","","","","","","","","","","","","","","","","","","",""
"","html-keyboard-response","118","461775","0.0-171.0","6vxj24fa","1707","1067","","","","","","","","","","","null","+","Fixation - short","","","","","null","","","","","","","","","","","","","","","","","","",""
"","html-keyboard-response","119","463322","0.0-172.0","6vxj24fa","1707","1067","","","","","","","","","","","1546","ukt","Diagnostic trial","","","","","f","2","2","false","false","RIGHT","j","","false","LEFT","false","","","","","","","","",""
"","call-function","120","463323","0.0-174.0-0.0","6vxj24fa","","","","","","","","","","","","","","","","","","","","","","","","","","","","","","","","","","","","","","",""
"","html-keyboard-response","121","463624","0.0-174.0-1.0","6vxj24fa","1707","1067","","","","","","","","","","","null","Wrong","Feedback","","","","","null","","","","","","","","","","","","","","","","","","",""
"","call-function","122","463625","0.0-174.0-2.0","6vxj24fa","","","","","","","","","","","","","","","","","","","","","","","","","","","","","","","","","","","","","","",""
"","html-keyboard-response","123","464376","0.0-175.0","6vxj24fa","1707","1067","","","","","","","","","","","null","+","Fixation - short","","","","","null","","","","","","","","","","","","","","","","","","",""
"","html-keyboard-response","124","465311","0.0-176.0","6vxj24fa","1707","1067","","","","","","","","","","","935","wjb","Diagnostic trial","","","","","f","2","3","false","true","LEFT","f","","true","RIGHT","false","","","","","","","","",""
"","html-keyboard-response","125","466064","0.0-179.0","6vxj24fa","1707","1067","","","","","","","","","","","null","+","Fixation - short","","","","","null","","","","","","","","","","","","","","","","","","",""
"","html-keyboard-response","126","467053","0.0-180.0","6vxj24fa","1707","1067","","","","","","","","","","","988","wjb","Diagnostic trial","","","","","f","2","4","false","false","RIGHT","j","","false","RIGHT","true","","","","","","","","",""
"","call-function","127","467054","0.0-182.0-0.0","6vxj24fa","","","","","","","","","","","","","","","","","","","","","","","","","","","","","","","","","","","","","","",""
"","html-keyboard-response","128","467355","0.0-182.0-1.0","6vxj24fa","1707","1067","","","","","","","","","","","null","Wrong","Feedback","","","","","null","","","","","","","","","","","","","","","","","","",""
"","call-function","129","467355","0.0-182.0-2.0","6vxj24fa","","","","","","","","","","","","","","","","","","","","","","","","","","","","","","","","","","","","","","",""
"","html-keyboard-response","130","468107","0.0-183.0","6vxj24fa","1707","1067","","","","","","","","","","","null","+","Fixation - short","","","","","null","","","","","","","","","","","","","","","","","","",""
"","html-keyboard-response","131","469452","0.0-184.0","6vxj24fa","1707","1067","","","","","","","","","","","1344","wjb","Diagnostic trial","","","","","j","2","5","false","false","RIGHT","j","","true","RIGHT","true","","","","","","","","",""
"","html-keyboard-response","132","470213","0.0-187.0","6vxj24fa","1707","1067","","","","","","","","","","","null","+","Fixation - short","","","","","null","","","","","","","","","","","","","","","","","","",""
"","html-keyboard-response","133","471484","0.0-188.0","6vxj24fa","1707","1067","","","","","","","","","","","1270","ukt","Diagnostic trial","","","","","j","2","6","false","false","RIGHT","j","","true","LEFT","false","","","","","","","","",""
"","html-keyboard-response","134","472236","0.0-191.0","6vxj24fa","1707","1067","","","","","","","","","","","null","+","Fixation - short","","","","","null","","","","","","","","","","","","","","","","","","",""
"","html-keyboard-response","135","474012","0.0-192.0","6vxj24fa","1707","1067","","","","","","","","","","","1775","wjb","Diagnostic trial","","","","","f","2","7","false","true","LEFT","f","","true","RIGHT","false","","","","","","","","",""
"","html-keyboard-response","136","474764","0.0-195.0","6vxj24fa","1707","1067","","","","","","","","","","","null","+","Fixation - short","","","","","null","","","","","","","","","","","","","","","","","","",""
"","html-keyboard-response","137","475581","0.0-196.0","6vxj24fa","1707","1067","","","","","","","","","","","817","wjb","Inducer trial","","","","","f","2","","true","","","j","","","RIGHT","","false","","","","","","","",""
"","html-keyboard-response","138","477083","0.0-199.0","6vxj24fa","1707","1067","","","","","","","","","","","null","+","Fixation - long","","","","","null","","","","","","","","","","","","","","","","","","",""
"","html-keyboard-response","139","497084","0.0-200.0","6vxj24fa","1707","1067","","","","","","","","","","","null","If pwa press LEFT | If wtc press RIGHT","Inducer instructions","","","","","null","3","","","","","","","","","","","","","","","","","",""
"","html-keyboard-response","140","497835","0.0-201.0","6vxj24fa","1707","1067","","","","","","","","","","","null","+","Fixation - short","","","","","null","","","","","","","","","","","","","","","","","","",""
"","html-keyboard-response","141","499200","0.0-202.0","6vxj24fa","1707","1067","","","","","","","","","","","1364","pwa","Diagnostic trial","","","","","j","3","0","false","false","RIGHT","j","","true","LEFT","false","","","","","","","","",""
"","html-keyboard-response","142","499952","0.0-205.0","6vxj24fa","1707","1067","","","","","","","","","","","null","+","Fixation - short","","","","","null","","","","","","","","","","","","","","","","","","",""
"","html-keyboard-response","143","500855","0.0-206.0","6vxj24fa","1707","1067","","","","","","","","","","","903","pwa","Diagnostic trial","","","","","j","3","1","false","false","RIGHT","j","","true","LEFT","false","","","","","","","","",""
"","html-keyboard-response","144","501607","0.0-209.0","6vxj24fa","1707","1067","","","","","","","","","","","null","+","Fixation - short","","","","","null","","","","","","","","","","","","","","","","","","",""
"","html-keyboard-response","145","502623","0.0-210.0","6vxj24fa","1707","1067","","","","","","","","","","","1015","wtc","Diagnostic trial","","","","","f","3","2","false","true","LEFT","f","","true","RIGHT","false","","","","","","","","",""
"","html-keyboard-response","146","503377","0.0-213.0","6vxj24fa","1707","1067","","","","","","","","","","","null","+","Fixation - short","","","","","null","","","","","","","","","","","","","","","","","","",""
"","html-keyboard-response","147","504321","0.0-214.0","6vxj24fa","1707","1067","","","","","","","","","","","944","wtc","Diagnostic trial","","","","","f","3","3","false","false","RIGHT","j","","false","RIGHT","true","","","","","","","","",""
"","call-function","148","504322","0.0-216.0-0.0","6vxj24fa","","","","","","","","","","","","","","","","","","","","","","","","","","","","","","","","","","","","","","",""
"","html-keyboard-response","149","504638","0.0-216.0-1.0","6vxj24fa","1707","1067","","","","","","","","","","","null","Wrong","Feedback","","","","","null","","","","","","","","","","","","","","","","","","",""
"","call-function","150","504639","0.0-216.0-2.0","6vxj24fa","","","","","","","","","","","","","","","","","","","","","","","","","","","","","","","","","","","","","","",""
"","html-keyboard-response","151","505390","0.0-217.0","6vxj24fa","1707","1067","","","","","","","","","","","null","+","Fixation - short","","","","","null","","","","","","","","","","","","","","","","","","",""
"","html-keyboard-response","152","506471","0.0-218.0","6vxj24fa","1707","1067","","","","","","","","","","","1081","pwa","Diagnostic trial","","","","","f","3","4","false","true","LEFT","f","","true","LEFT","true","","","","","","","","",""
"","html-keyboard-response","153","507224","0.0-221.0","6vxj24fa","1707","1067","","","","","","","","","","","null","+","Fixation - short","","","","","null","","","","","","","","","","","","","","","","","","",""
"","html-keyboard-response","154","508134","0.0-222.0","6vxj24fa","1707","1067","","","","","","","","","","","910","wtc","Diagnostic trial","","","","","j","3","5","false","false","RIGHT","j","","true","RIGHT","true","","","","","","","","",""
"","html-keyboard-response","155","508886","0.0-225.0","6vxj24fa","1707","1067","","","","","","","","","","","null","+","Fixation - short","","","","","null","","","","","","","","","","","","","","","","","","",""
"","html-keyboard-response","156","510776","0.0-226.0","6vxj24fa","1707","1067","","","","","","","","","","","1890","wtc","Diagnostic trial","","","","","j","3","6","false","false","RIGHT","j","","true","RIGHT","true","","","","","","","","",""
"","html-keyboard-response","157","511528","0.0-229.0","6vxj24fa","1707","1067","","","","","","","","","","","null","+","Fixation - short","","","","","null","","","","","","","","","","","","","","","","","","",""
"","html-keyboard-response","158","513386","0.0-230.0","6vxj24fa","1707","1067","","","","","","","","","","","1857","pwa","Diagnostic trial","","","","","f","3","7","false","true","LEFT","f","","true","LEFT","true","","","","","","","","",""
"","html-keyboard-response","159","514138","0.0-233.0","6vxj24fa","1707","1067","","","","","","","","","","","null","+","Fixation - short","","","","","null","","","","","","","","","","","","","","","","","","",""
"","html-keyboard-response","160","515321","0.0-234.0","6vxj24fa","1707","1067","","","","","","","","","","","1182","pwa","Diagnostic trial","","","","","f","3","8","false","true","LEFT","f","","true","LEFT","true","","","","","","","","",""
"","html-keyboard-response","161","516073","0.0-237.0","6vxj24fa","1707","1067","","","","","","","","","","","null","+","Fixation - short","","","","","null","","","","","","","","","","","","","","","","","","",""
"","html-keyboard-response","162","516943","0.0-238.0","6vxj24fa","1707","1067","","","","","","","","","","","870","pwa","Diagnostic trial","","","","","f","3","9","false","false","RIGHT","j","","false","LEFT","false","","","","","","","","",""
"","call-function","163","516944","0.0-240.0-0.0","6vxj24fa","","","","","","","","","","","","","","","","","","","","","","","","","","","","","","","","","","","","","","",""
"","html-keyboard-response","164","517246","0.0-240.0-1.0","6vxj24fa","1707","1067","","","","","","","","","","","null","Wrong","Feedback","","","","","null","","","","","","","","","","","","","","","","","","",""
"","call-function","165","517246","0.0-240.0-2.0","6vxj24fa","","","","","","","","","","","","","","","","","","","","","","","","","","","","","","","","","","","","","","",""
"","html-keyboard-response","166","517997","0.0-241.0","6vxj24fa","1707","1067","","","","","","","","","","","null","+","Fixation - short","","","","","null","","","","","","","","","","","","","","","","","","",""
"","html-keyboard-response","167","518652","0.0-242.0","6vxj24fa","1707","1067","","","","","","","","","","","655","pwa","Inducer trial","","","","","f","3","","true","","","f","","","LEFT","","true","","","","","","","",""
"","html-keyboard-response","168","520154","0.0-245.0","6vxj24fa","1707","1067","","","","","","","","","","","null","+","Fixation - long","","","","","null","","","","","","","","","","","","","","","","","","",""
"","html-keyboard-response","169","540155","0.0-246.0","6vxj24fa","1707","1067","","","","","","","","","","","null","If v&t press RIGHT | If hmn press LEFT","Inducer instructions","","","","","null","4","","","","","","","","","","","","","","","","","",""
"","html-keyboard-response","170","540908","0.0-247.0","6vxj24fa","1707","1067","","","","","","","","","","","null","+","Fixation - short","","","","","null","","","","","","","","","","","","","","","","","","",""
"","html-keyboard-response","171","541681","0.0-248.0","6vxj24fa","1707","1067","","","","","","","","","","","773","v&t","Diagnostic trial","","","","","j","4","0","false","false","RIGHT","j","","true","RIGHT","true","","","","","","","","",""
"","html-keyboard-response","172","542433","0.0-251.0","6vxj24fa","1707","1067","","","","","","","","","","","null","+","Fixation - short","","","","","null","","","","","","","","","","","","","","","","","","",""
"","html-keyboard-response","173","544255","0.0-252.0","6vxj24fa","1707","1067","","","","","","","","","","","1822","hmn","Diagnostic trial","","","","","f","4","1","false","true","LEFT","f","","true","LEFT","true","","","","","","","","",""
"","html-keyboard-response","174","545007","0.0-255.0","6vxj24fa","1707","1067","","","","","","","","","","","null","+","Fixation - short","","","","","null","","","","","","","","","","","","","","","","","","",""
"","html-keyboard-response","175","545864","0.0-256.0","6vxj24fa","1707","1067","","","","","","","","","","","856","v&t","Diagnostic trial","","","","","f","4","2","false","true","LEFT","f","","true","RIGHT","false","","","","","","","","",""
"","html-keyboard-response","176","546616","0.0-259.0","6vxj24fa","1707","1067","","","","","","","","","","","null","+","Fixation - short","","","","","null","","","","","","","","","","","","","","","","","","",""
"","html-keyboard-response","177","547455","0.0-260.0","6vxj24fa","1707","1067","","","","","","","","","","","839","hmn","Diagnostic trial","","","","","f","4","3","false","true","LEFT","f","","true","LEFT","true","","","","","","","","",""
"","html-keyboard-response","178","548207","0.0-263.0","6vxj24fa","1707","1067","","","","","","","","","","","null","+","Fixation - short","","","","","null","","","","","","","","","","","","","","","","","","",""
"","html-keyboard-response","179","550208","0.0-264.0","6vxj24fa","1707","1067","","","","","","","","","","","null","v&t","Diagnostic trial","","","","","null","4","4","false","false","RIGHT","j","null","","RIGHT","true","","","","","","","","",""
"","call-function","180","550209","0.0-265.0-0.0","6vxj24fa","","","","","","","","","","","","","","","","","","","","","","","","","","","","","","","","","","","","","","",""
"","html-keyboard-response","181","550511","0.0-265.0-1.0","6vxj24fa","1707","1067","","","","","","","","","","","null","Slow","Feedback","","","","","null","","","","","","","","","","","","","","","","","","",""
"","call-function","182","550511","0.0-265.0-2.0","6vxj24fa","","","","","","","","","","","","","","","","","","","","","","","","","","","","","","","","","","","","","","",""
"","html-keyboard-response","183","551262","0.0-267.0","6vxj24fa","1707","1067","","","","","","","","","","","null","+","Fixation - short","","","","","null","","","","","","","","","","","","","","","","","","",""
"","html-keyboard-response","184","552007","0.0-268.0","6vxj24fa","1707","1067","","","","","","","","","","","744","v&t","Diagnostic trial","","","","","f","4","5","false","true","LEFT","f","","true","RIGHT","false","","","","","","","","",""
"","html-keyboard-response","185","552759","0.0-271.0","6vxj24fa","1707","1067","","","","","","","","","","","null","+","Fixation - short","","","","","null","","","","","","","","","","","","","","","","","","",""
"","html-keyboard-response","186","553459","0.0-272.0","6vxj24fa","1707","1067","","","","","","","","","","","700","hmn","Diagnostic trial","","","","","f","4","6","false","true","LEFT","f","","true","LEFT","true","","","","","","","","",""
"","html-keyboard-response","187","554211","0.0-275.0","6vxj24fa","1707","1067","","","","","","","","","","","null","+","Fixation - short","","","","","null","","","","","","","","","","","","","","","","","","",""
"","html-keyboard-response","188","554931","0.0-276.0","6vxj24fa","1707","1067","","","","","","","","","","","719","hmn","Inducer trial","","","","","f","4","","true","","","f","","","LEFT","","true","","","","","","","",""
"","html-keyboard-response","189","556433","0.0-279.0","6vxj24fa","1707","1067","","","","","","","","","","","null","+","Fixation - long","","","","","null","","","","","","","","","","","","","","","","","","",""
"","html-keyboard-response","190","576435","0.0-280.0","6vxj24fa","1707","1067","","","","","","","","","","","null","If bsl press LEFT | If wue press RIGHT","Inducer instructions","","","","","null","5","","","","","","","","","","","","","","","","","",""
"","html-keyboard-response","191","577187","0.0-281.0","6vxj24fa","1707","1067","","","","","","","","","","","null","+","Fixation - short","","","","","null","","","","","","","","","","","","","","","","","","",""
"","html-keyboard-response","192","578623","0.0-282.0","6vxj24fa","1707","1067","","","","","","","","","","","1436","wue","Diagnostic trial","","","","","j","5","0","false","false","RIGHT","j","","true","RIGHT","true","","","","","","","","",""
"","html-keyboard-response","193","579376","0.0-285.0","6vxj24fa","1707","1067","","","","","","","","","","","null","+","Fixation - short","","","","","null","","","","","","","","","","","","","","","","","","",""
"","html-keyboard-response","194","579905","0.0-286.0","6vxj24fa","1707","1067","","","","","","","","","","","529","wue","Diagnostic trial","","","","","j","5","1","false","false","RIGHT","j","","true","RIGHT","true","","","","","","","","",""
"","html-keyboard-response","195","580658","0.0-289.0","6vxj24fa","1707","1067","","","","","","","","","","","null","+","Fixation - short","","","","","null","","","","","","","","","","","","","","","","","","",""
"","html-keyboard-response","196","581473","0.0-290.0","6vxj24fa","1707","1067","","","","","","","","","","","814","bsl","Diagnostic trial","","","","","f","5","2","false","false","RIGHT","j","","false","LEFT","false","","","","","","","","",""
"","call-function","197","581473","0.0-292.0-0.0","6vxj24fa","","","","","","","","","","","","","","","","","","","","","","","","","","","","","","","","","","","","","","",""
"","html-keyboard-response","198","581775","0.0-292.0-1.0","6vxj24fa","1707","1067","","","","","","","","","","","null","Wrong","Feedback","","","","","null","","","","","","","","","","","","","","","","","","",""
"","call-function","199","581775","0.0-292.0-2.0","6vxj24fa","","","","","","","","","","","","","","","","","","","","","","","","","","","","","","","","","","","","","","",""
"","html-keyboard-response","200","582526","0.0-293.0","6vxj24fa","1707","1067","","","","","","","","","","","null","+","Fixation - short","","","","","null","","","","","","","","","","","","","","","","","","",""
"","html-keyboard-response","201","583942","0.0-294.0","6vxj24fa","1707","1067","","","","","","","","","","","1415","bsl","Diagnostic trial","","","","","f","5","3","false","true","LEFT","f","","true","LEFT","true","","","","","","","","",""
"","html-keyboard-response","202","584693","0.0-297.0","6vxj24fa","1707","1067","","","","","","","","","","","null","+","Fixation - short","","","","","null","","","","","","","","","","","","","","","","","","",""
"","html-keyboard-response","203","586111","0.0-298.0","6vxj24fa","1707","1067","","","","","","","","","","","1418","wue","Diagnostic trial","","","","","j","5","4","false","true","LEFT","f","","false","RIGHT","false","","","","","","","","",""
"","call-function","204","586112","0.0-300.0-0.0","6vxj24fa","","","","","","","","","","","","","","","","","","","","","","","","","","","","","","","","","","","","","","",""
"","html-keyboard-response","205","586414","0.0-300.0-1.0","6vxj24fa","1707","1067","","","","","","","","","","","null","Wrong","Feedback","","","","","null","","","","","","","","","","","","","","","","","","",""
"","call-function","206","586414","0.0-300.0-2.0","6vxj24fa","","","","","","","","","","","","","","","","","","","","","","","","","","","","","","","","","","","","","","",""
"","html-keyboard-response","207","587165","0.0-301.0","6vxj24fa","1707","1067","","","","","","","","","","","null","+","Fixation - short","","","","","null","","","","","","","","","","","","","","","","","","",""
"","html-keyboard-response","208","588662","0.0-302.0","6vxj24fa","1707","1067","","","","","","","","","","","1496","bsl","Diagnostic trial","","","","","j","5","5","false","false","RIGHT","j","","true","LEFT","false","","","","","","","","",""
"","html-keyboard-response","209","589413","0.0-305.0","6vxj24fa","1707","1067","","","","","","","","","","","null","+","Fixation - short","","","","","null","","","","","","","","","","","","","","","","","","",""
"","html-keyboard-response","210","591180","0.0-306.0","6vxj24fa","1707","1067","","","","","","","","","","","1765","wue","Diagnostic trial","","","","","j","5","6","false","false","RIGHT","j","","true","RIGHT","true","","","","","","","","",""
"","html-keyboard-response","211","591932","0.0-309.0","6vxj24fa","1707","1067","","","","","","","","","","","null","+","Fixation - short","","","","","null","","","","","","","","","","","","","","","","","","",""
"","html-keyboard-response","212","592656","0.0-310.0","6vxj24fa","1707","1067","","","","","","","","","","","723","bsl","Diagnostic trial","","","","","f","5","7","false","true","LEFT","f","","true","LEFT","true","","","","","","","","",""
"","html-keyboard-response","213","593408","0.0-313.0","6vxj24fa","1707","1067","","","","","","","","","","","null","+","Fixation - short","","","","","null","","","","","","","","","","","","","","","","","","",""
"","html-keyboard-response","214","594227","0.0-314.0","6vxj24fa","1707","1067","","","","","","","","","","","818","bsl","Diagnostic trial","","","","","j","5","8","false","false","RIGHT","j","","true","LEFT","false","","","","","","","","",""
"","html-keyboard-response","215","594979","0.0-317.0","6vxj24fa","1707","1067","","","","","","","","","","","null","+","Fixation - short","","","","","null","","","","","","","","","","","","","","","","","","",""
"","html-keyboard-response","216","595475","0.0-318.0","6vxj24fa","1707","1067","","","","","","","","","","","496","wue","Diagnostic trial","","","","","f","5","9","false","true","LEFT","f","","true","RIGHT","false","","","","","","","","",""
"","html-keyboard-response","217","596227","0.0-321.0","6vxj24fa","1707","1067","","","","","","","","","","","null","+","Fixation - short","","","","","null","","","","","","","","","","","","","","","","","","",""
"","html-keyboard-response","218","597313","0.0-322.0","6vxj24fa","1707","1067","","","","","","","","","","","1086","bsl","Diagnostic trial","","","","","j","5","10","false","false","RIGHT","j","","true","LEFT","false","","","","","","","","",""
"","html-keyboard-response","219","598065","0.0-325.0","6vxj24fa","1707","1067","","","","","","","","","","","null","+","Fixation - short","","","","","null","","","","","","","","","","","","","","","","","","",""
"","html-keyboard-response","220","598627","0.0-326.0","6vxj24fa","1707","1067","","","","","","","","","","","562","bsl","Diagnostic trial","","","","","j","5","11","false","false","RIGHT","j","","true","LEFT","false","","","","","","","","",""
"","html-keyboard-response","221","599379","0.0-329.0","6vxj24fa","1707","1067","","","","","","","","","","","null","+","Fixation - short","","","","","null","","","","","","","","","","","","","","","","","","",""
"","html-keyboard-response","222","599979","0.0-330.0","6vxj24fa","1707","1067","","","","","","","","","","","599","bsl","Diagnostic trial","","","","","j","5","12","false","false","RIGHT","j","","true","LEFT","false","","","","","","","","",""
"","html-keyboard-response","223","600729","0.0-333.0","6vxj24fa","1707","1067","","","","","","","","","","","null","+","Fixation - short","","","","","null","","","","","","","","","","","","","","","","","","",""
"","html-keyboard-response","224","601319","0.0-334.0","6vxj24fa","1707","1067","","","","","","","","","","","590","bsl","Inducer trial","","","","","f","5","","true","","","f","","","LEFT","","true","","","","","","","",""
"","html-keyboard-response","225","602821","0.0-337.0","6vxj24fa","1707","1067","","","","","","","","","","","null","+","Fixation - long","","","","","null","","","","","","","","","","","","","","","","","","",""
"","html-keyboard-response","226","622822","0.0-338.0","6vxj24fa","1707","1067","","","","","","","","","","","null","If fef press RIGHT | If gft press LEFT","Inducer instructions","","","","","null","6","","","","","","","","","","","","","","","","","",""
"","html-keyboard-response","227","623575","0.0-339.0","6vxj24fa","1707","1067","","","","","","","","","","","null","+","Fixation - short","","","","","null","","","","","","","","","","","","","","","","","","",""
"","html-keyboard-response","228","624659","0.0-340.0","6vxj24fa","1707","1067","","","","","","","","","","","1083","fef","Diagnostic trial","","","","","f","6","0","false","true","LEFT","f","","true","RIGHT","false","","","","","","","","",""
"","html-keyboard-response","229","625410","0.0-343.0","6vxj24fa","1707","1067","","","","","","","","","","","null","+","Fixation - short","","","","","null","","","","","","","","","","","","","","","","","","",""
"","html-keyboard-response","230","626846","0.0-344.0","6vxj24fa","1707","1067","","","","","","","","","","","1434","gft","Diagnostic trial","","","","","f","6","1","false","false","RIGHT","j","","false","LEFT","false","","","","","","","","",""
"","call-function","231","626847","0.0-346.0-0.0","6vxj24fa","","","","","","","","","","","","","","","","","","","","","","","","","","","","","","","","","","","","","","",""
"","html-keyboard-response","232","627148","0.0-346.0-1.0","6vxj24fa","1707","1067","","","","","","","","","","","null","Wrong","Feedback","","","","","null","","","","","","","","","","","","","","","","","","",""
"","call-function","233","627149","0.0-346.0-2.0","6vxj24fa","","","","","","","","","","","","","","","","","","","","","","","","","","","","","","","","","","","","","","",""
"","html-keyboard-response","234","627901","0.0-347.0","6vxj24fa","1707","1067","","","","","","","","","","","null","+","Fixation - short","","","","","null","","","","","","","","","","","","","","","","","","",""
"","html-keyboard-response","235","628952","0.0-348.0","6vxj24fa","1707","1067","","","","","","","","","","","1050","fef","Diagnostic trial","","","","","f","6","2","false","true","LEFT","f","","true","RIGHT","false","","","","","","","","",""
"","html-keyboard-response","236","629704","0.0-351.0","6vxj24fa","1707","1067","","","","","","","","","","","null","+","Fixation - short","","","","","null","","","","","","","","","","","","","","","","","","",""
"","html-keyboard-response","237","631383","0.0-352.0","6vxj24fa","1707","1067","","","","","","","","","","","1679","fef","Diagnostic trial","","","","","j","6","3","false","false","RIGHT","j","","true","RIGHT","true","","","","","","","","",""
"","html-keyboard-response","238","632136","0.0-355.0","6vxj24fa","1707","1067","","","","","","","","","","","null","+","Fixation - short","","","","","null","","","","","","","","","","","","","","","","","","",""
"","html-keyboard-response","239","632842","0.0-356.0","6vxj24fa","1707","1067","","","","","","","","","","","705","fef","Diagnostic trial","","","","","j","6","4","false","false","RIGHT","j","","true","RIGHT","true","","","","","","","","",""
"","html-keyboard-response","240","633594","0.0-359.0","6vxj24fa","1707","1067","","","","","","","","","","","null","+","Fixation - short","","","","","null","","","","","","","","","","","","","","","","","","",""
"","html-keyboard-response","241","634440","0.0-360.0","6vxj24fa","1707","1067","","","","","","","","","","","846","fef","Diagnostic trial","","","","","f","6","5","false","true","LEFT","f","","true","RIGHT","false","","","","","","","","",""
"","html-keyboard-response","242","635192","0.0-363.0","6vxj24fa","1707","1067","","","","","","","","","","","null","+","Fixation - short","","","","","null","","","","","","","","","","","","","","","","","","",""
"","html-keyboard-response","243","635832","0.0-364.0","6vxj24fa","1707","1067","","","","","","","","","","","639","fef","Diagnostic trial","","","","","f","6","6","false","true","LEFT","f","","true","RIGHT","false","","","","","","","","",""
"","html-keyboard-response","244","636585","0.0-367.0","6vxj24fa","1707","1067","","","","","","","","","","","null","+","Fixation - short","","","","","null","","","","","","","","","","","","","","","","","","",""
"","html-keyboard-response","245","637317","0.0-368.0","6vxj24fa","1707","1067","","","","","","","","","","","731","gft","Diagnostic trial","","","","","f","6","7","false","true","LEFT","f","","true","LEFT","true","","","","","","","","",""
"","html-keyboard-response","246","638069","0.0-371.0","6vxj24fa","1707","1067","","","","","","","","","","","null","+","Fixation - short","","","","","null","","","","","","","","","","","","","","","","","","",""
"","html-keyboard-response","247","638648","0.0-372.0","6vxj24fa","1707","1067","","","","","","","","","","","578","gft","Diagnostic trial","","","","","f","6","8","false","false","RIGHT","j","","false","LEFT","false","","","","","","","","",""
"","call-function","248","638648","0.0-374.0-0.0","6vxj24fa","","","","","","","","","","","","","","","","","","","","","","","","","","","","","","","","","","","","","","",""
"","html-keyboard-response","249","638950","0.0-374.0-1.0","6vxj24fa","1707","1067","","","","","","","","","","","null","Wrong","Feedback","","","","","null","","","","","","","","","","","","","","","","","","",""
"","call-function","250","638950","0.0-374.0-2.0","6vxj24fa","","","","","","","","","","","","","","","","","","","","","","","","","","","","","","","","","","","","","","",""
"","html-keyboard-response","251","639702","0.0-375.0","6vxj24fa","1707","1067","","","","","","","","","","","null","+","Fixation - short","","","","","null","","","","","","","","","","","","","","","","","","",""
"","html-keyboard-response","252","641570","0.0-376.0","6vxj24fa","1707","1067","","","","","","","","","","","1867","fef","Diagnostic trial","","","","","j","6","9","false","false","RIGHT","j","","true","RIGHT","true","","","","","","","","",""
"","html-keyboard-response","253","642323","0.0-379.0","6vxj24fa","1707","1067","","","","","","","","","","","null","+","Fixation - short","","","","","null","","","","","","","","","","","","","","","","","","",""
"","html-keyboard-response","254","643716","0.0-380.0","6vxj24fa","1707","1067","","","","","","","","","","","1393","fef","Diagnostic trial","","","","","f","6","10","false","true","LEFT","f","","true","RIGHT","false","","","","","","","","",""
"","html-keyboard-response","255","644468","0.0-383.0","6vxj24fa","1707","1067","","","","","","","","","","","null","+","Fixation - short","","","","","null","","","","","","","","","","","","","","","","","","",""
"","html-keyboard-response","256","645154","0.0-384.0","6vxj24fa","1707","1067","","","","","","","","","","","685","fef","Diagnostic trial","","","","","f","6","11","false","true","LEFT","f","","true","RIGHT","false","","","","","","","","",""
"","html-keyboard-response","257","645905","0.0-387.0","6vxj24fa","1707","1067","","","","","","","","","","","null","+","Fixation - short","","","","","null","","","","","","","","","","","","","","","","","","",""
"","html-keyboard-response","258","646645","0.0-388.0","6vxj24fa","1707","1067","","","","","","","","","","","739","gft","Diagnostic trial","","","","","f","6","12","false","true","LEFT","f","","true","LEFT","true","","","","","","","","",""
"","html-keyboard-response","259","647396","0.0-391.0","6vxj24fa","1707","1067","","","","","","","","","","","null","+","Fixation - short","","","","","null","","","","","","","","","","","","","","","","","","",""
"","html-keyboard-response","260","648272","0.0-392.0","6vxj24fa","1707","1067","","","","","","","","","","","874","fef","Diagnostic trial","","","","","j","6","13","false","false","RIGHT","j","","true","RIGHT","true","","","","","","","","",""
"","html-keyboard-response","261","649023","0.0-395.0","6vxj24fa","1707","1067","","","","","","","","","","","null","+","Fixation - short","","","","","null","","","","","","","","","","","","","","","","","","",""
"","html-keyboard-response","262","650332","0.0-396.0","6vxj24fa","1707","1067","","","","","","","","","","","1308","fef","Diagnostic trial","","","","","f","6","14","false","true","LEFT","f","","true","RIGHT","false","","","","","","","","",""
"","html-keyboard-response","263","651084","0.0-399.0","6vxj24fa","1707","1067","","","","","","","","","","","null","+","Fixation - short","","","","","null","","","","","","","","","","","","","","","","","","",""
"","html-keyboard-response","264","651539","0.0-400.0","6vxj24fa","1707","1067","","","","","","","","","","","454","fef","Diagnostic trial","","","","","f","6","15","false","true","LEFT","f","","true","RIGHT","false","","","","","","","","",""
"","html-keyboard-response","265","652291","0.0-403.0","6vxj24fa","1707","1067","","","","","","","","","","","null","+","Fixation - short","","","","","null","","","","","","","","","","","","","","","","","","",""
"","html-keyboard-response","266","652884","0.0-404.0","6vxj24fa","1707","1067","","","","","","","","","","","592","gft","Inducer trial","","","","","f","6","","true","","","f","","","LEFT","","true","","","","","","","",""
"","html-keyboard-response","267","654385","0.0-407.0","6vxj24fa","1707","1067","","","","","","","","","","","null","+","Fixation - long","","","","","null","","","","","","","","","","","","","","","","","","",""
"","html-keyboard-response","268","674387","0.0-408.0","6vxj24fa","1707","1067","","","","","","","","","","","null","If scy press RIGHT | If ibb press LEFT","Inducer instructions","","","","","null","7","","","","","","","","","","","","","","","","","",""
"","html-keyboard-response","269","675138","0.0-409.0","6vxj24fa","1707","1067","","","","","","","","","","","null","+","Fixation - short","","","","","null","","","","","","","","","","","","","","","","","","",""
"","html-keyboard-response","270","675867","0.0-410.0","6vxj24fa","1707","1067","","","","","","","","","","","728","ibb","Diagnostic trial","","","","","f","7","0","false","false","RIGHT","j","","false","LEFT","false","","","","","","","","",""
"","call-function","271","675868","0.0-412.0-0.0","6vxj24fa","","","","","","","","","","","","","","","","","","","","","","","","","","","","","","","","","","","","","","",""
"","html-keyboard-response","272","676169","0.0-412.0-1.0","6vxj24fa","1707","1067","","","","","","","","","","","null","Wrong","Feedback","","","","","null","","","","","","","","","","","","","","","","","","",""
"","call-function","273","676170","0.0-412.0-2.0","6vxj24fa","","","","","","","","","","","","","","","","","","","","","","","","","","","","","","","","","","","","","","",""
"","html-keyboard-response","274","676921","0.0-413.0","6vxj24fa","1707","1067","","","","","","","","","","","null","+","Fixation - short","","","","","null","","","","","","","","","","","","","","","","","","",""
"","html-keyboard-response","275","678207","0.0-414.0","6vxj24fa","1707","1067","","","","","","","","","","","1286","scy","Diagnostic trial","","","","","f","7","1","false","true","LEFT","f","","true","RIGHT","false","","","","","","","","",""
"","html-keyboard-response","276","678960","0.0-417.0","6vxj24fa","1707","1067","","","","","","","","","","","null","+","Fixation - short","","","","","null","","","","","","","","","","","","","","","","","","",""
"","html-keyboard-response","277","679560","0.0-418.0","6vxj24fa","1707","1067","","","","","","","","","","","600","scy","Diagnostic trial","","","","","f","7","2","false","true","LEFT","f","","true","RIGHT","false","","","","","","","","",""
"","html-keyboard-response","278","680312","0.0-421.0","6vxj24fa","1707","1067","","","","","","","","","","","null","+","Fixation - short","","","","","null","","","","","","","","","","","","","","","","","","",""
"","html-keyboard-response","279","681875","0.0-422.0","6vxj24fa","1707","1067","","","","","","","","","","","1563","ibb","Diagnostic trial","","","","","f","7","3","false","true","LEFT","f","","true","LEFT","true","","","","","","","","",""
"","html-keyboard-response","280","682628","0.0-425.0","6vxj24fa","1707","1067","","","","","","","","","","","null","+","Fixation - short","","","","","null","","","","","","","","","","","","","","","","","","",""
"","html-keyboard-response","281","683599","0.0-426.0","6vxj24fa","1707","1067","","","","","","","","","","","971","scy","Diagnostic trial","","","","","f","7","4","false","true","LEFT","f","","true","RIGHT","false","","","","","","","","",""
"","html-keyboard-response","282","684351","0.0-429.0","6vxj24fa","1707","1067","","","","","","","","","","","null","+","Fixation - short","","","","","null","","","","","","","","","","","","","","","","","","",""
"","html-keyboard-response","283","685479","0.0-430.0","6vxj24fa","1707","1067","","","","","","","","","","","1127","ibb","Diagnostic trial","","","","","f","7","5","false","false","RIGHT","j","","false","LEFT","false","","","","","","","","",""
"","call-function","284","685479","0.0-432.0-0.0","6vxj24fa","","","","","","","","","","","","","","","","","","","","","","","","","","","","","","","","","","","","","","",""
"","html-keyboard-response","285","685780","0.0-432.0-1.0","6vxj24fa","1707","1067","","","","","","","","","","","null","Wrong","Feedback","","","","","null","","","","","","","","","","","","","","","","","","",""
"","call-function","286","685780","0.0-432.0-2.0","6vxj24fa","","","","","","","","","","","","","","","","","","","","","","","","","","","","","","","","","","","","","","",""
"","html-keyboard-response","287","686532","0.0-433.0","6vxj24fa","1707","1067","","","","","","","","","","","null","+","Fixation - short","","","","","null","","","","","","","","","","","","","","","","","","",""
"","html-keyboard-response","288","687340","0.0-434.0","6vxj24fa","1707","1067","","","","","","","","","","","807","ibb","Diagnostic trial","","","","","f","7","6","false","true","LEFT","f","","true","LEFT","true","","","","","","","","",""
"","html-keyboard-response","289","688091","0.0-437.0","6vxj24fa","1707","1067","","","","","","","","","","","null","+","Fixation - short","","","","","null","","","","","","","","","","","","","","","","","","",""
"","html-keyboard-response","290","688742","0.0-438.0","6vxj24fa","1707","1067","","","","","","","","","","","650","ibb","Diagnostic trial","","","","","j","7","7","false","false","RIGHT","j","","true","LEFT","false","","","","","","","","",""
"","html-keyboard-response","291","689493","0.0-441.0","6vxj24fa","1707","1067","","","","","","","","","","","null","+","Fixation - short","","","","","null","","","","","","","","","","","","","","","","","","",""
"","html-keyboard-response","292","690888","0.0-442.0","6vxj24fa","1707","1067","","","","","","","","","","","1394","ibb","Diagnostic trial","","","","","j","7","8","false","false","RIGHT","j","","true","LEFT","false","","","","","","","","",""
"","html-keyboard-response","293","691640","0.0-445.0","6vxj24fa","1707","1067","","","","","","","","","","","null","+","Fixation - short","","","","","null","","","","","","","","","","","","","","","","","","",""
"","html-keyboard-response","294","692680","0.0-446.0","6vxj24fa","1707","1067","","","","","","","","","","","1039","scy","Diagnostic trial","","","","","f","7","9","false","false","RIGHT","j","","false","RIGHT","true","","","","","","","","",""
"","call-function","295","692680","0.0-448.0-0.0","6vxj24fa","","","","","","","","","","","","","","","","","","","","","","","","","","","","","","","","","","","","","","",""
"","html-keyboard-response","296","692982","0.0-448.0-1.0","6vxj24fa","1707","1067","","","","","","","","","","","null","Wrong","Feedback","","","","","null","","","","","","","","","","","","","","","","","","",""
"","call-function","297","692982","0.0-448.0-2.0","6vxj24fa","","","","","","","","","","","","","","","","","","","","","","","","","","","","","","","","","","","","","","",""
"","html-keyboard-response","298","693733","0.0-449.0","6vxj24fa","1707","1067","","","","","","","","","","","null","+","Fixation - short","","","","","null","","","","","","","","","","","","","","","","","","",""
"","html-keyboard-response","299","694340","0.0-450.0","6vxj24fa","1707","1067","","","","","","","","","","","605","ibb","Diagnostic trial","","","","","j","7","10","false","false","RIGHT","j","","true","LEFT","false","","","","","","","","",""
"","html-keyboard-response","300","695091","0.0-453.0","6vxj24fa","1707","1067","","","","","","","","","","","null","+","Fixation - short","","","","","null","","","","","","","","","","","","","","","","","","",""
"","html-keyboard-response","301","695932","0.0-454.0","6vxj24fa","1707","1067","","","","","","","","","","","840","scy","Diagnostic trial","","","","","j","7","11","false","false","RIGHT","j","","true","RIGHT","true","","","","","","","","",""
"","html-keyboard-response","302","696683","0.0-457.0","6vxj24fa","1707","1067","","","","","","","","","","","null","+","Fixation - short","","","","","null","","","","","","","","","","","","","","","","","","",""
"","html-keyboard-response","303","697335","0.0-458.0","6vxj24fa","1707","1067","","","","","","","","","","","651","scy","Diagnostic trial","","","","","j","7","12","false","false","RIGHT","j","","true","RIGHT","true","","","","","","","","",""
"","html-keyboard-response","304","698088","0.0-461.0","6vxj24fa","1707","1067","","","","","","","","","","","null","+","Fixation - short","","","","","null","","","","","","","","","","","","","","","","","","",""
"","html-keyboard-response","305","698602","0.0-462.0","6vxj24fa","1707","1067","","","","","","","","","","","514","scy","Diagnostic trial","","","","","j","7","13","false","false","RIGHT","j","","true","RIGHT","true","","","","","","","","",""
"","html-keyboard-response","306","699368","0.0-465.0","6vxj24fa","1707","1067","","","","","","","","","","","null","+","Fixation - short","","","","","null","","","","","","","","","","","","","","","","","","",""
"","html-keyboard-response","307","700159","0.0-466.0","6vxj24fa","1707","1067","","","","","","","","","","","790","ibb","Diagnostic trial","","","","","j","7","14","false","false","RIGHT","j","","true","LEFT","false","","","","","","","","",""
"","html-keyboard-response","308","700911","0.0-469.0","6vxj24fa","1707","1067","","","","","","","","","","","null","+","Fixation - short","","","","","null","","","","","","","","","","","","","","","","","","",""
"","html-keyboard-response","309","701406","0.0-470.0","6vxj24fa","1707","1067","","","","","","","","","","","494","ibb","Diagnostic trial","","","","","f","7","15","false","true","LEFT","f","","true","LEFT","true","","","","","","","","",""
"","html-keyboard-response","310","702158","0.0-473.0","6vxj24fa","1707","1067","","","","","","","","","","","null","+","Fixation - short","","","","","null","","","","","","","","","","","","","","","","","","",""
"","html-keyboard-response","311","702714","0.0-474.0","6vxj24fa","1707","1067","","","","","","","","","","","555","scy","Inducer trial","","","","","f","7","","true","","","j","","","RIGHT","","false","","","","","","","",""
"","html-keyboard-response","312","704215","0.0-477.0","6vxj24fa","1707","1067","","","","","","","","","","","null","+","Fixation - long","","","","","null","","","","","","","","","","","","","","","","","","",""
"","html-keyboard-response","313","724216","0.0-478.0","6vxj24fa","1707","1067","","","","","","","","","","","null","If olt press RIGHT | If efr press LEFT","Inducer instructions","","","","","null","8","","","","","","","","","","","","","","","","","",""
"","html-keyboard-response","314","724967","0.0-479.0","6vxj24fa","1707","1067","","","","","","","","","","","null","+","Fixation - short","","","","","null","","","","","","","","","","","","","","","","","","",""
"","html-keyboard-response","315","725695","0.0-480.0","6vxj24fa","1707","1067","","","","","","","","","","","727","olt","Diagnostic trial","","","","","j","8","0","false","false","RIGHT","j","","true","RIGHT","true","","","","","","","","",""
"","html-keyboard-response","316","726447","0.0-483.0","6vxj24fa","1707","1067","","","","","","","","","","","null","+","Fixation - short","","","","","null","","","","","","","","","","","","","","","","","","",""
"","html-keyboard-response","317","727291","0.0-484.0","6vxj24fa","1707","1067","","","","","","","","","","","844","olt","Diagnostic trial","","","","","f","8","1","false","true","LEFT","f","","true","RIGHT","false","","","","","","","","",""
"","html-keyboard-response","318","728043","0.0-487.0","6vxj24fa","1707","1067","","","","","","","","","","","null","+","Fixation - short","","","","","null","","","","","","","","","","","","","","","","","","",""
"","html-keyboard-response","319","728803","0.0-488.0","6vxj24fa","1707","1067","","","","","","","","","","","760","olt","Diagnostic trial","","","","","f","8","2","false","true","LEFT","f","","true","RIGHT","false","","","","","","","","",""
"","html-keyboard-response","320","729556","0.0-491.0","6vxj24fa","1707","1067","","","","","","","","","","","null","+","Fixation - short","","","","","null","","","","","","","","","","","","","","","","","","",""
"","html-keyboard-response","321","730226","0.0-492.0","6vxj24fa","1707","1067","","","","","","","","","","","669","olt","Diagnostic trial","","","","","f","8","3","false","true","LEFT","f","","true","RIGHT","false","","","","","","","","",""
"","html-keyboard-response","322","730978","0.0-495.0","6vxj24fa","1707","1067","","","","","","","","","","","null","+","Fixation - short","","","","","null","","","","","","","","","","","","","","","","","","",""
"","html-keyboard-response","323","731588","0.0-496.0","6vxj24fa","1707","1067","","","","","","","","","","","609","olt","Diagnostic trial","","","","","f","8","4","false","true","LEFT","f","","true","RIGHT","false","","","","","","","","",""
"","html-keyboard-response","324","732339","0.0-499.0","6vxj24fa","1707","1067","","","","","","","","","","","null","+","Fixation - short","","","","","null","","","","","","","","","","","","","","","","","","",""
"","html-keyboard-response","325","734341","0.0-500.0","6vxj24fa","1707","1067","","","","","","","","","","","null","efr","Diagnostic trial","","","","","null","8","5","false","false","RIGHT","j","null","","LEFT","false","","","","","","","","",""
"","call-function","326","734342","0.0-501.0-0.0","6vxj24fa","","","","","","","","","","","","","","","","","","","","","","","","","","","","","","","","","","","","","","",""
"","html-keyboard-response","327","734644","0.0-501.0-1.0","6vxj24fa","1707","1067","","","","","","","","","","","null","Slow","Feedback","","","","","null","","","","","","","","","","","","","","","","","","",""
"","call-function","328","734644","0.0-501.0-2.0","6vxj24fa","","","","","","","","","","","","","","","","","","","","","","","","","","","","","","","","","","","","","","",""
"","html-keyboard-response","329","735396","0.0-503.0","6vxj24fa","1707","1067","","","","","","","","","","","null","+","Fixation - short","","","","","null","","","","","","","","","","","","","","","","","","",""
"","html-keyboard-response","330","736243","0.0-504.0","6vxj24fa","1707","1067","","","","","","","","","","","846","efr","Diagnostic trial","","","","","f","8","6","false","true","LEFT","f","","true","LEFT","true","","","","","","","","",""
"","html-keyboard-response","331","736994","0.0-507.0","6vxj24fa","1707","1067","","","","","","","","","","","null","+","Fixation - short","","","","","null","","","","","","","","","","","","","","","","","","",""
"","html-keyboard-response","332","737952","0.0-508.0","6vxj24fa","1707","1067","","","","","","","","","","","958","efr","Diagnostic trial","","","","","f","8","7","false","false","RIGHT","j","","false","LEFT","false","","","","","","","","",""
"","call-function","333","737953","0.0-510.0-0.0","6vxj24fa","","","","","","","","","","","","","","","","","","","","","","","","","","","","","","","","","","","","","","",""
"","html-keyboard-response","334","738255","0.0-510.0-1.0","6vxj24fa","1707","1067","","","","","","","","","","","null","Wrong","Feedback","","","","","null","","","","","","","","","","","","","","","","","","",""
"","call-function","335","738255","0.0-510.0-2.0","6vxj24fa","","","","","","","","","","","","","","","","","","","","","","","","","","","","","","","","","","","","","","",""
"","html-keyboard-response","336","739006","0.0-511.0","6vxj24fa","1707","1067","","","","","","","","","","","null","+","Fixation - short","","","","","null","","","","","","","","","","","","","","","","","","",""
"","html-keyboard-response","337","739872","0.0-512.0","6vxj24fa","1707","1067","","","","","","","","","","","865","efr","Inducer trial","","","","","f","8","","true","","","f","","","LEFT","","true","","","","","","","",""
"","html-keyboard-response","338","741374","0.0-515.0","6vxj24fa","1707","1067","","","","","","","","","","","null","+","Fixation - long","","","","","null","","","","","","","","","","","","","","","","","","",""
"","html-keyboard-response","339","761375","0.0-516.0","6vxj24fa","1707","1067","","","","","","","","","","","null","If tr6 press RIGHT | If k5u press LEFT","Inducer instructions","","","","","null","9","","","","","","","","","","","","","","","","","",""
"","html-keyboard-response","340","762127","0.0-517.0","6vxj24fa","1707","1067","","","","","","","","","","","null","+","Fixation - short","","","","","null","","","","","","","","","","","","","","","","","","",""
"","html-keyboard-response","341","763040","0.0-518.0","6vxj24fa","1707","1067","","","","","","","","","","","912","tr6","Diagnostic trial","","","","","j","9","0","false","false","RIGHT","j","","true","RIGHT","true","","","","","","","","",""
"","html-keyboard-response","342","763792","0.0-521.0","6vxj24fa","1707","1067","","","","","","","","","","","null","+","Fixation - short","","","","","null","","","","","","","","","","","","","","","","","","",""
"","html-keyboard-response","343","764329","0.0-522.0","6vxj24fa","1707","1067","","","","","","","","","","","536","tr6","Diagnostic trial","","","","","j","9","1","false","false","RIGHT","j","","true","RIGHT","true","","","","","","","","",""
"","html-keyboard-response","344","765081","0.0-525.0","6vxj24fa","1707","1067","","","","","","","","","","","null","+","Fixation - short","","","","","null","","","","","","","","","","","","","","","","","","",""
"","html-keyboard-response","345","766083","0.0-526.0","6vxj24fa","1707","1067","","","","","","","","","","","1002","k5u","Diagnostic trial","","","","","f","9","2","false","false","RIGHT","j","","false","LEFT","false","","","","","","","","",""
"","call-function","346","766085","0.0-528.0-0.0","6vxj24fa","","","","","","","","","","","","","","","","","","","","","","","","","","","","","","","","","","","","","","",""
"","html-keyboard-response","347","766398","0.0-528.0-1.0","6vxj24fa","1707","1067","","","","","","","","","","","null","Wrong","Feedback","","","","","null","","","","","","","","","","","","","","","","","","",""
"","call-function","348","766399","0.0-528.0-2.0","6vxj24fa","","","","","","","","","","","","","","","","","","","","","","","","","","","","","","","","","","","","","","",""
"","html-keyboard-response","349","767149","0.0-529.0","6vxj24fa","1707","1067","","","","","","","","","","","null","+","Fixation - short","","","","","null","","","","","","","","","","","","","","","","","","",""
"","html-keyboard-response","350","768251","0.0-530.0","6vxj24fa","1707","1067","","","","","","","","","","","1101","k5u","Diagnostic trial","","","","","j","9","3","false","true","LEFT","f","","false","LEFT","true","","","","","","","","",""
"","call-function","351","768252","0.0-532.0-0.0","6vxj24fa","","","","","","","","","","","","","","","","","","","","","","","","","","","","","","","","","","","","","","",""
"","html-keyboard-response","352","768553","0.0-532.0-1.0","6vxj24fa","1707","1067","","","","","","","","","","","null","Wrong","Feedback","","","","","null","","","","","","","","","","","","","","","","","","",""
"","call-function","353","768553","0.0-532.0-2.0","6vxj24fa","","","","","","","","","","","","","","","","","","","","","","","","","","","","","","","","","","","","","","",""
"","html-keyboard-response","354","769305","0.0-533.0","6vxj24fa","1707","1067","","","","","","","","","","","null","+","Fixation - short","","","","","null","","","","","","","","","","","","","","","","","","",""
"","html-keyboard-response","355","770164","0.0-534.0","6vxj24fa","1707","1067","","","","","","","","","","","858","tr6","Diagnostic trial","","","","","f","9","4","false","true","LEFT","f","","true","RIGHT","false","","","","","","","","",""
"","html-keyboard-response","356","770916","0.0-537.0","6vxj24fa","1707","1067","","","","","","","","","","","null","+","Fixation - short","","","","","null","","","","","","","","","","","","","","","","","","",""
"","html-keyboard-response","357","771934","0.0-538.0","6vxj24fa","1707","1067","","","","","","","","","","","1017","k5u","Diagnostic trial","","","","","j","9","5","false","false","RIGHT","j","","true","LEFT","false","","","","","","","","",""
"","html-keyboard-response","358","772685","0.0-541.0","6vxj24fa","1707","1067","","","","","","","","","","","null","+","Fixation - short","","","","","null","","","","","","","","","","","","","","","","","","",""
"","html-keyboard-response","359","773870","0.0-542.0","6vxj24fa","1707","1067","","","","","","","","","","","1185","k5u","Diagnostic trial","","","","","f","9","6","false","true","LEFT","f","","true","LEFT","true","","","","","","","","",""
"","html-keyboard-response","360","774623","0.0-545.0","6vxj24fa","1707","1067","","","","","","","","","","","null","+","Fixation - short","","","","","null","","","","","","","","","","","","","","","","","","",""
"","html-keyboard-response","361","775137","0.0-546.0","6vxj24fa","1707","1067","","","","","","","","","","","514","tr6","Diagnostic trial","","","","","f","9","7","false","true","LEFT","f","","true","RIGHT","false","","","","","","","","",""
"","html-keyboard-response","362","775888","0.0-549.0","6vxj24fa","1707","1067","","","","","","","","","","","null","+","Fixation - short","","","","","null","","","","","","","","","","","","","","","","","","",""
"","html-keyboard-response","363","776392","0.0-550.0","6vxj24fa","1707","1067","","","","","","","","","","","503","tr6","Diagnostic trial","","","","","j","9","8","false","false","RIGHT","j","","true","RIGHT","true","","","","","","","","",""
"","html-keyboard-response","364","777144","0.0-553.0","6vxj24fa","1707","1067","","","","","","","","","","","null","+","Fixation - short","","","","","null","","","","","","","","","","","","","","","","","","",""
"","html-keyboard-response","365","779159","0.0-554.0","6vxj24fa","1707","1067","","","","","","","","","","","null","k5u","Diagnostic trial","","","","","null","9","9","false","true","LEFT","f","null","","LEFT","true","","","","","","","","",""
"","call-function","366","779160","0.0-555.0-0.0","6vxj24fa","","","","","","","","","","","","","","","","","","","","","","","","","","","","","","","","","","","","","","",""
"","html-keyboard-response","367","779461","0.0-555.0-1.0","6vxj24fa","1707","1067","","","","","","","","","","","null","Slow","Feedback","","","","","null","","","","","","","","","","","","","","","","","","",""
"","call-function","368","779462","0.0-555.0-2.0","6vxj24fa","","","","","","","","","","","","","","","","","","","","","","","","","","","","","","","","","","","","","","",""
"","html-keyboard-response","369","780214","0.0-557.0","6vxj24fa","1707","1067","","","","","","","","","","","null","+","Fixation - short","","","","","null","","","","","","","","","","","","","","","","","","",""
"","html-keyboard-response","370","780749","0.0-558.0","6vxj24fa","1707","1067","","","","","","","","","","","535","k5u","Diagnostic trial","","","","","f","9","10","false","true","LEFT","f","","true","LEFT","true","","","","","","","","",""
"","html-keyboard-response","371","781501","0.0-561.0","6vxj24fa","1707","1067","","","","","","","","","","","null","+","Fixation - short","","","","","null","","","","","","","","","","","","","","","","","","",""
"","html-keyboard-response","372","782249","0.0-562.0","6vxj24fa","1707","1067","","","","","","","","","","","748","tr6","Diagnostic trial","","","","","j","9","11","false","false","RIGHT","j","","true","RIGHT","true","","","","","","","","",""
"","html-keyboard-response","373","783001","0.0-565.0","6vxj24fa","1707","1067","","","","","","","","","","","null","+","Fixation - short","","","","","null","","","","","","","","","","","","","","","","","","",""
"","html-keyboard-response","374","783452","0.0-566.0","6vxj24fa","1707","1067","","","","","","","","","","","450","k5u","Diagnostic trial","","","","","f","9","12","false","true","LEFT","f","","true","LEFT","true","","","","","","","","",""
"","html-keyboard-response","375","784204","0.0-569.0","6vxj24fa","1707","1067","","","","","","","","","","","null","+","Fixation - short","","","","","null","","","","","","","","","","","","","","","","","","",""
"","html-keyboard-response","376","784795","0.0-570.0","6vxj24fa","1707","1067","","","","","","","","","","","591","k5u","Diagnostic trial","","","","","f","9","13","false","true","LEFT","f","","true","LEFT","true","","","","","","","","",""
"","html-keyboard-response","377","785547","0.0-573.0","6vxj24fa","1707","1067","","","","","","","","","","","null","+","Fixation - short","","","","","null","","","","","","","","","","","","","","","","","","",""
"","html-keyboard-response","378","786457","0.0-574.0","6vxj24fa","1707","1067","","","","","","","","","","","910","tr6","Diagnostic trial","","","","","j","9","14","false","false","RIGHT","j","","true","RIGHT","true","","","","","","","","",""
"","html-keyboard-response","379","787210","0.0-577.0","6vxj24fa","1707","1067","","","","","","","","","","","null","+","Fixation - short","","","","","null","","","","","","","","","","","","","","","","","","",""
"","html-keyboard-response","380","788045","0.0-578.0","6vxj24fa","1707","1067","","","","","","","","","","","834","tr6","Diagnostic trial","","","","","f","9","15","false","true","LEFT","f","","true","RIGHT","false","","","","","","","","",""
"","html-keyboard-response","381","788796","0.0-581.0","6vxj24fa","1707","1067","","","","","","","","","","","null","+","Fixation - short","","","","","null","","","","","","","","","","","","","","","","","","",""
"","html-keyboard-response","382","789443","0.0-582.0","6vxj24fa","1707","1067","","","","","","","","","","","646","k5u","Inducer trial","","","","","f","9","","true","","","f","","","LEFT","","true","","","","","","","",""
"","html-keyboard-response","383","790946","0.0-585.0","6vxj24fa","1707","1067","","","","","","","","","","","null","+","Fixation - long","","","","","null","","","","","","","","","","","","","","","","","","",""
"","call-function","384","790947","0.0-586.0","6vxj24fa","","","","","","","","","","","","","","","","","","","","","","","","","","","","","","","","","","","","","","",""
"","html-keyboard-response","385","799351","0.0-587.0","6vxj24fa","","","","","","","","","","","","","8403","You have now completed the central part of the experiment.<br>

    To complete the study, please answer the following questions:","","","","",""," ","","","","","","","","","","","","","","","","","","",""
"","html-slider-response","386","821782","0.0-588.0","6vxj24fa","","","","","","","","","","","","","22429","<div style=""font-size:24px""> 
        People are motivated to various degrees for various reasons.<br> 
 
        There is nothing wrong with low motivation and kindly ask that you answer truthfully <br><br>

        How motivated were you to do well on the task?","","","","","","43","","","","","","","","","","","","50","","","","","","",""
"","survey","387","1229426","0.0-589.0","6vxj24fa","1707","1067","","","","","","","","","","","407617","gender-age-distraction-motivation-feedback","Demographics, motivation, distraction and feedback","","","","","{""motivaiton_feedback"":""I got frustrated because it felt like the instructions and the feedback were in conflict. That got my motivation down."",""P1_Q0"":null,""distraction"":2,""motivation_feedback"":"""",""gender"":""Male"",""age"":29,""open_feedback"":""The experiment looks and runs great!\n\nThe instructions were a bit unclear. I still struggle to understand the task. Example: When it said to press right when xxx and left when yyy, it would still give me feedback as if only the italics/normal text was the rule. Maybe I missed some cues to switch approaches.\n\nMaybe a trial run to hammer home the experiment procedure.""}","","","","","","","","","","","","","[]","Male","29","","2","","The experiment looks and runs great!

The instructions were a bit unclear. I still struggle to understand the task. Example: When it said to press right when xxx and left when yyy, it would still give me feedback as if only the italics/normal text was the rule. Maybe I missed some cues to switch approaches.

Maybe a trial run to hammer home the experiment procedure."
