"value","trial_type","trial_index","time_elapsed","internal_node_id","id","width","height","webaudio","browser","browser_version","mobile","os","fullscreen","vsync_rate","webcam","microphone","view_history","rt","stimulus","trial_info","page_index1","page_index2","page_index3","success","response","inducer_run","diagnostic_run","inducer_trial","italic","correct_diag_response_side","correct_response_key","correct_response","correct_inducer_response_side","congruent","accuracy","open_feedback","interactive"
"","call-function","0","1","0.0-0.0","dprk0dd9","","","","","","","","","","","","","","","","","","","","","","","","","","","","","","","",""
"","browser-check","1","502","0.0-1.0","dprk0dd9","1920","911","true","chrome","120.0.0","false","Windows 10","true","120.48","false","false","","","","","","","","","","","","","","","","","","","","",""
"","instructions","2","6860292","0.0-2.0","dprk0dd9","","","","","","","","","","","","[{""page_index"":0,""viewing_time"":6742815},{""page_index"":1,""viewing_time"":87978},{""page_index"":2,""viewing_time"":28996}]","6859789","The experiment and consent","The experiment and consent","6742815","87978","28996","","","","","","","","","","","","","",""
"","fullscreen","3","6876794","0.0-3.0","dprk0dd9","1920","1080","","","","","","","","","","","15489","","Full screen","","","","true","","","","","","","","","","","","",""
"","instructions","4","7177730","0.0-4.0","dprk0dd9","1920","1080","","","","","","","","","","[{""page_index"":0,""viewing_time"":113843},{""page_index"":1,""viewing_time"":149956},{""page_index"":2,""viewing_time"":37135}]","300935","Instructions","Final experiment explanation","","","","","","","","","","","","","","","","",""
"","html-keyboard-response","5","7187250","0.0-5.0","dprk0dd9","1920","1080","","","","","","","","","","","8009","If italic press LEFT | If upright press RIGHT","Diagnostic instructions","","","",""," ","","","","","","","","","","","",""
"","html-keyboard-response","6","7188007","0.0-6.0","dprk0dd9","1920","1080","","","","","","","","","","","null","+","Fixation - short","","","","","null","","","","","","","","","","","",""
"","html-keyboard-response","7","7188567","0.0-7.0","dprk0dd9","1920","1080","","","","","","","","","","","560","cjm","practice","","","","","j","0","0","false","false","RIGHT","j","1","","","","",""
"","html-keyboard-response","8","7189324","0.0-10.0","dprk0dd9","1920","1080","","","","","","","","","","","null","+","Fixation - short","","","","","null","","","","","","","","","","","",""
"","html-keyboard-response","9","7189886","0.0-11.0","dprk0dd9","1920","1080","","","","","","","","","","","562","cjm","practice","","","","","f","0","1","false","true","LEFT","f","1","","","","",""
"","html-keyboard-response","10","7190649","0.0-14.0","dprk0dd9","1920","1080","","","","","","","","","","","null","+","Fixation - short","","","","","null","","","","","","","","","","","",""
"","html-keyboard-response","11","7191130","0.0-15.0","dprk0dd9","1920","1080","","","","","","","","","","","481","f47","practice","","","","","f","0","2","false","true","LEFT","f","1","","","","",""
"","html-keyboard-response","12","7191890","0.0-18.0","dprk0dd9","1920","1080","","","","","","","","","","","null","+","Fixation - short","","","","","null","","","","","","","","","","","",""
"","html-keyboard-response","13","7192254","0.0-19.0","dprk0dd9","1920","1080","","","","","","","","","","","364","f47","practice","","","","","f","0","3","false","true","LEFT","f","1","","","","",""
"","html-keyboard-response","14","7193008","0.0-22.0","dprk0dd9","1920","1080","","","","","","","","","","","null","+","Fixation - short","","","","","null","","","","","","","","","","","",""
"","html-keyboard-response","15","7193452","0.0-23.0","dprk0dd9","1920","1080","","","","","","","","","","","443","f47","practice","","","","","j","0","4","false","false","RIGHT","j","1","","","","",""
"","html-keyboard-response","16","7194214","0.0-26.0","dprk0dd9","1920","1080","","","","","","","","","","","null","+","Fixation - short","","","","","null","","","","","","","","","","","",""
"","html-keyboard-response","17","7194799","0.0-27.0","dprk0dd9","1920","1080","","","","","","","","","","","585","cjm","practice","","","","","j","0","5","false","false","RIGHT","j","1","","","","",""
"","html-keyboard-response","18","7195557","0.0-30.0","dprk0dd9","1920","1080","","","","","","","","","","","null","+","Fixation - short","","","","","null","","","","","","","","","","","",""
"","html-keyboard-response","19","7195972","0.0-31.0","dprk0dd9","1920","1080","","","","","","","","","","","414","cjm","practice","","","","","j","0","6","false","false","RIGHT","j","1","","","","",""
"","html-keyboard-response","20","7196732","0.0-34.0","dprk0dd9","1920","1080","","","","","","","","","","","null","+","Fixation - short","","","","","null","","","","","","","","","","","",""
"","html-keyboard-response","21","7197243","0.0-35.0","dprk0dd9","1920","1080","","","","","","","","","","","511","f47","practice","","","","","f","0","7","false","false","RIGHT","j","0","","","","",""
"","call-function","22","7197243","0.0-37.0-0.0","dprk0dd9","","","","","","","","","","","","","","","","","","","","","","","","","","","","","","","",""
"","html-keyboard-response","23","7197544","0.0-37.0-1.0","dprk0dd9","1920","1080","","","","","","","","","","","null","Wrong","Feedback","","","","","null","","","","","","","","","","","",""
"","call-function","24","7197544","0.0-37.0-2.0","dprk0dd9","","","","","","","","","","","","","","","","","","","","","","","","","","","","","","","",""
"","html-keyboard-response","25","7198301","0.0-38.0","dprk0dd9","1920","1080","","","","","","","","","","","null","+","Fixation - short","","","","","null","","","","","","","","","","","",""
"","html-keyboard-response","26","7198984","0.0-39.0","dprk0dd9","1920","1080","","","","","","","","","","","683","cjm","practice","","","","","f","0","8","false","true","LEFT","f","1","","","","",""
"","html-keyboard-response","27","7199746","0.0-42.0","dprk0dd9","1920","1080","","","","","","","","","","","null","+","Fixation - short","","","","","null","","","","","","","","","","","",""
"","html-keyboard-response","28","7200284","0.0-43.0","dprk0dd9","1920","1080","","","","","","","","","","","538","f47","practice","","","","","j","0","9","false","false","RIGHT","j","1","","","","",""
"","html-keyboard-response","29","7201043","0.0-46.0","dprk0dd9","1920","1080","","","","","","","","","","","null","+","Fixation - short","","","","","null","","","","","","","","","","","",""
"","html-keyboard-response","30","7208228","0.0-47.0","dprk0dd9","1920","1080","","","","","","","","","","","7184","If cjm press LEFT | If f47 press RIGHT","Inducer instructions","","","",""," ","1","","","","","","","","","","",""
"","html-keyboard-response","31","7208982","0.0-50.0","dprk0dd9","1920","1080","","","","","","","","","","","null","+","Fixation - short","","","","","null","","","","","","","","","","","",""
"","html-keyboard-response","32","7209401","0.0-51.0","dprk0dd9","1920","1080","","","","","","","","","","","418","cjm","practice","","","","","f","0","0","false","true","LEFT","f","1","","","","",""
"","html-keyboard-response","33","7210153","0.0-54.0","dprk0dd9","1920","1080","","","","","","","","","","","null","+","Fixation - short","","","","","null","","","","","","","","","","","",""
"","html-keyboard-response","34","7210655","0.0-55.0","dprk0dd9","1920","1080","","","","","","","","","","","501","cjm","practice","","","","","f","0","1","false","false","RIGHT","j","0","","","","",""
"","call-function","35","7210655","0.0-57.0-0.0","dprk0dd9","","","","","","","","","","","","","","","","","","","","","","","","","","","","","","","",""
"","html-keyboard-response","36","7210967","0.0-57.0-1.0","dprk0dd9","1920","1080","","","","","","","","","","","null","Wrong","Feedback","","","","","null","","","","","","","","","","","",""
"","call-function","37","7210968","0.0-57.0-2.0","dprk0dd9","","","","","","","","","","","","","","","","","","","","","","","","","","","","","","","",""
"","html-keyboard-response","38","7211722","0.0-58.0","dprk0dd9","1920","1080","","","","","","","","","","","null","+","Fixation - short","","","","","null","","","","","","","","","","","",""
"","html-keyboard-response","39","7212481","0.0-59.0","dprk0dd9","1920","1080","","","","","","","","","","","759","cjm","practice","","","","","f","0","2","false","false","RIGHT","j","0","","","","",""
"","call-function","40","7212481","0.0-61.0-0.0","dprk0dd9","","","","","","","","","","","","","","","","","","","","","","","","","","","","","","","",""
"","html-keyboard-response","41","7212791","0.0-61.0-1.0","dprk0dd9","1920","1080","","","","","","","","","","","null","Wrong","Feedback","","","","","null","","","","","","","","","","","",""
"","call-function","42","7212791","0.0-61.0-2.0","dprk0dd9","","","","","","","","","","","","","","","","","","","","","","","","","","","","","","","",""
"","html-keyboard-response","43","7213543","0.0-62.0","dprk0dd9","1920","1080","","","","","","","","","","","null","+","Fixation - short","","","","","null","","","","","","","","","","","",""
"","html-keyboard-response","44","7214386","0.0-63.0","dprk0dd9","1920","1080","","","","","","","","","","","842","f47","practice","","","","","j","0","3","false","false","RIGHT","j","1","","","","",""
"","html-keyboard-response","45","7215147","0.0-66.0","dprk0dd9","1920","1080","","","","","","","","","","","null","+","Fixation - short","","","","","null","","","","","","","","","","","",""
"","html-keyboard-response","46","7215759","0.0-67.0","dprk0dd9","1920","1080","","","","","","","","","","","611","cjm","practice","","","","","j","0","4","false","false","RIGHT","j","1","","","","",""
"","html-keyboard-response","47","7216516","0.0-70.0","dprk0dd9","1920","1080","","","","","","","","","","","null","+","Fixation - short","","","","","null","","","","","","","","","","","",""
"","html-keyboard-response","48","7217199","0.0-71.0","dprk0dd9","1920","1080","","","","","","","","","","","683","cjm","practice","","","","","j","0","5","false","false","RIGHT","j","1","","","","",""
"","html-keyboard-response","49","7217958","0.0-74.0","dprk0dd9","1920","1080","","","","","","","","","","","null","+","Fixation - short","","","","","null","","","","","","","","","","","",""
"","html-keyboard-response","50","7218454","0.0-75.0","dprk0dd9","1920","1080","","","","","","","","","","","496","cjm","practice","","","","","j","0","6","false","false","RIGHT","j","1","","","","",""
"","html-keyboard-response","51","7219207","0.0-78.0","dprk0dd9","1920","1080","","","","","","","","","","","null","+","Fixation - short","","","","","null","","","","","","","","","","","",""
"","html-keyboard-response","52","7220045","0.0-79.0","dprk0dd9","1920","1080","","","","","","","","","","","838","f47","practice","","","","","f","0","7","false","true","LEFT","f","1","","","","",""
"","html-keyboard-response","53","7220810","0.0-82.0","dprk0dd9","1920","1080","","","","","","","","","","","null","+","Fixation - short","","","","","null","","","","","","","","","","","",""
"","html-keyboard-response","54","7221507","0.0-83.0","dprk0dd9","1920","1080","","","","","","","","","","","696","f47","practice","","","","","f","0","8","false","true","LEFT","f","1","","","","",""
"","html-keyboard-response","55","7222268","0.0-86.0","dprk0dd9","1920","1080","","","","","","","","","","","null","+","Fixation - short","","","","","null","","","","","","","","","","","",""
"","html-keyboard-response","56","7222792","0.0-87.0","dprk0dd9","1920","1080","","","","","","","","","","","523","f47","practice","","","","","j","0","9","false","false","RIGHT","j","1","","","","",""
"","html-keyboard-response","57","7223547","0.0-90.0","dprk0dd9","1920","1080","","","","","","","","","","","null","+","Fixation - short","","","","","null","","","","","","","","","","","",""
"","html-keyboard-response","58","7224361","0.0-91.0","dprk0dd9","1920","1080","","","","","","","","","","","813","f47","Inducer trial","","","","","j","practice","","true","","","j","1","RIGHT","","","",""
"","html-keyboard-response","59","7230910","0.0-94.0","dprk0dd9","1920","1080","","","","","","","","","","","6549","End practice","End of practice","","","",""," ","","","","","","","","","","","",""
"","html-keyboard-response","60","7231668","0.0-95.0","dprk0dd9","1920","1080","","","","","","","","","","","null","+","Fixation - short","","","","","null","","","","","","","","","","","",""
"","html-keyboard-response","61","7245565","0.0-96.0","dprk0dd9","1920","1080","","","","","","","","","","","13896","If dts press RIGHT | If fef press LEFT","Inducer instructions","","","",""," ","0","","","","","","","","","","",""
"","html-keyboard-response","62","7246321","0.0-97.0","dprk0dd9","1920","1080","","","","","","","","","","","null","+","Fixation - short","","","","","null","","","","","","","","","","","",""
"","html-keyboard-response","63","7246958","0.0-98.0","dprk0dd9","1920","1080","","","","","","","","","","","636","fef","Diagnostic trial","","","","","j","0","0","false","true","LEFT","f","0","LEFT","true","","",""
"","call-function","64","7246958","0.0-100.0-0.0","dprk0dd9","","","","","","","","","","","","","","","","","","","","","","","","","","","","","","","",""
"","html-keyboard-response","65","7247266","0.0-100.0-1.0","dprk0dd9","1920","1080","","","","","","","","","","","null","Wrong","Feedback","","","","","null","","","","","","","","","","","",""
"","call-function","66","7247266","0.0-100.0-2.0","dprk0dd9","","","","","","","","","","","","","","","","","","","","","","","","","","","","","","","",""
"","html-keyboard-response","67","7248023","0.0-101.0","dprk0dd9","1920","1080","","","","","","","","","","","null","+","Fixation - short","","","","","null","","","","","","","","","","","",""
"","html-keyboard-response","68","7248764","0.0-102.0","dprk0dd9","1920","1080","","","","","","","","","","","740","dts","Diagnostic trial","","","","","f","0","1","false","true","LEFT","f","1","RIGHT","false","","",""
"","html-keyboard-response","69","7249521","0.0-105.0","dprk0dd9","1920","1080","","","","","","","","","","","null","+","Fixation - short","","","","","null","","","","","","","","","","","",""
"","html-keyboard-response","70","7250517","0.0-106.0","dprk0dd9","1920","1080","","","","","","","","","","","995","fef","Diagnostic trial","","","","","f","0","2","false","true","LEFT","f","1","LEFT","true","","",""
"","html-keyboard-response","71","7251276","0.0-109.0","dprk0dd9","1920","1080","","","","","","","","","","","null","+","Fixation - short","","","","","null","","","","","","","","","","","",""
"","html-keyboard-response","72","7251936","0.0-110.0","dprk0dd9","1920","1080","","","","","","","","","","","659","dts","Diagnostic trial","","","","","f","0","3","false","true","LEFT","f","1","RIGHT","false","","",""
"","html-keyboard-response","73","7252691","0.0-113.0","dprk0dd9","1920","1080","","","","","","","","","","","null","+","Fixation - short","","","","","null","","","","","","","","","","","",""
"","html-keyboard-response","74","7253431","0.0-114.0","dprk0dd9","1920","1080","","","","","","","","","","","739","fef","Diagnostic trial","","","","","f","0","4","false","true","LEFT","f","1","LEFT","true","","",""
"","html-keyboard-response","75","7254195","0.0-117.0","dprk0dd9","1920","1080","","","","","","","","","","","null","+","Fixation - short","","","","","null","","","","","","","","","","","",""
"","html-keyboard-response","76","7254705","0.0-118.0","dprk0dd9","1920","1080","","","","","","","","","","","509","dts","Diagnostic trial","","","","","j","0","5","false","false","RIGHT","j","1","RIGHT","true","","",""
"","html-keyboard-response","77","7255469","0.0-121.0","dprk0dd9","1920","1080","","","","","","","","","","","null","+","Fixation - short","","","","","null","","","","","","","","","","","",""
"","html-keyboard-response","78","7256183","0.0-122.0","dprk0dd9","1920","1080","","","","","","","","","","","713","fef","Diagnostic trial","","","","","f","0","6","false","true","LEFT","f","1","LEFT","true","","",""
"","html-keyboard-response","79","7256938","0.0-125.0","dprk0dd9","1920","1080","","","","","","","","","","","null","+","Fixation - short","","","","","null","","","","","","","","","","","",""
"","html-keyboard-response","80","7257779","0.0-126.0","dprk0dd9","1920","1080","","","","","","","","","","","840","fef","Diagnostic trial","","","","","j","0","7","false","false","RIGHT","j","1","LEFT","false","","",""
"","html-keyboard-response","81","7258530","0.0-129.0","dprk0dd9","1920","1080","","","","","","","","","","","null","+","Fixation - short","","","","","null","","","","","","","","","","","",""
"","html-keyboard-response","82","7259018","0.0-130.0","dprk0dd9","1920","1080","","","","","","","","","","","488","dts","Diagnostic trial","","","","","f","0","8","false","true","LEFT","f","1","RIGHT","false","","",""
"","html-keyboard-response","83","7259771","0.0-133.0","dprk0dd9","1920","1080","","","","","","","","","","","null","+","Fixation - short","","","","","null","","","","","","","","","","","",""
"","html-keyboard-response","84","7260514","0.0-134.0","dprk0dd9","1920","1080","","","","","","","","","","","742","fef","Diagnostic trial","","","","","j","0","9","false","true","LEFT","f","0","LEFT","true","","",""
"","call-function","85","7260514","0.0-136.0-0.0","dprk0dd9","","","","","","","","","","","","","","","","","","","","","","","","","","","","","","","",""
"","html-keyboard-response","86","7260823","0.0-136.0-1.0","dprk0dd9","1920","1080","","","","","","","","","","","null","Wrong","Feedback","","","","","null","","","","","","","","","","","",""
"","call-function","87","7260823","0.0-136.0-2.0","dprk0dd9","","","","","","","","","","","","","","","","","","","","","","","","","","","","","","","",""
"","html-keyboard-response","88","7261589","0.0-137.0","dprk0dd9","1920","1080","","","","","","","","","","","null","+","Fixation - short","","","","","null","","","","","","","","","","","",""
"","html-keyboard-response","89","7262001","0.0-138.0","dprk0dd9","1920","1080","","","","","","","","","","","412","dts","Diagnostic trial","","","","","f","0","10","false","true","LEFT","f","1","RIGHT","false","","",""
"","html-keyboard-response","90","7262760","0.0-141.0","dprk0dd9","1920","1080","","","","","","","","","","","null","+","Fixation - short","","","","","null","","","","","","","","","","","",""
"","html-keyboard-response","91","7263243","0.0-142.0","dprk0dd9","1920","1080","","","","","","","","","","","482","dts","Diagnostic trial","","","","","j","0","11","false","false","RIGHT","j","1","RIGHT","true","","",""
"","html-keyboard-response","92","7264008","0.0-145.0","dprk0dd9","1920","1080","","","","","","","","","","","null","+","Fixation - short","","","","","null","","","","","","","","","","","",""
"","html-keyboard-response","93","7264570","0.0-146.0","dprk0dd9","1920","1080","","","","","","","","","","","562","dts","Diagnostic trial","","","","","f","0","12","false","true","LEFT","f","1","RIGHT","false","","",""
"","html-keyboard-response","94","7265326","0.0-149.0","dprk0dd9","1920","1080","","","","","","","","","","","null","+","Fixation - short","","","","","null","","","","","","","","","","","",""
"","html-keyboard-response","95","7265726","0.0-150.0","dprk0dd9","1920","1080","","","","","","","","","","","400","fef","Diagnostic trial","","","","","j","0","13","false","false","RIGHT","j","1","LEFT","false","","",""
"","html-keyboard-response","96","7266486","0.0-153.0","dprk0dd9","1920","1080","","","","","","","","","","","null","+","Fixation - short","","","","","null","","","","","","","","","","","",""
"","html-keyboard-response","97","7266967","0.0-154.0","dprk0dd9","1920","1080","","","","","","","","","","","480","dts","Inducer trial","","","","","j","0","","true","","","j","1","RIGHT","","","",""
"","html-keyboard-response","98","7268478","0.0-157.0","dprk0dd9","1920","1080","","","","","","","","","","","null","+","Fixation - long","","","","","null","","","","","","","","","","","",""
"","html-keyboard-response","99","7273478","0.0-158.0","dprk0dd9","1920","1080","","","","","","","","","","","4999","If abv press RIGHT | If hyo press LEFT","Inducer instructions","","","",""," ","1","","","","","","","","","","",""
"","html-keyboard-response","100","7274238","0.0-159.0","dprk0dd9","1920","1080","","","","","","","","","","","null","+","Fixation - short","","","","","null","","","","","","","","","","","",""
"","html-keyboard-response","101","7274777","0.0-160.0","dprk0dd9","1920","1080","","","","","","","","","","","540","hyo","Diagnostic trial","","","","","j","1","0","false","false","RIGHT","j","1","LEFT","false","","",""
"","html-keyboard-response","102","7275538","0.0-163.0","dprk0dd9","1920","1080","","","","","","","","","","","null","+","Fixation - short","","","","","null","","","","","","","","","","","",""
"","html-keyboard-response","103","7275880","0.0-164.0","dprk0dd9","1920","1080","","","","","","","","","","","341","hyo","Diagnostic trial","","","","","j","1","1","false","false","RIGHT","j","1","LEFT","false","","",""
"","html-keyboard-response","104","7276639","0.0-167.0","dprk0dd9","1920","1080","","","","","","","","","","","null","+","Fixation - short","","","","","null","","","","","","","","","","","",""
"","html-keyboard-response","105","7277030","0.0-168.0","dprk0dd9","1920","1080","","","","","","","","","","","390","hyo","Diagnostic trial","","","","","f","1","2","false","true","LEFT","f","1","LEFT","true","","",""
"","html-keyboard-response","106","7277787","0.0-171.0","dprk0dd9","1920","1080","","","","","","","","","","","null","+","Fixation - short","","","","","null","","","","","","","","","","","",""
"","html-keyboard-response","107","7278196","0.0-172.0","dprk0dd9","1920","1080","","","","","","","","","","","409","hyo","Diagnostic trial","","","","","f","1","3","false","true","LEFT","f","1","LEFT","true","","",""
"","html-keyboard-response","108","7278954","0.0-175.0","dprk0dd9","1920","1080","","","","","","","","","","","null","+","Fixation - short","","","","","null","","","","","","","","","","","",""
"","html-keyboard-response","109","7279431","0.0-176.0","dprk0dd9","1920","1080","","","","","","","","","","","476","hyo","Diagnostic trial","","","","","j","1","4","false","false","RIGHT","j","1","LEFT","false","","",""
"","html-keyboard-response","110","7280196","0.0-179.0","dprk0dd9","1920","1080","","","","","","","","","","","null","+","Fixation - short","","","","","null","","","","","","","","","","","",""
"","html-keyboard-response","111","7280664","0.0-180.0","dprk0dd9","1920","1080","","","","","","","","","","","468","abv","Inducer trial","","","","","j","1","","true","","","j","1","RIGHT","","","",""
"","html-keyboard-response","112","7282171","0.0-183.0","dprk0dd9","1920","1080","","","","","","","","","","","null","+","Fixation - long","","","","","null","","","","","","","","","","","",""
"","html-keyboard-response","113","7286979","0.0-184.0","dprk0dd9","1920","1080","","","","","","","","","","","4807","If w&d press RIGHT | If xss press LEFT","Inducer instructions","","","",""," ","2","","","","","","","","","","",""
"","html-keyboard-response","114","7287738","0.0-185.0","dprk0dd9","1920","1080","","","","","","","","","","","null","+","Fixation - short","","","","","null","","","","","","","","","","","",""
"","html-keyboard-response","115","7288096","0.0-186.0","dprk0dd9","1920","1080","","","","","","","","","","","357","w&d","Diagnostic trial","","","","","j","2","0","false","false","RIGHT","j","1","RIGHT","true","","",""
"","html-keyboard-response","116","7288855","0.0-189.0","dprk0dd9","1920","1080","","","","","","","","","","","null","+","Fixation - short","","","","","null","","","","","","","","","","","",""
"","html-keyboard-response","117","7289158","0.0-190.0","dprk0dd9","1920","1080","","","","","","","","","","","303","xss","Diagnostic trial","","","","","j","2","1","false","false","RIGHT","j","1","LEFT","false","","",""
"","html-keyboard-response","118","7289911","0.0-193.0","dprk0dd9","1920","1080","","","","","","","","","","","null","+","Fixation - short","","","","","null","","","","","","","","","","","",""
"","html-keyboard-response","119","7290230","0.0-194.0","dprk0dd9","1920","1080","","","","","","","","","","","318","w&d","Diagnostic trial","","","","","j","2","2","false","false","RIGHT","j","1","RIGHT","true","","",""
"","html-keyboard-response","120","7290988","0.0-197.0","dprk0dd9","1920","1080","","","","","","","","","","","null","+","Fixation - short","","","","","null","","","","","","","","","","","",""
"","html-keyboard-response","121","7291309","0.0-198.0","dprk0dd9","1920","1080","","","","","","","","","","","321","xss","Diagnostic trial","","","","","j","2","3","false","true","LEFT","f","0","LEFT","true","","",""
"","call-function","122","7291310","0.0-200.0-0.0","dprk0dd9","","","","","","","","","","","","","","","","","","","","","","","","","","","","","","","",""
"","html-keyboard-response","123","7291610","0.0-200.0-1.0","dprk0dd9","1920","1080","","","","","","","","","","","null","Wrong","Feedback","","","","","null","","","","","","","","","","","",""
"","call-function","124","7291611","0.0-200.0-2.0","dprk0dd9","","","","","","","","","","","","","","","","","","","","","","","","","","","","","","","",""
"","html-keyboard-response","125","7292363","0.0-201.0","dprk0dd9","1920","1080","","","","","","","","","","","null","+","Fixation - short","","","","","null","","","","","","","","","","","",""
"","html-keyboard-response","126","7292754","0.0-202.0","dprk0dd9","1920","1080","","","","","","","","","","","392","w&d","Diagnostic trial","","","","","j","2","4","false","true","LEFT","f","0","RIGHT","false","","",""
"","call-function","127","7292755","0.0-204.0-0.0","dprk0dd9","","","","","","","","","","","","","","","","","","","","","","","","","","","","","","","",""
"","html-keyboard-response","128","7293060","0.0-204.0-1.0","dprk0dd9","1920","1080","","","","","","","","","","","null","Wrong","Feedback","","","","","null","","","","","","","","","","","",""
"","call-function","129","7293060","0.0-204.0-2.0","dprk0dd9","","","","","","","","","","","","","","","","","","","","","","","","","","","","","","","",""
"","html-keyboard-response","130","7293823","0.0-205.0","dprk0dd9","1920","1080","","","","","","","","","","","null","+","Fixation - short","","","","","null","","","","","","","","","","","",""
"","html-keyboard-response","131","7294380","0.0-206.0","dprk0dd9","1920","1080","","","","","","","","","","","557","w&d","Diagnostic trial","","","","","j","2","5","false","false","RIGHT","j","1","RIGHT","true","","",""
"","html-keyboard-response","132","7295133","0.0-209.0","dprk0dd9","1920","1080","","","","","","","","","","","null","+","Fixation - short","","","","","null","","","","","","","","","","","",""
"","html-keyboard-response","133","7295712","0.0-210.0","dprk0dd9","1920","1080","","","","","","","","","","","580","xss","Diagnostic trial","","","","","j","2","6","false","false","RIGHT","j","1","LEFT","false","","",""
"","html-keyboard-response","134","7296477","0.0-213.0","dprk0dd9","1920","1080","","","","","","","","","","","null","+","Fixation - short","","","","","null","","","","","","","","","","","",""
"","html-keyboard-response","135","7296877","0.0-214.0","dprk0dd9","1920","1080","","","","","","","","","","","399","xss","Diagnostic trial","","","","","j","2","7","false","false","RIGHT","j","1","LEFT","false","","",""
"","html-keyboard-response","136","7297638","0.0-217.0","dprk0dd9","1920","1080","","","","","","","","","","","null","+","Fixation - short","","","","","null","","","","","","","","","","","",""
"","html-keyboard-response","137","7297978","0.0-218.0","dprk0dd9","1920","1080","","","","","","","","","","","339","xss","Diagnostic trial","","","","","j","2","8","false","false","RIGHT","j","1","LEFT","false","","",""
"","html-keyboard-response","138","7298732","0.0-221.0","dprk0dd9","1920","1080","","","","","","","","","","","null","+","Fixation - short","","","","","null","","","","","","","","","","","",""
"","html-keyboard-response","139","7299128","0.0-222.0","dprk0dd9","1920","1080","","","","","","","","","","","396","xss","Diagnostic trial","","","","","j","2","9","false","false","RIGHT","j","1","LEFT","false","","",""
"","html-keyboard-response","140","7299890","0.0-225.0","dprk0dd9","1920","1080","","","","","","","","","","","null","+","Fixation - short","","","","","null","","","","","","","","","","","",""
"","html-keyboard-response","141","7300422","0.0-226.0","dprk0dd9","1920","1080","","","","","","","","","","","531","xss","Diagnostic trial","","","","","j","2","10","false","false","RIGHT","j","1","LEFT","false","","",""
"","html-keyboard-response","142","7301178","0.0-229.0","dprk0dd9","1920","1080","","","","","","","","","","","null","+","Fixation - short","","","","","null","","","","","","","","","","","",""
"","html-keyboard-response","143","7301533","0.0-230.0","dprk0dd9","1920","1080","","","","","","","","","","","355","xss","Diagnostic trial","","","","","j","2","11","false","false","RIGHT","j","1","LEFT","false","","",""
"","html-keyboard-response","144","7302293","0.0-233.0","dprk0dd9","1920","1080","","","","","","","","","","","null","+","Fixation - short","","","","","null","","","","","","","","","","","",""
"","html-keyboard-response","145","7302768","0.0-234.0","dprk0dd9","1920","1080","","","","","","","","","","","475","xss","Inducer trial","","","","","j","2","","true","","","f","0","LEFT","","","",""
"","call-function","146","7302768","0.0-236.0-0.0","dprk0dd9","","","","","","","","","","","","","","","","","","","","","","","","","","","","","","","",""
"","html-keyboard-response","147","7303068","0.0-236.0-1.0","dprk0dd9","1920","1080","","","","","","","","","","","null","Wrong","Feedback","","","","","null","","","","","","","","","","","",""
"","call-function","148","7303068","0.0-236.0-2.0","dprk0dd9","","","","","","","","","","","","","","","","","","","","","","","","","","","","","","","",""
"","html-keyboard-response","149","7304582","0.0-237.0","dprk0dd9","1920","1080","","","","","","","","","","","null","+","Fixation - long","","","","","null","","","","","","","","","","","",""
"","html-keyboard-response","150","7312114","0.0-238.0","dprk0dd9","1920","1080","","","","","","","","","","","7531","If ctv press LEFT | If ubr press RIGHT","Inducer instructions","","","",""," ","3","","","","","","","","","","",""
"","html-keyboard-response","151","7312879","0.0-239.0","dprk0dd9","1920","1080","","","","","","","","","","","null","+","Fixation - short","","","","","null","","","","","","","","","","","",""
"","html-keyboard-response","152","7313456","0.0-240.0","dprk0dd9","1920","1080","","","","","","","","","","","577","ctv","Diagnostic trial","","","","","f","3","0","false","false","RIGHT","j","0","LEFT","false","","",""
"","call-function","153","7313456","0.0-242.0-0.0","dprk0dd9","","","","","","","","","","","","","","","","","","","","","","","","","","","","","","","",""
"","html-keyboard-response","154","7313770","0.0-242.0-1.0","dprk0dd9","1920","1080","","","","","","","","","","","null","Wrong","Feedback","","","","","null","","","","","","","","","","","",""
"","call-function","155","7313770","0.0-242.0-2.0","dprk0dd9","","","","","","","","","","","","","","","","","","","","","","","","","","","","","","","",""
"","html-keyboard-response","156","7314531","0.0-243.0","dprk0dd9","1920","1080","","","","","","","","","","","null","+","Fixation - short","","","","","null","","","","","","","","","","","",""
"","html-keyboard-response","157","7315191","0.0-244.0","dprk0dd9","1920","1080","","","","","","","","","","","659","ubr","Diagnostic trial","","","","","f","3","1","false","true","LEFT","f","1","RIGHT","false","","",""
"","html-keyboard-response","158","7315949","0.0-247.0","dprk0dd9","1920","1080","","","","","","","","","","","null","+","Fixation - short","","","","","null","","","","","","","","","","","",""
"","html-keyboard-response","159","7316635","0.0-248.0","dprk0dd9","1920","1080","","","","","","","","","","","686","ubr","Diagnostic trial","","","","","j","3","2","false","false","RIGHT","j","1","RIGHT","true","","",""
"","html-keyboard-response","160","7317387","0.0-251.0","dprk0dd9","1920","1080","","","","","","","","","","","null","+","Fixation - short","","","","","null","","","","","","","","","","","",""
"","html-keyboard-response","161","7317791","0.0-252.0","dprk0dd9","1920","1080","","","","","","","","","","","404","ubr","Diagnostic trial","","","","","j","3","3","false","true","LEFT","f","0","RIGHT","false","","",""
"","call-function","162","7317792","0.0-254.0-0.0","dprk0dd9","","","","","","","","","","","","","","","","","","","","","","","","","","","","","","","",""
"","html-keyboard-response","163","7318106","0.0-254.0-1.0","dprk0dd9","1920","1080","","","","","","","","","","","null","Wrong","Feedback","","","","","null","","","","","","","","","","","",""
"","call-function","164","7318107","0.0-254.0-2.0","dprk0dd9","","","","","","","","","","","","","","","","","","","","","","","","","","","","","","","",""
"","html-keyboard-response","165","7318872","0.0-255.0","dprk0dd9","1920","1080","","","","","","","","","","","null","+","Fixation - short","","","","","null","","","","","","","","","","","",""
"","html-keyboard-response","166","7319294","0.0-256.0","dprk0dd9","1920","1080","","","","","","","","","","","422","ctv","Diagnostic trial","","","","","j","3","4","false","false","RIGHT","j","1","LEFT","false","","",""
"","html-keyboard-response","167","7320051","0.0-259.0","dprk0dd9","1920","1080","","","","","","","","","","","null","+","Fixation - short","","","","","null","","","","","","","","","","","",""
"","html-keyboard-response","168","7320550","0.0-260.0","dprk0dd9","1920","1080","","","","","","","","","","","499","ubr","Inducer trial","","","","","j","3","","true","","","j","1","RIGHT","","","",""
"","html-keyboard-response","169","7322061","0.0-263.0","dprk0dd9","1920","1080","","","","","","","","","","","null","+","Fixation - long","","","","","null","","","","","","","","","","","",""
"","html-keyboard-response","170","7324023","0.0-264.0","dprk0dd9","1920","1080","","","","","","","","","","","1961","If iec press RIGHT | If afb press LEFT","Inducer instructions","","","",""," ","4","","","","","","","","","","",""
"","html-keyboard-response","171","7324780","0.0-265.0","dprk0dd9","1920","1080","","","","","","","","","","","null","+","Fixation - short","","","","","null","","","","","","","","","","","",""
"","html-keyboard-response","172","7325552","0.0-266.0","dprk0dd9","1920","1080","","","","","","","","","","","771","iec","Diagnostic trial","","","","","j","4","0","false","false","RIGHT","j","1","RIGHT","true","","",""
"","html-keyboard-response","173","7326315","0.0-269.0","dprk0dd9","1920","1080","","","","","","","","","","","null","+","Fixation - short","","","","","null","","","","","","","","","","","",""
"","html-keyboard-response","174","7326647","0.0-270.0","dprk0dd9","1920","1080","","","","","","","","","","","332","iec","Diagnostic trial","","","","","j","4","1","false","false","RIGHT","j","1","RIGHT","true","","",""
"","html-keyboard-response","175","7327399","0.0-273.0","dprk0dd9","1920","1080","","","","","","","","","","","null","+","Fixation - short","","","","","null","","","","","","","","","","","",""
"","html-keyboard-response","176","7327916","0.0-274.0","dprk0dd9","1920","1080","","","","","","","","","","","516","afb","Diagnostic trial","","","","","f","4","2","false","true","LEFT","f","1","LEFT","true","","",""
"","html-keyboard-response","177","7328670","0.0-277.0","dprk0dd9","1920","1080","","","","","","","","","","","null","+","Fixation - short","","","","","null","","","","","","","","","","","",""
"","html-keyboard-response","178","7329139","0.0-278.0","dprk0dd9","1920","1080","","","","","","","","","","","469","iec","Diagnostic trial","","","","","j","4","3","false","false","RIGHT","j","1","RIGHT","true","","",""
"","html-keyboard-response","179","7329892","0.0-281.0","dprk0dd9","1920","1080","","","","","","","","","","","null","+","Fixation - short","","","","","null","","","","","","","","","","","",""
"","html-keyboard-response","180","7330399","0.0-282.0","dprk0dd9","1920","1080","","","","","","","","","","","507","iec","Diagnostic trial","","","","","f","4","4","false","true","LEFT","f","1","RIGHT","false","","",""
"","html-keyboard-response","181","7331164","0.0-285.0","dprk0dd9","1920","1080","","","","","","","","","","","null","+","Fixation - short","","","","","null","","","","","","","","","","","",""
"","html-keyboard-response","182","7331594","0.0-286.0","dprk0dd9","1920","1080","","","","","","","","","","","429","iec","Diagnostic trial","","","","","j","4","5","false","false","RIGHT","j","1","RIGHT","true","","",""
"","html-keyboard-response","183","7332353","0.0-289.0","dprk0dd9","1920","1080","","","","","","","","","","","null","+","Fixation - short","","","","","null","","","","","","","","","","","",""
"","html-keyboard-response","184","7332926","0.0-290.0","dprk0dd9","1920","1080","","","","","","","","","","","572","afb","Diagnostic trial","","","","","j","4","6","false","false","RIGHT","j","1","LEFT","false","","",""
"","html-keyboard-response","185","7333678","0.0-293.0","dprk0dd9","1920","1080","","","","","","","","","","","null","+","Fixation - short","","","","","null","","","","","","","","","","","",""
"","html-keyboard-response","186","7334240","0.0-294.0","dprk0dd9","1920","1080","","","","","","","","","","","561","iec","Diagnostic trial","","","","","f","4","7","false","true","LEFT","f","1","RIGHT","false","","",""
"","html-keyboard-response","187","7334993","0.0-297.0","dprk0dd9","1920","1080","","","","","","","","","","","null","+","Fixation - short","","","","","null","","","","","","","","","","","",""
"","html-keyboard-response","188","7335552","0.0-298.0","dprk0dd9","1920","1080","","","","","","","","","","","560","iec","Inducer trial","","","","","j","4","","true","","","j","1","RIGHT","","","",""
"","html-keyboard-response","189","7337062","0.0-301.0","dprk0dd9","1920","1080","","","","","","","","","","","null","+","Fixation - long","","","","","null","","","","","","","","","","","",""
"","html-keyboard-response","190","7340467","0.0-302.0","dprk0dd9","1920","1080","","","","","","","","","","","3406","If ozu press LEFT | If me1 press RIGHT","Inducer instructions","","","",""," ","5","","","","","","","","","","",""
"","html-keyboard-response","191","7341223","0.0-303.0","dprk0dd9","1920","1080","","","","","","","","","","","null","+","Fixation - short","","","","","null","","","","","","","","","","","",""
"","html-keyboard-response","192","7341828","0.0-304.0","dprk0dd9","1920","1080","","","","","","","","","","","604","ozu","Diagnostic trial","","","","","f","5","0","false","true","LEFT","f","1","LEFT","true","","",""
"","html-keyboard-response","193","7342584","0.0-307.0","dprk0dd9","1920","1080","","","","","","","","","","","null","+","Fixation - short","","","","","null","","","","","","","","","","","",""
"","html-keyboard-response","194","7342936","0.0-308.0","dprk0dd9","1920","1080","","","","","","","","","","","351","ozu","Diagnostic trial","","","","","f","5","1","false","true","LEFT","f","1","LEFT","true","","",""
"","html-keyboard-response","195","7343687","0.0-311.0","dprk0dd9","1920","1080","","","","","","","","","","","null","+","Fixation - short","","","","","null","","","","","","","","","","","",""
"","html-keyboard-response","196","7344042","0.0-312.0","dprk0dd9","1920","1080","","","","","","","","","","","355","ozu","Diagnostic trial","","","","","f","5","2","false","true","LEFT","f","1","LEFT","true","","",""
"","html-keyboard-response","197","7344805","0.0-315.0","dprk0dd9","1920","1080","","","","","","","","","","","null","+","Fixation - short","","","","","null","","","","","","","","","","","",""
"","html-keyboard-response","198","7345235","0.0-316.0","dprk0dd9","1920","1080","","","","","","","","","","","429","ozu","Diagnostic trial","","","","","f","5","3","false","true","LEFT","f","1","LEFT","true","","",""
"","html-keyboard-response","199","7345996","0.0-319.0","dprk0dd9","1920","1080","","","","","","","","","","","null","+","Fixation - short","","","","","null","","","","","","","","","","","",""
"","html-keyboard-response","200","7346478","0.0-320.0","dprk0dd9","1920","1080","","","","","","","","","","","482","ozu","Inducer trial","","","","","f","5","","true","","","f","1","LEFT","","","",""
"","html-keyboard-response","201","7347983","0.0-323.0","dprk0dd9","1920","1080","","","","","","","","","","","null","+","Fixation - long","","","","","null","","","","","","","","","","","",""
"","html-keyboard-response","202","7350637","0.0-324.0","dprk0dd9","1920","1080","","","","","","","","","","","2653","If wjb press LEFT | If lpo press RIGHT","Inducer instructions","","","",""," ","6","","","","","","","","","","",""
"","html-keyboard-response","203","7351401","0.0-325.0","dprk0dd9","1920","1080","","","","","","","","","","","null","+","Fixation - short","","","","","null","","","","","","","","","","","",""
"","html-keyboard-response","204","7353412","0.0-326.0","dprk0dd9","1920","1080","","","","","","","","","","","null","wjb","Diagnostic trial","","","","","null","6","0","false","false","RIGHT","j","NaN","LEFT","false","","",""
"","call-function","205","7353412","0.0-327.0-0.0","dprk0dd9","","","","","","","","","","","","","","","","","","","","","","","","","","","","","","","",""
"","html-keyboard-response","206","7353725","0.0-327.0-1.0","dprk0dd9","1920","1080","","","","","","","","","","","null","Slow","Feedback","","","","","null","","","","","","","","","","","",""
"","call-function","207","7353725","0.0-327.0-2.0","dprk0dd9","","","","","","","","","","","","","","","","","","","","","","","","","","","","","","","",""
"","html-keyboard-response","208","7354476","0.0-329.0","dprk0dd9","1920","1080","","","","","","","","","","","null","+","Fixation - short","","","","","null","","","","","","","","","","","",""
"","html-keyboard-response","209","7355208","0.0-330.0","dprk0dd9","1920","1080","","","","","","","","","","","731","lpo","Diagnostic trial","","","","","f","6","1","false","true","LEFT","f","1","RIGHT","false","","",""
"","html-keyboard-response","210","7355965","0.0-333.0","dprk0dd9","1920","1080","","","","","","","","","","","null","+","Fixation - short","","","","","null","","","","","","","","","","","",""
"","html-keyboard-response","211","7356414","0.0-334.0","dprk0dd9","1920","1080","","","","","","","","","","","448","lpo","Diagnostic trial","","","","","f","6","2","false","true","LEFT","f","1","RIGHT","false","","",""
"","html-keyboard-response","212","7357166","0.0-337.0","dprk0dd9","1920","1080","","","","","","","","","","","null","+","Fixation - short","","","","","null","","","","","","","","","","","",""
"","html-keyboard-response","213","7357619","0.0-338.0","dprk0dd9","1920","1080","","","","","","","","","","","453","wjb","Diagnostic trial","","","","","j","6","3","false","false","RIGHT","j","1","LEFT","false","","",""
"","html-keyboard-response","214","7358374","0.0-341.0","dprk0dd9","1920","1080","","","","","","","","","","","null","+","Fixation - short","","","","","null","","","","","","","","","","","",""
"","html-keyboard-response","215","7358924","0.0-342.0","dprk0dd9","1920","1080","","","","","","","","","","","550","lpo","Diagnostic trial","","","","","j","6","4","false","false","RIGHT","j","1","RIGHT","true","","",""
"","html-keyboard-response","216","7359676","0.0-345.0","dprk0dd9","1920","1080","","","","","","","","","","","null","+","Fixation - short","","","","","null","","","","","","","","","","","",""
"","html-keyboard-response","217","7360211","0.0-346.0","dprk0dd9","1920","1080","","","","","","","","","","","535","lpo","Inducer trial","","","","","j","6","","true","","","j","1","RIGHT","","","",""
"","html-keyboard-response","218","7361721","0.0-349.0","dprk0dd9","1920","1080","","","","","","","","","","","null","+","Fixation - long","","","","","null","","","","","","","","","","","",""
"","html-keyboard-response","219","7369904","0.0-350.0","dprk0dd9","1920","1080","","","","","","","","","","","8183","If oco press RIGHT | If wma press LEFT","Inducer instructions","","","",""," ","7","","","","","","","","","","",""
"","html-keyboard-response","220","7370655","0.0-351.0","dprk0dd9","1920","1080","","","","","","","","","","","null","+","Fixation - short","","","","","null","","","","","","","","","","","",""
"","html-keyboard-response","221","7371221","0.0-352.0","dprk0dd9","1920","1080","","","","","","","","","","","565","wma","Diagnostic trial","","","","","j","7","0","false","false","RIGHT","j","1","LEFT","false","","",""
"","html-keyboard-response","222","7371982","0.0-355.0","dprk0dd9","1920","1080","","","","","","","","","","","null","+","Fixation - short","","","","","null","","","","","","","","","","","",""
"","html-keyboard-response","223","7372378","0.0-356.0","dprk0dd9","1920","1080","","","","","","","","","","","395","oco","Diagnostic trial","","","","","j","7","1","false","false","RIGHT","j","1","RIGHT","true","","",""
"","html-keyboard-response","224","7373136","0.0-359.0","dprk0dd9","1920","1080","","","","","","","","","","","null","+","Fixation - short","","","","","null","","","","","","","","","","","",""
"","html-keyboard-response","225","7373546","0.0-360.0","dprk0dd9","1920","1080","","","","","","","","","","","409","wma","Diagnostic trial","","","","","j","7","2","false","false","RIGHT","j","1","LEFT","false","","",""
"","html-keyboard-response","226","7374308","0.0-363.0","dprk0dd9","1920","1080","","","","","","","","","","","null","+","Fixation - short","","","","","null","","","","","","","","","","","",""
"","html-keyboard-response","227","7374802","0.0-364.0","dprk0dd9","1920","1080","","","","","","","","","","","494","wma","Diagnostic trial","","","","","f","7","3","false","true","LEFT","f","1","LEFT","true","","",""
"","html-keyboard-response","228","7375554","0.0-367.0","dprk0dd9","1920","1080","","","","","","","","","","","null","+","Fixation - short","","","","","null","","","","","","","","","","","",""
"","html-keyboard-response","229","7376191","0.0-368.0","dprk0dd9","1920","1080","","","","","","","","","","","637","wma","Inducer trial","","","","","j","7","","true","","","f","0","LEFT","","","",""
"","call-function","230","7376191","0.0-370.0-0.0","dprk0dd9","","","","","","","","","","","","","","","","","","","","","","","","","","","","","","","",""
"","html-keyboard-response","231","7376495","0.0-370.0-1.0","dprk0dd9","1920","1080","","","","","","","","","","","null","Wrong","Feedback","","","","","null","","","","","","","","","","","",""
"","call-function","232","7376495","0.0-370.0-2.0","dprk0dd9","","","","","","","","","","","","","","","","","","","","","","","","","","","","","","","",""
"","html-keyboard-response","233","7377998","0.0-371.0","dprk0dd9","1920","1080","","","","","","","","","","","null","+","Fixation - long","","","","","null","","","","","","","","","","","",""
"","html-keyboard-response","234","7381802","0.0-372.0","dprk0dd9","1920","1080","","","","","","","","","","","3804","If bsl press LEFT | If lst press RIGHT","Inducer instructions","","","",""," ","8","","","","","","","","","","",""
"","html-keyboard-response","235","7382557","0.0-373.0","dprk0dd9","1920","1080","","","","","","","","","","","null","+","Fixation - short","","","","","null","","","","","","","","","","","",""
"","html-keyboard-response","236","7383130","0.0-374.0","dprk0dd9","1920","1080","","","","","","","","","","","572","lst","Diagnostic trial","","","","","f","8","0","false","true","LEFT","f","1","RIGHT","false","","",""
"","html-keyboard-response","237","7383885","0.0-377.0","dprk0dd9","1920","1080","","","","","","","","","","","null","+","Fixation - short","","","","","null","","","","","","","","","","","",""
"","html-keyboard-response","238","7384374","0.0-378.0","dprk0dd9","1920","1080","","","","","","","","","","","489","lst","Diagnostic trial","","","","","f","8","1","false","true","LEFT","f","1","RIGHT","false","","",""
"","html-keyboard-response","239","7385137","0.0-381.0","dprk0dd9","1920","1080","","","","","","","","","","","null","+","Fixation - short","","","","","null","","","","","","","","","","","",""
"","html-keyboard-response","240","7385593","0.0-382.0","dprk0dd9","1920","1080","","","","","","","","","","","455","bsl","Diagnostic trial","","","","","j","8","2","false","false","RIGHT","j","1","LEFT","false","","",""
"","html-keyboard-response","241","7386356","0.0-385.0","dprk0dd9","1920","1080","","","","","","","","","","","null","+","Fixation - short","","","","","null","","","","","","","","","","","",""
"","html-keyboard-response","242","7386931","0.0-386.0","dprk0dd9","1920","1080","","","","","","","","","","","575","lst","Diagnostic trial","","","","","j","8","3","false","false","RIGHT","j","1","RIGHT","true","","",""
"","html-keyboard-response","243","7387690","0.0-389.0","dprk0dd9","1920","1080","","","","","","","","","","","null","+","Fixation - short","","","","","null","","","","","","","","","","","",""
"","html-keyboard-response","244","7388542","0.0-390.0","dprk0dd9","1920","1080","","","","","","","","","","","853","bsl","Diagnostic trial","","","","","j","8","4","false","false","RIGHT","j","1","LEFT","false","","",""
"","html-keyboard-response","245","7389300","0.0-393.0","dprk0dd9","1920","1080","","","","","","","","","","","null","+","Fixation - short","","","","","null","","","","","","","","","","","",""
"","html-keyboard-response","246","7389998","0.0-394.0","dprk0dd9","1920","1080","","","","","","","","","","","698","lst","Diagnostic trial","","","","","f","8","5","false","false","RIGHT","j","0","RIGHT","true","","",""
"","call-function","247","7389998","0.0-396.0-0.0","dprk0dd9","","","","","","","","","","","","","","","","","","","","","","","","","","","","","","","",""
"","html-keyboard-response","248","7390309","0.0-396.0-1.0","dprk0dd9","1920","1080","","","","","","","","","","","null","Wrong","Feedback","","","","","null","","","","","","","","","","","",""
"","call-function","249","7390309","0.0-396.0-2.0","dprk0dd9","","","","","","","","","","","","","","","","","","","","","","","","","","","","","","","",""
"","html-keyboard-response","250","7391074","0.0-397.0","dprk0dd9","1920","1080","","","","","","","","","","","null","+","Fixation - short","","","","","null","","","","","","","","","","","",""
"","html-keyboard-response","251","7391605","0.0-398.0","dprk0dd9","1920","1080","","","","","","","","","","","531","bsl","Diagnostic trial","","","","","j","8","6","false","false","RIGHT","j","1","LEFT","false","","",""
"","html-keyboard-response","252","7392370","0.0-401.0","dprk0dd9","1920","1080","","","","","","","","","","","null","+","Fixation - short","","","","","null","","","","","","","","","","","",""
"","html-keyboard-response","253","7392758","0.0-402.0","dprk0dd9","1920","1080","","","","","","","","","","","388","bsl","Diagnostic trial","","","","","j","8","7","false","false","RIGHT","j","1","LEFT","false","","",""
"","html-keyboard-response","254","7393511","0.0-405.0","dprk0dd9","1920","1080","","","","","","","","","","","null","+","Fixation - short","","","","","null","","","","","","","","","","","",""
"","html-keyboard-response","255","7394140","0.0-406.0","dprk0dd9","1920","1080","","","","","","","","","","","629","lst","Diagnostic trial","","","","","f","8","8","false","true","LEFT","f","1","RIGHT","false","","",""
"","html-keyboard-response","256","7394904","0.0-409.0","dprk0dd9","1920","1080","","","","","","","","","","","null","+","Fixation - short","","","","","null","","","","","","","","","","","",""
"","html-keyboard-response","257","7395532","0.0-410.0","dprk0dd9","1920","1080","","","","","","","","","","","628","bsl","Inducer trial","","","","","j","8","","true","","","f","0","LEFT","","","",""
"","call-function","258","7395532","0.0-412.0-0.0","dprk0dd9","","","","","","","","","","","","","","","","","","","","","","","","","","","","","","","",""
"","html-keyboard-response","259","7395842","0.0-412.0-1.0","dprk0dd9","1920","1080","","","","","","","","","","","null","Wrong","Feedback","","","","","null","","","","","","","","","","","",""
"","call-function","260","7395842","0.0-412.0-2.0","dprk0dd9","","","","","","","","","","","","","","","","","","","","","","","","","","","","","","","",""
"","html-keyboard-response","261","7397356","0.0-413.0","dprk0dd9","1920","1080","","","","","","","","","","","null","+","Fixation - long","","","","","null","","","","","","","","","","","",""
"","html-keyboard-response","262","7400376","0.0-414.0","dprk0dd9","1920","1080","","","","","","","","","","","3020","If mav press LEFT | If uau press RIGHT","Inducer instructions","","","",""," ","9","","","","","","","","","","",""
"","html-keyboard-response","263","7401128","0.0-415.0","dprk0dd9","1920","1080","","","","","","","","","","","null","+","Fixation - short","","","","","null","","","","","","","","","","","",""
"","html-keyboard-response","264","7402189","0.0-416.0","dprk0dd9","1920","1080","","","","","","","","","","","1061","uau","Diagnostic trial","","","","","j","9","0","false","false","RIGHT","j","1","RIGHT","true","","",""
"","html-keyboard-response","265","7402945","0.0-419.0","dprk0dd9","1920","1080","","","","","","","","","","","null","+","Fixation - short","","","","","null","","","","","","","","","","","",""
"","html-keyboard-response","266","7403556","0.0-420.0","dprk0dd9","1920","1080","","","","","","","","","","","611","uau","Diagnostic trial","","","","","j","9","1","false","false","RIGHT","j","1","RIGHT","true","","",""
"","html-keyboard-response","267","7404323","0.0-423.0","dprk0dd9","1920","1080","","","","","","","","","","","null","+","Fixation - short","","","","","null","","","","","","","","","","","",""
"","html-keyboard-response","268","7405397","0.0-424.0","dprk0dd9","1920","1080","","","","","","","","","","","1074","mav","Diagnostic trial","","","","","f","9","2","false","false","RIGHT","j","0","LEFT","false","","",""
"","call-function","269","7405397","0.0-426.0-0.0","dprk0dd9","","","","","","","","","","","","","","","","","","","","","","","","","","","","","","","",""
"","html-keyboard-response","270","7405700","0.0-426.0-1.0","dprk0dd9","1920","1080","","","","","","","","","","","null","Wrong","Feedback","","","","","null","","","","","","","","","","","",""
"","call-function","271","7405700","0.0-426.0-2.0","dprk0dd9","","","","","","","","","","","","","","","","","","","","","","","","","","","","","","","",""
"","html-keyboard-response","272","7406465","0.0-427.0","dprk0dd9","1920","1080","","","","","","","","","","","null","+","Fixation - short","","","","","null","","","","","","","","","","","",""
"","html-keyboard-response","273","7407073","0.0-428.0","dprk0dd9","1920","1080","","","","","","","","","","","608","mav","Diagnostic trial","","","","","f","9","3","false","true","LEFT","f","1","LEFT","true","","",""
"","html-keyboard-response","274","7407835","0.0-431.0","dprk0dd9","1920","1080","","","","","","","","","","","null","+","Fixation - short","","","","","null","","","","","","","","","","","",""
"","html-keyboard-response","275","7408671","0.0-432.0","dprk0dd9","1920","1080","","","","","","","","","","","836","uau","Diagnostic trial","","","","","f","9","4","false","true","LEFT","f","1","RIGHT","false","","",""
"","html-keyboard-response","276","7409437","0.0-435.0","dprk0dd9","1920","1080","","","","","","","","","","","null","+","Fixation - short","","","","","null","","","","","","","","","","","",""
"","html-keyboard-response","277","7409795","0.0-436.0","dprk0dd9","1920","1080","","","","","","","","","","","358","mav","Diagnostic trial","","","","","f","9","5","false","true","LEFT","f","1","LEFT","true","","",""
"","html-keyboard-response","278","7410549","0.0-439.0","dprk0dd9","1920","1080","","","","","","","","","","","null","+","Fixation - short","","","","","null","","","","","","","","","","","",""
"","html-keyboard-response","279","7410943","0.0-440.0","dprk0dd9","1920","1080","","","","","","","","","","","394","mav","Diagnostic trial","","","","","f","9","6","false","true","LEFT","f","1","LEFT","true","","",""
"","html-keyboard-response","280","7411701","0.0-443.0","dprk0dd9","1920","1080","","","","","","","","","","","null","+","Fixation - short","","","","","null","","","","","","","","","","","",""
"","html-keyboard-response","281","7412157","0.0-444.0","dprk0dd9","1920","1080","","","","","","","","","","","456","mav","Diagnostic trial","","","","","f","9","7","false","true","LEFT","f","1","LEFT","true","","",""
"","html-keyboard-response","282","7412909","0.0-447.0","dprk0dd9","1920","1080","","","","","","","","","","","null","+","Fixation - short","","","","","null","","","","","","","","","","","",""
"","html-keyboard-response","283","7413288","0.0-448.0","dprk0dd9","1920","1080","","","","","","","","","","","379","mav","Diagnostic trial","","","","","f","9","8","false","true","LEFT","f","1","LEFT","true","","",""
"","html-keyboard-response","284","7414053","0.0-451.0","dprk0dd9","1920","1080","","","","","","","","","","","null","+","Fixation - short","","","","","null","","","","","","","","","","","",""
"","html-keyboard-response","285","7414505","0.0-452.0","dprk0dd9","1920","1080","","","","","","","","","","","452","uau","Diagnostic trial","","","","","j","9","9","false","false","RIGHT","j","1","RIGHT","true","","",""
"","html-keyboard-response","286","7415271","0.0-455.0","dprk0dd9","1920","1080","","","","","","","","","","","null","+","Fixation - short","","","","","null","","","","","","","","","","","",""
"","html-keyboard-response","287","7416153","0.0-456.0","dprk0dd9","1920","1080","","","","","","","","","","","883","mav","Diagnostic trial","","","","","f","9","10","false","true","LEFT","f","1","LEFT","true","","",""
"","html-keyboard-response","288","7416917","0.0-459.0","dprk0dd9","1920","1080","","","","","","","","","","","null","+","Fixation - short","","","","","null","","","","","","","","","","","",""
"","html-keyboard-response","289","7417495","0.0-460.0","dprk0dd9","1920","1080","","","","","","","","","","","578","uau","Diagnostic trial","","","","","f","9","11","false","true","LEFT","f","1","RIGHT","false","","",""
"","html-keyboard-response","290","7418259","0.0-463.0","dprk0dd9","1920","1080","","","","","","","","","","","null","+","Fixation - short","","","","","null","","","","","","","","","","","",""
"","html-keyboard-response","291","7418716","0.0-464.0","dprk0dd9","1920","1080","","","","","","","","","","","456","uau","Diagnostic trial","","","","","f","9","12","false","true","LEFT","f","1","RIGHT","false","","",""
"","html-keyboard-response","292","7419477","0.0-467.0","dprk0dd9","1920","1080","","","","","","","","","","","null","+","Fixation - short","","","","","null","","","","","","","","","","","",""
"","html-keyboard-response","293","7420041","0.0-468.0","dprk0dd9","1920","1080","","","","","","","","","","","563","mav","Diagnostic trial","","","","","j","9","13","false","false","RIGHT","j","1","LEFT","false","","",""
"","html-keyboard-response","294","7420793","0.0-471.0","dprk0dd9","1920","1080","","","","","","","","","","","null","+","Fixation - short","","","","","null","","","","","","","","","","","",""
"","html-keyboard-response","295","7421822","0.0-472.0","dprk0dd9","1920","1080","","","","","","","","","","","1028","uau","Inducer trial","","","","","j","9","","true","","","j","1","RIGHT","","","",""
"","html-keyboard-response","296","7423328","0.0-475.0","dprk0dd9","1920","1080","","","","","","","","","","","null","+","Fixation - long","","","","","null","","","","","","","","","","","",""
"","call-function","297","7423329","0.0-476.0","dprk0dd9","","","","","","","","","","","","","","","","","","","","","","","","","","","","","","","",""
"","survey","298","7431262","0.0-477.0","dprk0dd9","1920","1080","","","","","","","","","","","7912","distraction-feedback","Distraction and feedback","","","","","{""open_feedback"":""""}","","","","","","","","","","[]","","[{""event"":""blur"",""trial"":2,""time"":5213},{""event"":""focus"",""trial"":2,""time"":6723346},{""event"":""blur"",""trial"":2,""time"":6735243},{""event"":""focus"",""trial"":2,""time"":6743266},{""event"":""blur"",""trial"":2,""time"":6761207},{""event"":""focus"",""trial"":2,""time"":6765911},{""event"":""blur"",""trial"":2,""time"":6810165},{""event"":""focus"",""trial"":2,""time"":6831226},{""event"":""fullscreenenter"",""trial"":3,""time"":6875792},{""event"":""blur"",""trial"":4,""time"":6899275},{""event"":""focus"",""trial"":4,""time"":6990539},{""event"":""blur"",""trial"":4,""time"":7027845},{""event"":""focus"",""trial"":4,""time"":7052392}]"
