"value","trial_type","trial_index","time_elapsed","internal_node_id","id","width","height","webaudio","browser","browser_version","mobile","os","fullscreen","vsync_rate","webcam","microphone","view_history","rt","stimulus","trial_info","page_index1","page_index2","page_index3","success","response","inducer_run","diagnostic_run","inducer_trial","italic","correct_diag_response_side","correct_response_key","correct_response","correct_inducer_response_side","congruent","accuracy","open_feedback","interactive"
"","call-function","0","1","0.0-0.0","cq7hhxa8","","","","","","","","","","","","","","","","","","","","","","","","","","","","","","","",""
"","browser-check","1","993","0.0-1.0","cq7hhxa8","3440","1279","true","firefox","121.0.0","false","Windows 10","true","60.61","true","true","","","","","","","","","","","","","","","","","","","","",""
"","instructions","2","30081","0.0-2.0","cq7hhxa8","","","","","","","","","","","","[{""page_index"":0,""viewing_time"":8106},{""page_index"":1,""viewing_time"":15900},{""page_index"":2,""viewing_time"":5111}]","29117","The experiment and consent","The experiment and consent","8106","15900","5111","","","","","","","","","","","","","",""
"","fullscreen","3","37704","0.0-3.0","cq7hhxa8","3440","1440","","","","","","","","","","","6616","","Full screen","","","","true","","","","","","","","","","","","",""
"","instructions","4","151028","0.0-4.0","cq7hhxa8","3440","1440","","","","","","","","","","[{""page_index"":0,""viewing_time"":32570},{""page_index"":1,""viewing_time"":56222},{""page_index"":2,""viewing_time"":24648}]","113440","Instructions","Final experiment explanation","","","","","","","","","","","","","","","","",""
"","html-keyboard-response","5","160933","0.0-5.0","cq7hhxa8","3440","1440","","","","","","","","","","","8399","If italic press LEFT | If upright press RIGHT","Diagnostic instructions","","","",""," ","","","","","","","","","","","",""
"","html-keyboard-response","6","161683","0.0-6.0","cq7hhxa8","3440","1440","","","","","","","","","","","null","+","Fixation - short","","","","","null","","","","","","","","","","","",""
"","html-keyboard-response","7","162646","0.0-7.0","cq7hhxa8","3440","1440","","","","","","","","","","","963","ysh","practice","","","","","j","0","0","false","false","RIGHT","j","1","","","","",""
"","html-keyboard-response","8","163401","0.0-10.0","cq7hhxa8","3440","1440","","","","","","","","","","","null","+","Fixation - short","","","","","null","","","","","","","","","","","",""
"","html-keyboard-response","9","164020","0.0-11.0","cq7hhxa8","3440","1440","","","","","","","","","","","619","cea","practice","","","","","j","0","1","false","false","RIGHT","j","1","","","","",""
"","html-keyboard-response","10","164779","0.0-14.0","cq7hhxa8","3440","1440","","","","","","","","","","","null","+","Fixation - short","","","","","null","","","","","","","","","","","",""
"","html-keyboard-response","11","165522","0.0-15.0","cq7hhxa8","3440","1440","","","","","","","","","","","742","cea","practice","","","","","j","0","2","false","false","RIGHT","j","1","","","","",""
"","html-keyboard-response","12","166274","0.0-18.0","cq7hhxa8","3440","1440","","","","","","","","","","","null","+","Fixation - short","","","","","null","","","","","","","","","","","",""
"","html-keyboard-response","13","166941","0.0-19.0","cq7hhxa8","3440","1440","","","","","","","","","","","667","ysh","practice","","","","","j","0","3","false","false","RIGHT","j","1","","","","",""
"","html-keyboard-response","14","167705","0.0-22.0","cq7hhxa8","3440","1440","","","","","","","","","","","null","+","Fixation - short","","","","","null","","","","","","","","","","","",""
"","html-keyboard-response","15","168399","0.0-23.0","cq7hhxa8","3440","1440","","","","","","","","","","","695","ysh","practice","","","","","f","0","4","false","true","LEFT","f","1","","","","",""
"","html-keyboard-response","16","169151","0.0-26.0","cq7hhxa8","3440","1440","","","","","","","","","","","null","+","Fixation - short","","","","","null","","","","","","","","","","","",""
"","html-keyboard-response","17","169774","0.0-27.0","cq7hhxa8","3440","1440","","","","","","","","","","","624","ysh","practice","","","","","f","0","5","false","true","LEFT","f","1","","","","",""
"","html-keyboard-response","18","170530","0.0-30.0","cq7hhxa8","3440","1440","","","","","","","","","","","null","+","Fixation - short","","","","","null","","","","","","","","","","","",""
"","html-keyboard-response","19","171118","0.0-31.0","cq7hhxa8","3440","1440","","","","","","","","","","","588","cea","practice","","","","","j","0","6","false","true","LEFT","f","0","","","","",""
"","call-function","20","171118","0.0-33.0-0.0","cq7hhxa8","","","","","","","","","","","","","","","","","","","","","","","","","","","","","","","",""
"","html-keyboard-response","21","171428","0.0-33.0-1.0","cq7hhxa8","3440","1440","","","","","","","","","","","null","Wrong","Feedback","","","","","null","","","","","","","","","","","",""
"","call-function","22","171429","0.0-33.0-2.0","cq7hhxa8","","","","","","","","","","","","","","","","","","","","","","","","","","","","","","","",""
"","html-keyboard-response","23","172179","0.0-34.0","cq7hhxa8","3440","1440","","","","","","","","","","","null","+","Fixation - short","","","","","null","","","","","","","","","","","",""
"","html-keyboard-response","24","172874","0.0-35.0","cq7hhxa8","3440","1440","","","","","","","","","","","695","cea","practice","","","","","j","0","7","false","false","RIGHT","j","1","","","","",""
"","html-keyboard-response","25","173631","0.0-38.0","cq7hhxa8","3440","1440","","","","","","","","","","","null","+","Fixation - short","","","","","null","","","","","","","","","","","",""
"","html-keyboard-response","26","174191","0.0-39.0","cq7hhxa8","3440","1440","","","","","","","","","","","559","cea","practice","","","","","j","0","8","false","false","RIGHT","j","1","","","","",""
"","html-keyboard-response","27","174943","0.0-42.0","cq7hhxa8","3440","1440","","","","","","","","","","","null","+","Fixation - short","","","","","null","","","","","","","","","","","",""
"","html-keyboard-response","28","175422","0.0-43.0","cq7hhxa8","3440","1440","","","","","","","","","","","480","cea","practice","","","","","j","0","9","false","false","RIGHT","j","1","","","","",""
"","html-keyboard-response","29","176208","0.0-46.0","cq7hhxa8","3440","1440","","","","","","","","","","","null","+","Fixation - short","","","","","null","","","","","","","","","","","",""
"","html-keyboard-response","30","182181","0.0-47.0","cq7hhxa8","3440","1440","","","","","","","","","","","5979","If cea press RIGHT | If ysh press LEFT","Inducer instructions","","","",""," ","1","","","","","","","","","","",""
"","html-keyboard-response","31","182944","0.0-50.0","cq7hhxa8","3440","1440","","","","","","","","","","","null","+","Fixation - short","","","","","null","","","","","","","","","","","",""
"","html-keyboard-response","32","183488","0.0-51.0","cq7hhxa8","3440","1440","","","","","","","","","","","544","cea","practice","","","","","j","0","0","false","false","RIGHT","j","1","","","","",""
"","html-keyboard-response","33","184239","0.0-54.0","cq7hhxa8","3440","1440","","","","","","","","","","","null","+","Fixation - short","","","","","null","","","","","","","","","","","",""
"","html-keyboard-response","34","184769","0.0-55.0","cq7hhxa8","3440","1440","","","","","","","","","","","529","cea","practice","","","","","j","0","1","false","false","RIGHT","j","1","","","","",""
"","html-keyboard-response","35","185519","0.0-58.0","cq7hhxa8","3440","1440","","","","","","","","","","","null","+","Fixation - short","","","","","null","","","","","","","","","","","",""
"","html-keyboard-response","36","186227","0.0-59.0","cq7hhxa8","3440","1440","","","","","","","","","","","710","cea","practice","","","","","f","0","2","false","true","LEFT","f","1","","","","",""
"","html-keyboard-response","37","186989","0.0-62.0","cq7hhxa8","3440","1440","","","","","","","","","","","null","+","Fixation - short","","","","","null","","","","","","","","","","","",""
"","html-keyboard-response","38","187732","0.0-63.0","cq7hhxa8","3440","1440","","","","","","","","","","","743","ysh","practice","","","","","f","0","3","false","false","RIGHT","j","0","","","","",""
"","call-function","39","187733","0.0-65.0-0.0","cq7hhxa8","","","","","","","","","","","","","","","","","","","","","","","","","","","","","","","",""
"","html-keyboard-response","40","188043","0.0-65.0-1.0","cq7hhxa8","3440","1440","","","","","","","","","","","null","Wrong","Feedback","","","","","null","","","","","","","","","","","",""
"","call-function","41","188044","0.0-65.0-2.0","cq7hhxa8","","","","","","","","","","","","","","","","","","","","","","","","","","","","","","","",""
"","html-keyboard-response","42","188799","0.0-66.0","cq7hhxa8","3440","1440","","","","","","","","","","","null","+","Fixation - short","","","","","null","","","","","","","","","","","",""
"","html-keyboard-response","43","189608","0.0-67.0","cq7hhxa8","3440","1440","","","","","","","","","","","810","ysh","practice","","","","","j","0","4","false","false","RIGHT","j","1","","","","",""
"","html-keyboard-response","44","190365","0.0-70.0","cq7hhxa8","3440","1440","","","","","","","","","","","null","+","Fixation - short","","","","","null","","","","","","","","","","","",""
"","html-keyboard-response","45","191088","0.0-71.0","cq7hhxa8","3440","1440","","","","","","","","","","","723","cea","practice","","","","","j","0","5","false","false","RIGHT","j","1","","","","",""
"","html-keyboard-response","46","191841","0.0-74.0","cq7hhxa8","3440","1440","","","","","","","","","","","null","+","Fixation - short","","","","","null","","","","","","","","","","","",""
"","html-keyboard-response","47","192336","0.0-75.0","cq7hhxa8","3440","1440","","","","","","","","","","","495","cea","practice","","","","","j","0","6","false","false","RIGHT","j","1","","","","",""
"","html-keyboard-response","48","193096","0.0-78.0","cq7hhxa8","3440","1440","","","","","","","","","","","null","+","Fixation - short","","","","","null","","","","","","","","","","","",""
"","html-keyboard-response","49","193523","0.0-79.0","cq7hhxa8","3440","1440","","","","","","","","","","","426","ysh","practice","","","","","j","0","7","false","true","LEFT","f","0","","","","",""
"","call-function","50","193523","0.0-81.0-0.0","cq7hhxa8","","","","","","","","","","","","","","","","","","","","","","","","","","","","","","","",""
"","html-keyboard-response","51","193848","0.0-81.0-1.0","cq7hhxa8","3440","1440","","","","","","","","","","","null","Wrong","Feedback","","","","","null","","","","","","","","","","","",""
"","call-function","52","193849","0.0-81.0-2.0","cq7hhxa8","","","","","","","","","","","","","","","","","","","","","","","","","","","","","","","",""
"","html-keyboard-response","53","194607","0.0-82.0","cq7hhxa8","3440","1440","","","","","","","","","","","null","+","Fixation - short","","","","","null","","","","","","","","","","","",""
"","html-keyboard-response","54","195603","0.0-83.0","cq7hhxa8","3440","1440","","","","","","","","","","","998","ysh","practice","","","","","j","0","8","false","false","RIGHT","j","1","","","","",""
"","html-keyboard-response","55","196355","0.0-86.0","cq7hhxa8","3440","1440","","","","","","","","","","","null","+","Fixation - short","","","","","null","","","","","","","","","","","",""
"","html-keyboard-response","56","196974","0.0-87.0","cq7hhxa8","3440","1440","","","","","","","","","","","619","cea","practice","","","","","j","0","9","false","false","RIGHT","j","1","","","","",""
"","html-keyboard-response","57","197762","0.0-90.0","cq7hhxa8","3440","1440","","","","","","","","","","","null","+","Fixation - short","","","","","null","","","","","","","","","","","",""
"","html-keyboard-response","58","198394","0.0-91.0","cq7hhxa8","3440","1440","","","","","","","","","","","632","ysh","Inducer trial","","","","","f","practice","","true","","","f","1","LEFT","","","",""
"","html-keyboard-response","59","202326","0.0-94.0","cq7hhxa8","3440","1440","","","","","","","","","","","3935","End practice","End of practice","","","",""," ","","","","","","","","","","","",""
"","html-keyboard-response","60","203081","0.0-95.0","cq7hhxa8","3440","1440","","","","","","","","","","","null","+","Fixation - short","","","","","null","","","","","","","","","","","",""
"","html-keyboard-response","61","211633","0.0-96.0","cq7hhxa8","3440","1440","","","","","","","","","","","8561","If oco press LEFT | If f.w press RIGHT","Inducer instructions","","","",""," ","0","","","","","","","","","","",""
"","html-keyboard-response","62","212392","0.0-97.0","cq7hhxa8","3440","1440","","","","","","","","","","","null","+","Fixation - short","","","","","null","","","","","","","","","","","",""
"","html-keyboard-response","63","213403","0.0-98.0","cq7hhxa8","3440","1440","","","","","","","","","","","1011","oco","Diagnostic trial","","","","","j","0","0","false","false","RIGHT","j","1","LEFT","false","","",""
"","html-keyboard-response","64","214161","0.0-101.0","cq7hhxa8","3440","1440","","","","","","","","","","","null","+","Fixation - short","","","","","null","","","","","","","","","","","",""
"","html-keyboard-response","65","214927","0.0-102.0","cq7hhxa8","3440","1440","","","","","","","","","","","767","f.w","Diagnostic trial","","","","","f","0","1","false","true","LEFT","f","1","RIGHT","false","","",""
"","html-keyboard-response","66","215691","0.0-105.0","cq7hhxa8","3440","1440","","","","","","","","","","","null","+","Fixation - short","","","","","null","","","","","","","","","","","",""
"","html-keyboard-response","67","216458","0.0-106.0","cq7hhxa8","3440","1440","","","","","","","","","","","767","f.w","Diagnostic trial","","","","","j","0","2","false","false","RIGHT","j","1","RIGHT","true","","",""
"","html-keyboard-response","68","217220","0.0-109.0","cq7hhxa8","3440","1440","","","","","","","","","","","null","+","Fixation - short","","","","","null","","","","","","","","","","","",""
"","html-keyboard-response","69","217799","0.0-110.0","cq7hhxa8","3440","1440","","","","","","","","","","","580","oco","Diagnostic trial","","","","","f","0","3","false","true","LEFT","f","1","LEFT","true","","",""
"","html-keyboard-response","70","218564","0.0-113.0","cq7hhxa8","3440","1440","","","","","","","","","","","null","+","Fixation - short","","","","","null","","","","","","","","","","","",""
"","html-keyboard-response","71","219342","0.0-114.0","cq7hhxa8","3440","1440","","","","","","","","","","","777","oco","Inducer trial","","","","","j","0","","true","","","f","0","LEFT","","","",""
"","call-function","72","219342","0.0-116.0-0.0","cq7hhxa8","","","","","","","","","","","","","","","","","","","","","","","","","","","","","","","",""
"","html-keyboard-response","73","219654","0.0-116.0-1.0","cq7hhxa8","3440","1440","","","","","","","","","","","null","Wrong","Feedback","","","","","null","","","","","","","","","","","",""
"","call-function","74","219654","0.0-116.0-2.0","cq7hhxa8","","","","","","","","","","","","","","","","","","","","","","","","","","","","","","","",""
"","html-keyboard-response","75","221164","0.0-117.0","cq7hhxa8","3440","1440","","","","","","","","","","","null","+","Fixation - long","","","","","null","","","","","","","","","","","",""
"","html-keyboard-response","76","229510","0.0-118.0","cq7hhxa8","3440","1440","","","","","","","","","","","8355","If wue press LEFT | If m45 press RIGHT","Inducer instructions","","","",""," ","1","","","","","","","","","","",""
"","html-keyboard-response","77","230263","0.0-119.0","cq7hhxa8","3440","1440","","","","","","","","","","","null","+","Fixation - short","","","","","null","","","","","","","","","","","",""
"","html-keyboard-response","78","230863","0.0-120.0","cq7hhxa8","3440","1440","","","","","","","","","","","599","wue","Diagnostic trial","","","","","f","1","0","false","true","LEFT","f","1","LEFT","true","","",""
"","html-keyboard-response","79","231614","0.0-123.0","cq7hhxa8","3440","1440","","","","","","","","","","","null","+","Fixation - short","","","","","null","","","","","","","","","","","",""
"","html-keyboard-response","80","232224","0.0-124.0","cq7hhxa8","3440","1440","","","","","","","","","","","610","m45","Diagnostic trial","","","","","j","1","1","false","false","RIGHT","j","1","RIGHT","true","","",""
"","html-keyboard-response","81","232981","0.0-127.0","cq7hhxa8","3440","1440","","","","","","","","","","","null","+","Fixation - short","","","","","null","","","","","","","","","","","",""
"","html-keyboard-response","82","233497","0.0-128.0","cq7hhxa8","3440","1440","","","","","","","","","","","516","wue","Diagnostic trial","","","","","f","1","2","false","false","RIGHT","j","0","LEFT","false","","",""
"","call-function","83","233498","0.0-130.0-0.0","cq7hhxa8","","","","","","","","","","","","","","","","","","","","","","","","","","","","","","","",""
"","html-keyboard-response","84","233799","0.0-130.0-1.0","cq7hhxa8","3440","1440","","","","","","","","","","","null","Wrong","Feedback","","","","","null","","","","","","","","","","","",""
"","call-function","85","233799","0.0-130.0-2.0","cq7hhxa8","","","","","","","","","","","","","","","","","","","","","","","","","","","","","","","",""
"","html-keyboard-response","86","234550","0.0-131.0","cq7hhxa8","3440","1440","","","","","","","","","","","null","+","Fixation - short","","","","","null","","","","","","","","","","","",""
"","html-keyboard-response","87","235253","0.0-132.0","cq7hhxa8","3440","1440","","","","","","","","","","","704","m45","Diagnostic trial","","","","","j","1","3","false","false","RIGHT","j","1","RIGHT","true","","",""
"","html-keyboard-response","88","236003","0.0-135.0","cq7hhxa8","3440","1440","","","","","","","","","","","null","+","Fixation - short","","","","","null","","","","","","","","","","","",""
"","html-keyboard-response","89","236613","0.0-136.0","cq7hhxa8","3440","1440","","","","","","","","","","","610","m45","Diagnostic trial","","","","","j","1","4","false","false","RIGHT","j","1","RIGHT","true","","",""
"","html-keyboard-response","90","237365","0.0-139.0","cq7hhxa8","3440","1440","","","","","","","","","","","null","+","Fixation - short","","","","","null","","","","","","","","","","","",""
"","html-keyboard-response","91","237895","0.0-140.0","cq7hhxa8","3440","1440","","","","","","","","","","","529","m45","Diagnostic trial","","","","","j","1","5","false","false","RIGHT","j","1","RIGHT","true","","",""
"","html-keyboard-response","92","238660","0.0-143.0","cq7hhxa8","3440","1440","","","","","","","","","","","null","+","Fixation - short","","","","","null","","","","","","","","","","","",""
"","html-keyboard-response","93","239153","0.0-144.0","cq7hhxa8","3440","1440","","","","","","","","","","","494","m45","Diagnostic trial","","","","","j","1","6","false","false","RIGHT","j","1","RIGHT","true","","",""
"","html-keyboard-response","94","239915","0.0-147.0","cq7hhxa8","3440","1440","","","","","","","","","","","null","+","Fixation - short","","","","","null","","","","","","","","","","","",""
"","html-keyboard-response","95","240375","0.0-148.0","cq7hhxa8","3440","1440","","","","","","","","","","","459","m45","Diagnostic trial","","","","","j","1","7","false","false","RIGHT","j","1","RIGHT","true","","",""
"","html-keyboard-response","96","241132","0.0-151.0","cq7hhxa8","3440","1440","","","","","","","","","","","null","+","Fixation - short","","","","","null","","","","","","","","","","","",""
"","html-keyboard-response","97","241865","0.0-152.0","cq7hhxa8","3440","1440","","","","","","","","","","","733","m45","Inducer trial","","","","","j","1","","true","","","j","1","RIGHT","","","",""
"","html-keyboard-response","98","243369","0.0-155.0","cq7hhxa8","3440","1440","","","","","","","","","","","null","+","Fixation - long","","","","","null","","","","","","","","","","","",""
"","html-keyboard-response","99","248011","0.0-156.0","cq7hhxa8","3440","1440","","","","","","","","","","","4645","If nh3 press RIGHT | If dym press LEFT","Inducer instructions","","","",""," ","2","","","","","","","","","","",""
"","html-keyboard-response","100","248764","0.0-157.0","cq7hhxa8","3440","1440","","","","","","","","","","","null","+","Fixation - short","","","","","null","","","","","","","","","","","",""
"","html-keyboard-response","101","249416","0.0-158.0","cq7hhxa8","3440","1440","","","","","","","","","","","654","dym","Diagnostic trial","","","","","f","2","0","false","true","LEFT","f","1","LEFT","true","","",""
"","html-keyboard-response","102","250178","0.0-161.0","cq7hhxa8","3440","1440","","","","","","","","","","","null","+","Fixation - short","","","","","null","","","","","","","","","","","",""
"","html-keyboard-response","103","250834","0.0-162.0","cq7hhxa8","3440","1440","","","","","","","","","","","656","nh3","Diagnostic trial","","","","","j","2","1","false","true","LEFT","f","0","RIGHT","false","","",""
"","call-function","104","250834","0.0-164.0-0.0","cq7hhxa8","","","","","","","","","","","","","","","","","","","","","","","","","","","","","","","",""
"","html-keyboard-response","105","251149","0.0-164.0-1.0","cq7hhxa8","3440","1440","","","","","","","","","","","null","Wrong","Feedback","","","","","null","","","","","","","","","","","",""
"","call-function","106","251149","0.0-164.0-2.0","cq7hhxa8","","","","","","","","","","","","","","","","","","","","","","","","","","","","","","","",""
"","html-keyboard-response","107","251912","0.0-165.0","cq7hhxa8","3440","1440","","","","","","","","","","","null","+","Fixation - short","","","","","null","","","","","","","","","","","",""
"","html-keyboard-response","108","252751","0.0-166.0","cq7hhxa8","3440","1440","","","","","","","","","","","839","dym","Diagnostic trial","","","","","j","2","2","false","false","RIGHT","j","1","LEFT","false","","",""
"","html-keyboard-response","109","253510","0.0-169.0","cq7hhxa8","3440","1440","","","","","","","","","","","null","+","Fixation - short","","","","","null","","","","","","","","","","","",""
"","html-keyboard-response","110","254316","0.0-170.0","cq7hhxa8","3440","1440","","","","","","","","","","","806","dym","Diagnostic trial","","","","","f","2","3","false","false","RIGHT","j","0","LEFT","false","","",""
"","call-function","111","254317","0.0-172.0-0.0","cq7hhxa8","","","","","","","","","","","","","","","","","","","","","","","","","","","","","","","",""
"","html-keyboard-response","112","254622","0.0-172.0-1.0","cq7hhxa8","3440","1440","","","","","","","","","","","null","Wrong","Feedback","","","","","null","","","","","","","","","","","",""
"","call-function","113","254622","0.0-172.0-2.0","cq7hhxa8","","","","","","","","","","","","","","","","","","","","","","","","","","","","","","","",""
"","html-keyboard-response","114","255449","0.0-173.0","cq7hhxa8","3440","1440","","","","","","","","","","","null","+","Fixation - short","","","","","null","","","","","","","","","","","",""
"","html-keyboard-response","115","256002","0.0-174.0","cq7hhxa8","3440","1440","","","","","","","","","","","554","dym","Diagnostic trial","","","","","f","2","4","false","false","RIGHT","j","0","LEFT","false","","",""
"","call-function","116","256002","0.0-176.0-0.0","cq7hhxa8","","","","","","","","","","","","","","","","","","","","","","","","","","","","","","","",""
"","html-keyboard-response","117","256308","0.0-176.0-1.0","cq7hhxa8","3440","1440","","","","","","","","","","","null","Wrong","Feedback","","","","","null","","","","","","","","","","","",""
"","call-function","118","256308","0.0-176.0-2.0","cq7hhxa8","","","","","","","","","","","","","","","","","","","","","","","","","","","","","","","",""
"","html-keyboard-response","119","257067","0.0-177.0","cq7hhxa8","3440","1440","","","","","","","","","","","null","+","Fixation - short","","","","","null","","","","","","","","","","","",""
"","html-keyboard-response","120","257698","0.0-178.0","cq7hhxa8","3440","1440","","","","","","","","","","","630","nh3","Diagnostic trial","","","","","j","2","5","false","false","RIGHT","j","1","RIGHT","true","","",""
"","html-keyboard-response","121","258459","0.0-181.0","cq7hhxa8","3440","1440","","","","","","","","","","","null","+","Fixation - short","","","","","null","","","","","","","","","","","",""
"","html-keyboard-response","122","259162","0.0-182.0","cq7hhxa8","3440","1440","","","","","","","","","","","704","nh3","Diagnostic trial","","","","","j","2","6","false","false","RIGHT","j","1","RIGHT","true","","",""
"","html-keyboard-response","123","259924","0.0-185.0","cq7hhxa8","3440","1440","","","","","","","","","","","null","+","Fixation - short","","","","","null","","","","","","","","","","","",""
"","html-keyboard-response","124","260596","0.0-186.0","cq7hhxa8","3440","1440","","","","","","","","","","","672","nh3","Diagnostic trial","","","","","j","2","7","false","true","LEFT","f","0","RIGHT","false","","",""
"","call-function","125","260596","0.0-188.0-0.0","cq7hhxa8","","","","","","","","","","","","","","","","","","","","","","","","","","","","","","","",""
"","html-keyboard-response","126","260899","0.0-188.0-1.0","cq7hhxa8","3440","1440","","","","","","","","","","","null","Wrong","Feedback","","","","","null","","","","","","","","","","","",""
"","call-function","127","260899","0.0-188.0-2.0","cq7hhxa8","","","","","","","","","","","","","","","","","","","","","","","","","","","","","","","",""
"","html-keyboard-response","128","261654","0.0-189.0","cq7hhxa8","3440","1440","","","","","","","","","","","null","+","Fixation - short","","","","","null","","","","","","","","","","","",""
"","html-keyboard-response","129","262209","0.0-190.0","cq7hhxa8","3440","1440","","","","","","","","","","","554","nh3","Diagnostic trial","","","","","j","2","8","false","true","LEFT","f","0","RIGHT","false","","",""
"","call-function","130","262209","0.0-192.0-0.0","cq7hhxa8","","","","","","","","","","","","","","","","","","","","","","","","","","","","","","","",""
"","html-keyboard-response","131","262521","0.0-192.0-1.0","cq7hhxa8","3440","1440","","","","","","","","","","","null","Wrong","Feedback","","","","","null","","","","","","","","","","","",""
"","call-function","132","262521","0.0-192.0-2.0","cq7hhxa8","","","","","","","","","","","","","","","","","","","","","","","","","","","","","","","",""
"","html-keyboard-response","133","263273","0.0-193.0","cq7hhxa8","3440","1440","","","","","","","","","","","null","+","Fixation - short","","","","","null","","","","","","","","","","","",""
"","html-keyboard-response","134","264300","0.0-194.0","cq7hhxa8","3440","1440","","","","","","","","","","","1028","dym","Diagnostic trial","","","","","j","2","9","false","false","RIGHT","j","1","LEFT","false","","",""
"","html-keyboard-response","135","265051","0.0-197.0","cq7hhxa8","3440","1440","","","","","","","","","","","null","+","Fixation - short","","","","","null","","","","","","","","","","","",""
"","html-keyboard-response","136","265906","0.0-198.0","cq7hhxa8","3440","1440","","","","","","","","","","","854","nh3","Diagnostic trial","","","","","j","2","10","false","true","LEFT","f","0","RIGHT","false","","",""
"","call-function","137","265906","0.0-200.0-0.0","cq7hhxa8","","","","","","","","","","","","","","","","","","","","","","","","","","","","","","","",""
"","html-keyboard-response","138","266214","0.0-200.0-1.0","cq7hhxa8","3440","1440","","","","","","","","","","","null","Wrong","Feedback","","","","","null","","","","","","","","","","","",""
"","call-function","139","266215","0.0-200.0-2.0","cq7hhxa8","","","","","","","","","","","","","","","","","","","","","","","","","","","","","","","",""
"","html-keyboard-response","140","266978","0.0-201.0","cq7hhxa8","3440","1440","","","","","","","","","","","null","+","Fixation - short","","","","","null","","","","","","","","","","","",""
"","html-keyboard-response","141","268012","0.0-202.0","cq7hhxa8","3440","1440","","","","","","","","","","","1033","dym","Diagnostic trial","","","","","f","2","11","false","true","LEFT","f","1","LEFT","true","","",""
"","html-keyboard-response","142","268767","0.0-205.0","cq7hhxa8","3440","1440","","","","","","","","","","","null","+","Fixation - short","","","","","null","","","","","","","","","","","",""
"","html-keyboard-response","143","269695","0.0-206.0","cq7hhxa8","3440","1440","","","","","","","","","","","928","nh3","Inducer trial","","","","","j","2","","true","","","j","1","RIGHT","","","",""
"","html-keyboard-response","144","271201","0.0-209.0","cq7hhxa8","3440","1440","","","","","","","","","","","null","+","Fixation - long","","","","","null","","","","","","","","","","","",""
"","html-keyboard-response","145","284104","0.0-210.0","cq7hhxa8","3440","1440","","","","","","","","","","","12903","If lgs press LEFT | If lfd press RIGHT","Inducer instructions","","","",""," ","3","","","","","","","","","","",""
"","html-keyboard-response","146","284863","0.0-211.0","cq7hhxa8","3440","1440","","","","","","","","","","","null","+","Fixation - short","","","","","null","","","","","","","","","","","",""
"","html-keyboard-response","147","285567","0.0-212.0","cq7hhxa8","3440","1440","","","","","","","","","","","703","lgs","Diagnostic trial","","","","","f","3","0","false","false","RIGHT","j","0","LEFT","false","","",""
"","call-function","148","285567","0.0-214.0-0.0","cq7hhxa8","","","","","","","","","","","","","","","","","","","","","","","","","","","","","","","",""
"","html-keyboard-response","149","285873","0.0-214.0-1.0","cq7hhxa8","3440","1440","","","","","","","","","","","null","Wrong","Feedback","","","","","null","","","","","","","","","","","",""
"","call-function","150","285873","0.0-214.0-2.0","cq7hhxa8","","","","","","","","","","","","","","","","","","","","","","","","","","","","","","","",""
"","html-keyboard-response","151","286637","0.0-215.0","cq7hhxa8","3440","1440","","","","","","","","","","","null","+","Fixation - short","","","","","null","","","","","","","","","","","",""
"","html-keyboard-response","152","287505","0.0-216.0","cq7hhxa8","3440","1440","","","","","","","","","","","868","lfd","Diagnostic trial","","","","","j","3","1","false","true","LEFT","f","0","RIGHT","false","","",""
"","call-function","153","287505","0.0-218.0-0.0","cq7hhxa8","","","","","","","","","","","","","","","","","","","","","","","","","","","","","","","",""
"","html-keyboard-response","154","287820","0.0-218.0-1.0","cq7hhxa8","3440","1440","","","","","","","","","","","null","Wrong","Feedback","","","","","null","","","","","","","","","","","",""
"","call-function","155","287820","0.0-218.0-2.0","cq7hhxa8","","","","","","","","","","","","","","","","","","","","","","","","","","","","","","","",""
"","html-keyboard-response","156","288582","0.0-219.0","cq7hhxa8","3440","1440","","","","","","","","","","","null","+","Fixation - short","","","","","null","","","","","","","","","","","",""
"","html-keyboard-response","157","289293","0.0-220.0","cq7hhxa8","3440","1440","","","","","","","","","","","710","lgs","Diagnostic trial","","","","","f","3","2","false","false","RIGHT","j","0","LEFT","false","","",""
"","call-function","158","289293","0.0-222.0-0.0","cq7hhxa8","","","","","","","","","","","","","","","","","","","","","","","","","","","","","","","",""
"","html-keyboard-response","159","289598","0.0-222.0-1.0","cq7hhxa8","3440","1440","","","","","","","","","","","null","Wrong","Feedback","","","","","null","","","","","","","","","","","",""
"","call-function","160","289598","0.0-222.0-2.0","cq7hhxa8","","","","","","","","","","","","","","","","","","","","","","","","","","","","","","","",""
"","html-keyboard-response","161","290358","0.0-223.0","cq7hhxa8","3440","1440","","","","","","","","","","","null","+","Fixation - short","","","","","null","","","","","","","","","","","",""
"","html-keyboard-response","162","291063","0.0-224.0","cq7hhxa8","3440","1440","","","","","","","","","","","704","lgs","Diagnostic trial","","","","","j","3","3","false","true","LEFT","f","0","LEFT","true","","",""
"","call-function","163","291064","0.0-226.0-0.0","cq7hhxa8","","","","","","","","","","","","","","","","","","","","","","","","","","","","","","","",""
"","html-keyboard-response","164","291371","0.0-226.0-1.0","cq7hhxa8","3440","1440","","","","","","","","","","","null","Wrong","Feedback","","","","","null","","","","","","","","","","","",""
"","call-function","165","291372","0.0-226.0-2.0","cq7hhxa8","","","","","","","","","","","","","","","","","","","","","","","","","","","","","","","",""
"","html-keyboard-response","166","292122","0.0-227.0","cq7hhxa8","3440","1440","","","","","","","","","","","null","+","Fixation - short","","","","","null","","","","","","","","","","","",""
"","html-keyboard-response","167","292967","0.0-228.0","cq7hhxa8","3440","1440","","","","","","","","","","","844","lgs","Diagnostic trial","","","","","j","3","4","false","true","LEFT","f","0","LEFT","true","","",""
"","call-function","168","292967","0.0-230.0-0.0","cq7hhxa8","","","","","","","","","","","","","","","","","","","","","","","","","","","","","","","",""
"","html-keyboard-response","169","293269","0.0-230.0-1.0","cq7hhxa8","3440","1440","","","","","","","","","","","null","Wrong","Feedback","","","","","null","","","","","","","","","","","",""
"","call-function","170","293269","0.0-230.0-2.0","cq7hhxa8","","","","","","","","","","","","","","","","","","","","","","","","","","","","","","","",""
"","html-keyboard-response","171","294022","0.0-231.0","cq7hhxa8","3440","1440","","","","","","","","","","","null","+","Fixation - short","","","","","null","","","","","","","","","","","",""
"","html-keyboard-response","172","295116","0.0-232.0","cq7hhxa8","3440","1440","","","","","","","","","","","1093","lfd","Diagnostic trial","","","","","j","3","5","false","true","LEFT","f","0","RIGHT","false","","",""
"","call-function","173","295116","0.0-234.0-0.0","cq7hhxa8","","","","","","","","","","","","","","","","","","","","","","","","","","","","","","","",""
"","html-keyboard-response","174","295430","0.0-234.0-1.0","cq7hhxa8","3440","1440","","","","","","","","","","","null","Wrong","Feedback","","","","","null","","","","","","","","","","","",""
"","call-function","175","295430","0.0-234.0-2.0","cq7hhxa8","","","","","","","","","","","","","","","","","","","","","","","","","","","","","","","",""
"","html-keyboard-response","176","296190","0.0-235.0","cq7hhxa8","3440","1440","","","","","","","","","","","null","+","Fixation - short","","","","","null","","","","","","","","","","","",""
"","html-keyboard-response","177","297437","0.0-236.0","cq7hhxa8","3440","1440","","","","","","","","","","","1246","lfd","Diagnostic trial","","","","","j","3","6","false","false","RIGHT","j","1","RIGHT","true","","",""
"","html-keyboard-response","178","298202","0.0-239.0","cq7hhxa8","3440","1440","","","","","","","","","","","null","+","Fixation - short","","","","","null","","","","","","","","","","","",""
"","html-keyboard-response","179","298894","0.0-240.0","cq7hhxa8","3440","1440","","","","","","","","","","","692","lgs","Diagnostic trial","","","","","f","3","7","false","true","LEFT","f","1","LEFT","true","","",""
"","html-keyboard-response","180","299653","0.0-243.0","cq7hhxa8","3440","1440","","","","","","","","","","","null","+","Fixation - short","","","","","null","","","","","","","","","","","",""
"","html-keyboard-response","181","301259","0.0-244.0","cq7hhxa8","3440","1440","","","","","","","","","","","1605","lfd","Inducer trial","","","","","j","3","","true","","","j","1","RIGHT","","","",""
"","html-keyboard-response","182","302765","0.0-247.0","cq7hhxa8","3440","1440","","","","","","","","","","","null","+","Fixation - long","","","","","null","","","","","","","","","","","",""
"","html-keyboard-response","183","307693","0.0-248.0","cq7hhxa8","3440","1440","","","","","","","","","","","4927","If me1 press RIGHT | If re8 press LEFT","Inducer instructions","","","",""," ","4","","","","","","","","","","",""
"","html-keyboard-response","184","308508","0.0-249.0","cq7hhxa8","3440","1440","","","","","","","","","","","null","+","Fixation - short","","","","","null","","","","","","","","","","","",""
"","html-keyboard-response","185","309016","0.0-250.0","cq7hhxa8","3440","1440","","","","","","","","","","","508","me1","Diagnostic trial","","","","","j","4","0","false","true","LEFT","f","0","RIGHT","false","","",""
"","call-function","186","309017","0.0-252.0-0.0","cq7hhxa8","","","","","","","","","","","","","","","","","","","","","","","","","","","","","","","",""
"","html-keyboard-response","187","309327","0.0-252.0-1.0","cq7hhxa8","3440","1440","","","","","","","","","","","null","Wrong","Feedback","","","","","null","","","","","","","","","","","",""
"","call-function","188","309327","0.0-252.0-2.0","cq7hhxa8","","","","","","","","","","","","","","","","","","","","","","","","","","","","","","","",""
"","html-keyboard-response","189","310085","0.0-253.0","cq7hhxa8","3440","1440","","","","","","","","","","","null","+","Fixation - short","","","","","null","","","","","","","","","","","",""
"","html-keyboard-response","190","310705","0.0-254.0","cq7hhxa8","3440","1440","","","","","","","","","","","619","me1","Diagnostic trial","","","","","j","4","1","false","true","LEFT","f","0","RIGHT","false","","",""
"","call-function","191","310705","0.0-256.0-0.0","cq7hhxa8","","","","","","","","","","","","","","","","","","","","","","","","","","","","","","","",""
"","html-keyboard-response","192","311006","0.0-256.0-1.0","cq7hhxa8","3440","1440","","","","","","","","","","","null","Wrong","Feedback","","","","","null","","","","","","","","","","","",""
"","call-function","193","311006","0.0-256.0-2.0","cq7hhxa8","","","","","","","","","","","","","","","","","","","","","","","","","","","","","","","",""
"","html-keyboard-response","194","311766","0.0-257.0","cq7hhxa8","3440","1440","","","","","","","","","","","null","+","Fixation - short","","","","","null","","","","","","","","","","","",""
"","html-keyboard-response","195","312625","0.0-258.0","cq7hhxa8","3440","1440","","","","","","","","","","","859","re8","Diagnostic trial","","","","","f","4","2","false","false","RIGHT","j","0","LEFT","false","","",""
"","call-function","196","312625","0.0-260.0-0.0","cq7hhxa8","","","","","","","","","","","","","","","","","","","","","","","","","","","","","","","",""
"","html-keyboard-response","197","312950","0.0-260.0-1.0","cq7hhxa8","3440","1440","","","","","","","","","","","null","Wrong","Feedback","","","","","null","","","","","","","","","","","",""
"","call-function","198","312951","0.0-260.0-2.0","cq7hhxa8","","","","","","","","","","","","","","","","","","","","","","","","","","","","","","","",""
"","html-keyboard-response","199","313715","0.0-261.0","cq7hhxa8","3440","1440","","","","","","","","","","","null","+","Fixation - short","","","","","null","","","","","","","","","","","",""
"","html-keyboard-response","200","315119","0.0-262.0","cq7hhxa8","3440","1440","","","","","","","","","","","1404","re8","Diagnostic trial","","","","","j","4","3","false","false","RIGHT","j","1","LEFT","false","","",""
"","html-keyboard-response","201","315875","0.0-265.0","cq7hhxa8","3440","1440","","","","","","","","","","","null","+","Fixation - short","","","","","null","","","","","","","","","","","",""
"","html-keyboard-response","202","316731","0.0-266.0","cq7hhxa8","3440","1440","","","","","","","","","","","856","re8","Diagnostic trial","","","","","f","4","4","false","true","LEFT","f","1","LEFT","true","","",""
"","html-keyboard-response","203","317483","0.0-269.0","cq7hhxa8","3440","1440","","","","","","","","","","","null","+","Fixation - short","","","","","null","","","","","","","","","","","",""
"","html-keyboard-response","204","318184","0.0-270.0","cq7hhxa8","3440","1440","","","","","","","","","","","702","re8","Diagnostic trial","","","","","f","4","5","false","true","LEFT","f","1","LEFT","true","","",""
"","html-keyboard-response","205","318935","0.0-273.0","cq7hhxa8","3440","1440","","","","","","","","","","","null","+","Fixation - short","","","","","null","","","","","","","","","","","",""
"","html-keyboard-response","206","319690","0.0-274.0","cq7hhxa8","3440","1440","","","","","","","","","","","754","re8","Diagnostic trial","","","","","f","4","6","false","true","LEFT","f","1","LEFT","true","","",""
"","html-keyboard-response","207","320445","0.0-277.0","cq7hhxa8","3440","1440","","","","","","","","","","","null","+","Fixation - short","","","","","null","","","","","","","","","","","",""
"","html-keyboard-response","208","321100","0.0-278.0","cq7hhxa8","3440","1440","","","","","","","","","","","654","me1","Diagnostic trial","","","","","j","4","7","false","false","RIGHT","j","1","RIGHT","true","","",""
"","html-keyboard-response","209","321859","0.0-281.0","cq7hhxa8","3440","1440","","","","","","","","","","","null","+","Fixation - short","","","","","null","","","","","","","","","","","",""
"","html-keyboard-response","210","323076","0.0-282.0","cq7hhxa8","3440","1440","","","","","","","","","","","1217","re8","Diagnostic trial","","","","","f","4","8","false","false","RIGHT","j","0","LEFT","false","","",""
"","call-function","211","323076","0.0-284.0-0.0","cq7hhxa8","","","","","","","","","","","","","","","","","","","","","","","","","","","","","","","",""
"","html-keyboard-response","212","323387","0.0-284.0-1.0","cq7hhxa8","3440","1440","","","","","","","","","","","null","Wrong","Feedback","","","","","null","","","","","","","","","","","",""
"","call-function","213","323387","0.0-284.0-2.0","cq7hhxa8","","","","","","","","","","","","","","","","","","","","","","","","","","","","","","","",""
"","html-keyboard-response","214","324139","0.0-285.0","cq7hhxa8","3440","1440","","","","","","","","","","","null","+","Fixation - short","","","","","null","","","","","","","","","","","",""
"","html-keyboard-response","215","324677","0.0-286.0","cq7hhxa8","3440","1440","","","","","","","","","","","537","me1","Diagnostic trial","","","","","j","4","9","false","true","LEFT","f","0","RIGHT","false","","",""
"","call-function","216","324677","0.0-288.0-0.0","cq7hhxa8","","","","","","","","","","","","","","","","","","","","","","","","","","","","","","","",""
"","html-keyboard-response","217","324990","0.0-288.0-1.0","cq7hhxa8","3440","1440","","","","","","","","","","","null","Wrong","Feedback","","","","","null","","","","","","","","","","","",""
"","call-function","218","324990","0.0-288.0-2.0","cq7hhxa8","","","","","","","","","","","","","","","","","","","","","","","","","","","","","","","",""
"","html-keyboard-response","219","325753","0.0-289.0","cq7hhxa8","3440","1440","","","","","","","","","","","null","+","Fixation - short","","","","","null","","","","","","","","","","","",""
"","html-keyboard-response","220","327398","0.0-290.0","cq7hhxa8","3440","1440","","","","","","","","","","","1645","re8","Diagnostic trial","","","","","f","4","10","false","true","LEFT","f","1","LEFT","true","","",""
"","html-keyboard-response","221","328158","0.0-293.0","cq7hhxa8","3440","1440","","","","","","","","","","","null","+","Fixation - short","","","","","null","","","","","","","","","","","",""
"","html-keyboard-response","222","329014","0.0-294.0","cq7hhxa8","3440","1440","","","","","","","","","","","856","re8","Diagnostic trial","","","","","f","4","11","false","false","RIGHT","j","0","LEFT","false","","",""
"","call-function","223","329014","0.0-296.0-0.0","cq7hhxa8","","","","","","","","","","","","","","","","","","","","","","","","","","","","","","","",""
"","html-keyboard-response","224","329318","0.0-296.0-1.0","cq7hhxa8","3440","1440","","","","","","","","","","","null","Wrong","Feedback","","","","","null","","","","","","","","","","","",""
"","call-function","225","329318","0.0-296.0-2.0","cq7hhxa8","","","","","","","","","","","","","","","","","","","","","","","","","","","","","","","",""
"","html-keyboard-response","226","330081","0.0-297.0","cq7hhxa8","3440","1440","","","","","","","","","","","null","+","Fixation - short","","","","","null","","","","","","","","","","","",""
"","html-keyboard-response","227","330800","0.0-298.0","cq7hhxa8","3440","1440","","","","","","","","","","","719","re8","Diagnostic trial","","","","","f","4","12","false","false","RIGHT","j","0","LEFT","false","","",""
"","call-function","228","330800","0.0-300.0-0.0","cq7hhxa8","","","","","","","","","","","","","","","","","","","","","","","","","","","","","","","",""
"","html-keyboard-response","229","331101","0.0-300.0-1.0","cq7hhxa8","3440","1440","","","","","","","","","","","null","Wrong","Feedback","","","","","null","","","","","","","","","","","",""
"","call-function","230","331101","0.0-300.0-2.0","cq7hhxa8","","","","","","","","","","","","","","","","","","","","","","","","","","","","","","","",""
"","html-keyboard-response","231","331858","0.0-301.0","cq7hhxa8","3440","1440","","","","","","","","","","","null","+","Fixation - short","","","","","null","","","","","","","","","","","",""
"","html-keyboard-response","232","332482","0.0-302.0","cq7hhxa8","3440","1440","","","","","","","","","","","624","me1","Diagnostic trial","","","","","j","4","13","false","false","RIGHT","j","1","RIGHT","true","","",""
"","html-keyboard-response","233","333245","0.0-305.0","cq7hhxa8","3440","1440","","","","","","","","","","","null","+","Fixation - short","","","","","null","","","","","","","","","","","",""
"","html-keyboard-response","234","334234","0.0-306.0","cq7hhxa8","3440","1440","","","","","","","","","","","988","me1","Inducer trial","","","","","j","4","","true","","","j","1","RIGHT","","","",""
"","html-keyboard-response","235","335749","0.0-309.0","cq7hhxa8","3440","1440","","","","","","","","","","","null","+","Fixation - long","","","","","null","","","","","","","","","","","",""
"","html-keyboard-response","236","348797","0.0-310.0","cq7hhxa8","3440","1440","","","","","","","","","","","13048","If hrf press RIGHT | If dlo press LEFT","Inducer instructions","","","",""," ","5","","","","","","","","","","",""
"","html-keyboard-response","237","349551","0.0-311.0","cq7hhxa8","3440","1440","","","","","","","","","","","null","+","Fixation - short","","","","","null","","","","","","","","","","","",""
"","html-keyboard-response","238","350375","0.0-312.0","cq7hhxa8","3440","1440","","","","","","","","","","","824","dlo","Diagnostic trial","","","","","f","5","0","false","true","LEFT","f","1","LEFT","true","","",""
"","html-keyboard-response","239","351138","0.0-315.0","cq7hhxa8","3440","1440","","","","","","","","","","","null","+","Fixation - short","","","","","null","","","","","","","","","","","",""
"","html-keyboard-response","240","351751","0.0-316.0","cq7hhxa8","3440","1440","","","","","","","","","","","613","dlo","Diagnostic trial","","","","","f","5","1","false","true","LEFT","f","1","LEFT","true","","",""
"","html-keyboard-response","241","352514","0.0-319.0","cq7hhxa8","3440","1440","","","","","","","","","","","null","+","Fixation - short","","","","","null","","","","","","","","","","","",""
"","html-keyboard-response","242","353101","0.0-320.0","cq7hhxa8","3440","1440","","","","","","","","","","","586","dlo","Diagnostic trial","","","","","f","5","2","false","false","RIGHT","j","0","LEFT","false","","",""
"","call-function","243","353101","0.0-322.0-0.0","cq7hhxa8","","","","","","","","","","","","","","","","","","","","","","","","","","","","","","","",""
"","html-keyboard-response","244","353415","0.0-322.0-1.0","cq7hhxa8","3440","1440","","","","","","","","","","","null","Wrong","Feedback","","","","","null","","","","","","","","","","","",""
"","call-function","245","353415","0.0-322.0-2.0","cq7hhxa8","","","","","","","","","","","","","","","","","","","","","","","","","","","","","","","",""
"","html-keyboard-response","246","354168","0.0-323.0","cq7hhxa8","3440","1440","","","","","","","","","","","null","+","Fixation - short","","","","","null","","","","","","","","","","","",""
"","html-keyboard-response","247","354752","0.0-324.0","cq7hhxa8","3440","1440","","","","","","","","","","","583","dlo","Diagnostic trial","","","","","f","5","3","false","true","LEFT","f","1","LEFT","true","","",""
"","html-keyboard-response","248","355506","0.0-327.0","cq7hhxa8","3440","1440","","","","","","","","","","","null","+","Fixation - short","","","","","null","","","","","","","","","","","",""
"","html-keyboard-response","249","356243","0.0-328.0","cq7hhxa8","3440","1440","","","","","","","","","","","736","hrf","Diagnostic trial","","","","","j","5","4","false","true","LEFT","f","0","RIGHT","false","","",""
"","call-function","250","356244","0.0-330.0-0.0","cq7hhxa8","","","","","","","","","","","","","","","","","","","","","","","","","","","","","","","",""
"","html-keyboard-response","251","356558","0.0-330.0-1.0","cq7hhxa8","3440","1440","","","","","","","","","","","null","Wrong","Feedback","","","","","null","","","","","","","","","","","",""
"","call-function","252","356558","0.0-330.0-2.0","cq7hhxa8","","","","","","","","","","","","","","","","","","","","","","","","","","","","","","","",""
"","html-keyboard-response","253","357308","0.0-331.0","cq7hhxa8","3440","1440","","","","","","","","","","","null","+","Fixation - short","","","","","null","","","","","","","","","","","",""
"","html-keyboard-response","254","358284","0.0-332.0","cq7hhxa8","3440","1440","","","","","","","","","","","975","hrf","Inducer trial","","","","","j","5","","true","","","j","1","RIGHT","","","",""
"","html-keyboard-response","255","359792","0.0-335.0","cq7hhxa8","3440","1440","","","","","","","","","","","null","+","Fixation - long","","","","","null","","","","","","","","","","","",""
"","html-keyboard-response","256","363903","0.0-336.0","cq7hhxa8","3440","1440","","","","","","","","","","","4109","If hvp press LEFT | If nua press RIGHT","Inducer instructions","","","",""," ","6","","","","","","","","","","",""
"","html-keyboard-response","257","364655","0.0-337.0","cq7hhxa8","3440","1440","","","","","","","","","","","null","+","Fixation - short","","","","","null","","","","","","","","","","","",""
"","html-keyboard-response","258","365474","0.0-338.0","cq7hhxa8","3440","1440","","","","","","","","","","","819","hvp","Diagnostic trial","","","","","f","6","0","false","false","RIGHT","j","0","LEFT","false","","",""
"","call-function","259","365475","0.0-340.0-0.0","cq7hhxa8","","","","","","","","","","","","","","","","","","","","","","","","","","","","","","","",""
"","html-keyboard-response","260","365798","0.0-340.0-1.0","cq7hhxa8","3440","1440","","","","","","","","","","","null","Wrong","Feedback","","","","","null","","","","","","","","","","","",""
"","call-function","261","365799","0.0-340.0-2.0","cq7hhxa8","","","","","","","","","","","","","","","","","","","","","","","","","","","","","","","",""
"","html-keyboard-response","262","366562","0.0-341.0","cq7hhxa8","3440","1440","","","","","","","","","","","null","+","Fixation - short","","","","","null","","","","","","","","","","","",""
"","html-keyboard-response","263","367056","0.0-342.0","cq7hhxa8","3440","1440","","","","","","","","","","","494","hvp","Diagnostic trial","","","","","f","6","1","false","true","LEFT","f","1","LEFT","true","","",""
"","html-keyboard-response","264","367819","0.0-345.0","cq7hhxa8","3440","1440","","","","","","","","","","","null","+","Fixation - short","","","","","null","","","","","","","","","","","",""
"","html-keyboard-response","265","368459","0.0-346.0","cq7hhxa8","3440","1440","","","","","","","","","","","639","nua","Diagnostic trial","","","","","j","6","2","false","false","RIGHT","j","1","RIGHT","true","","",""
"","html-keyboard-response","266","369218","0.0-349.0","cq7hhxa8","3440","1440","","","","","","","","","","","null","+","Fixation - short","","","","","null","","","","","","","","","","","",""
"","html-keyboard-response","267","369853","0.0-350.0","cq7hhxa8","3440","1440","","","","","","","","","","","635","hvp","Diagnostic trial","","","","","f","6","3","false","true","LEFT","f","1","LEFT","true","","",""
"","html-keyboard-response","268","370618","0.0-353.0","cq7hhxa8","3440","1440","","","","","","","","","","","null","+","Fixation - short","","","","","null","","","","","","","","","","","",""
"","html-keyboard-response","269","371492","0.0-354.0","cq7hhxa8","3440","1440","","","","","","","","","","","874","hvp","Inducer trial","","","","","f","6","","true","","","f","1","LEFT","","","",""
"","html-keyboard-response","270","372995","0.0-357.0","cq7hhxa8","3440","1440","","","","","","","","","","","null","+","Fixation - long","","","","","null","","","","","","","","","","","",""
"","html-keyboard-response","271","377988","0.0-358.0","cq7hhxa8","3440","1440","","","","","","","","","","","4993","If umf press RIGHT | If byp press LEFT","Inducer instructions","","","",""," ","7","","","","","","","","","","",""
"","html-keyboard-response","272","378754","0.0-359.0","cq7hhxa8","3440","1440","","","","","","","","","","","null","+","Fixation - short","","","","","null","","","","","","","","","","","",""
"","html-keyboard-response","273","379285","0.0-360.0","cq7hhxa8","3440","1440","","","","","","","","","","","531","umf","Diagnostic trial","","","","","j","7","0","false","true","LEFT","f","0","RIGHT","false","","",""
"","call-function","274","379285","0.0-362.0-0.0","cq7hhxa8","","","","","","","","","","","","","","","","","","","","","","","","","","","","","","","",""
"","html-keyboard-response","275","379596","0.0-362.0-1.0","cq7hhxa8","3440","1440","","","","","","","","","","","null","Wrong","Feedback","","","","","null","","","","","","","","","","","",""
"","call-function","276","379596","0.0-362.0-2.0","cq7hhxa8","","","","","","","","","","","","","","","","","","","","","","","","","","","","","","","",""
"","html-keyboard-response","277","380358","0.0-363.0","cq7hhxa8","3440","1440","","","","","","","","","","","null","+","Fixation - short","","","","","null","","","","","","","","","","","",""
"","html-keyboard-response","278","380963","0.0-364.0","cq7hhxa8","3440","1440","","","","","","","","","","","603","byp","Diagnostic trial","","","","","f","7","1","false","true","LEFT","f","1","LEFT","true","","",""
"","html-keyboard-response","279","381723","0.0-367.0","cq7hhxa8","3440","1440","","","","","","","","","","","null","+","Fixation - short","","","","","null","","","","","","","","","","","",""
"","html-keyboard-response","280","382313","0.0-368.0","cq7hhxa8","3440","1440","","","","","","","","","","","590","umf","Diagnostic trial","","","","","j","7","2","false","false","RIGHT","j","1","RIGHT","true","","",""
"","html-keyboard-response","281","383066","0.0-371.0","cq7hhxa8","3440","1440","","","","","","","","","","","null","+","Fixation - short","","","","","null","","","","","","","","","","","",""
"","html-keyboard-response","282","383546","0.0-372.0","cq7hhxa8","3440","1440","","","","","","","","","","","479","umf","Diagnostic trial","","","","","j","7","3","false","true","LEFT","f","0","RIGHT","false","","",""
"","call-function","283","383547","0.0-374.0-0.0","cq7hhxa8","","","","","","","","","","","","","","","","","","","","","","","","","","","","","","","",""
"","html-keyboard-response","284","383882","0.0-374.0-1.0","cq7hhxa8","3440","1440","","","","","","","","","","","null","Wrong","Feedback","","","","","null","","","","","","","","","","","",""
"","call-function","285","383882","0.0-374.0-2.0","cq7hhxa8","","","","","","","","","","","","","","","","","","","","","","","","","","","","","","","",""
"","html-keyboard-response","286","384634","0.0-375.0","cq7hhxa8","3440","1440","","","","","","","","","","","null","+","Fixation - short","","","","","null","","","","","","","","","","","",""
"","html-keyboard-response","287","385140","0.0-376.0","cq7hhxa8","3440","1440","","","","","","","","","","","505","umf","Diagnostic trial","","","","","j","7","4","false","false","RIGHT","j","1","RIGHT","true","","",""
"","html-keyboard-response","288","385902","0.0-379.0","cq7hhxa8","3440","1440","","","","","","","","","","","null","+","Fixation - short","","","","","null","","","","","","","","","","","",""
"","html-keyboard-response","289","386446","0.0-380.0","cq7hhxa8","3440","1440","","","","","","","","","","","543","umf","Diagnostic trial","","","","","j","7","5","false","false","RIGHT","j","1","RIGHT","true","","",""
"","html-keyboard-response","290","387200","0.0-383.0","cq7hhxa8","3440","1440","","","","","","","","","","","null","+","Fixation - short","","","","","null","","","","","","","","","","","",""
"","html-keyboard-response","291","387862","0.0-384.0","cq7hhxa8","3440","1440","","","","","","","","","","","661","byp","Diagnostic trial","","","","","f","7","6","false","true","LEFT","f","1","LEFT","true","","",""
"","html-keyboard-response","292","388622","0.0-387.0","cq7hhxa8","3440","1440","","","","","","","","","","","null","+","Fixation - short","","","","","null","","","","","","","","","","","",""
"","html-keyboard-response","293","389090","0.0-388.0","cq7hhxa8","3440","1440","","","","","","","","","","","466","umf","Diagnostic trial","","","","","j","7","7","false","false","RIGHT","j","1","RIGHT","true","","",""
"","html-keyboard-response","294","389843","0.0-391.0","cq7hhxa8","3440","1440","","","","","","","","","","","null","+","Fixation - short","","","","","null","","","","","","","","","","","",""
"","html-keyboard-response","295","390554","0.0-392.0","cq7hhxa8","3440","1440","","","","","","","","","","","711","byp","Diagnostic trial","","","","","f","7","8","false","true","LEFT","f","1","LEFT","true","","",""
"","html-keyboard-response","296","391316","0.0-395.0","cq7hhxa8","3440","1440","","","","","","","","","","","null","+","Fixation - short","","","","","null","","","","","","","","","","","",""
"","html-keyboard-response","297","392072","0.0-396.0","cq7hhxa8","3440","1440","","","","","","","","","","","754","byp","Diagnostic trial","","","","","f","7","9","false","true","LEFT","f","1","LEFT","true","","",""
"","html-keyboard-response","298","392829","0.0-399.0","cq7hhxa8","3440","1440","","","","","","","","","","","null","+","Fixation - short","","","","","null","","","","","","","","","","","",""
"","html-keyboard-response","299","393658","0.0-400.0","cq7hhxa8","3440","1440","","","","","","","","","","","829","byp","Diagnostic trial","","","","","f","7","10","false","false","RIGHT","j","0","LEFT","false","","",""
"","call-function","300","393659","0.0-402.0-0.0","cq7hhxa8","","","","","","","","","","","","","","","","","","","","","","","","","","","","","","","",""
"","html-keyboard-response","301","393966","0.0-402.0-1.0","cq7hhxa8","3440","1440","","","","","","","","","","","null","Wrong","Feedback","","","","","null","","","","","","","","","","","",""
"","call-function","302","393966","0.0-402.0-2.0","cq7hhxa8","","","","","","","","","","","","","","","","","","","","","","","","","","","","","","","",""
"","html-keyboard-response","303","394720","0.0-403.0","cq7hhxa8","3440","1440","","","","","","","","","","","null","+","Fixation - short","","","","","null","","","","","","","","","","","",""
"","html-keyboard-response","304","395304","0.0-404.0","cq7hhxa8","3440","1440","","","","","","","","","","","583","byp","Diagnostic trial","","","","","f","7","11","false","false","RIGHT","j","0","LEFT","false","","",""
"","call-function","305","395304","0.0-406.0-0.0","cq7hhxa8","","","","","","","","","","","","","","","","","","","","","","","","","","","","","","","",""
"","html-keyboard-response","306","395610","0.0-406.0-1.0","cq7hhxa8","3440","1440","","","","","","","","","","","null","Wrong","Feedback","","","","","null","","","","","","","","","","","",""
"","call-function","307","395611","0.0-406.0-2.0","cq7hhxa8","","","","","","","","","","","","","","","","","","","","","","","","","","","","","","","",""
"","html-keyboard-response","308","396374","0.0-407.0","cq7hhxa8","3440","1440","","","","","","","","","","","null","+","Fixation - short","","","","","null","","","","","","","","","","","",""
"","html-keyboard-response","309","397097","0.0-408.0","cq7hhxa8","3440","1440","","","","","","","","","","","721","byp","Inducer trial","","","","","f","7","","true","","","f","1","LEFT","","","",""
"","html-keyboard-response","310","398608","0.0-411.0","cq7hhxa8","3440","1440","","","","","","","","","","","null","+","Fixation - long","","","","","null","","","","","","","","","","","",""
"","html-keyboard-response","311","404064","0.0-412.0","cq7hhxa8","3440","1440","","","","","","","","","","","5455","If uau press LEFT | If sbk press RIGHT","Inducer instructions","","","",""," ","8","","","","","","","","","","",""
"","html-keyboard-response","312","404826","0.0-413.0","cq7hhxa8","3440","1440","","","","","","","","","","","null","+","Fixation - short","","","","","null","","","","","","","","","","","",""
"","html-keyboard-response","313","405356","0.0-414.0","cq7hhxa8","3440","1440","","","","","","","","","","","530","uau","Diagnostic trial","","","","","f","8","0","false","false","RIGHT","j","0","LEFT","false","","",""
"","call-function","314","405356","0.0-416.0-0.0","cq7hhxa8","","","","","","","","","","","","","","","","","","","","","","","","","","","","","","","",""
"","html-keyboard-response","315","405666","0.0-416.0-1.0","cq7hhxa8","3440","1440","","","","","","","","","","","null","Wrong","Feedback","","","","","null","","","","","","","","","","","",""
"","call-function","316","405666","0.0-416.0-2.0","cq7hhxa8","","","","","","","","","","","","","","","","","","","","","","","","","","","","","","","",""
"","html-keyboard-response","317","406422","0.0-417.0","cq7hhxa8","3440","1440","","","","","","","","","","","null","+","Fixation - short","","","","","null","","","","","","","","","","","",""
"","html-keyboard-response","318","407205","0.0-418.0","cq7hhxa8","3440","1440","","","","","","","","","","","781","uau","Diagnostic trial","","","","","f","8","1","false","false","RIGHT","j","0","LEFT","false","","",""
"","call-function","319","407205","0.0-420.0-0.0","cq7hhxa8","","","","","","","","","","","","","","","","","","","","","","","","","","","","","","","",""
"","html-keyboard-response","320","407510","0.0-420.0-1.0","cq7hhxa8","3440","1440","","","","","","","","","","","null","Wrong","Feedback","","","","","null","","","","","","","","","","","",""
"","call-function","321","407510","0.0-420.0-2.0","cq7hhxa8","","","","","","","","","","","","","","","","","","","","","","","","","","","","","","","",""
"","html-keyboard-response","322","408270","0.0-421.0","cq7hhxa8","3440","1440","","","","","","","","","","","null","+","Fixation - short","","","","","null","","","","","","","","","","","",""
"","html-keyboard-response","323","409198","0.0-422.0","cq7hhxa8","3440","1440","","","","","","","","","","","926","sbk","Diagnostic trial","","","","","j","8","2","false","true","LEFT","f","0","RIGHT","false","","",""
"","call-function","324","409199","0.0-424.0-0.0","cq7hhxa8","","","","","","","","","","","","","","","","","","","","","","","","","","","","","","","",""
"","html-keyboard-response","325","409504","0.0-424.0-1.0","cq7hhxa8","3440","1440","","","","","","","","","","","null","Wrong","Feedback","","","","","null","","","","","","","","","","","",""
"","call-function","326","409504","0.0-424.0-2.0","cq7hhxa8","","","","","","","","","","","","","","","","","","","","","","","","","","","","","","","",""
"","html-keyboard-response","327","410258","0.0-425.0","cq7hhxa8","3440","1440","","","","","","","","","","","null","+","Fixation - short","","","","","null","","","","","","","","","","","",""
"","html-keyboard-response","328","410806","0.0-426.0","cq7hhxa8","3440","1440","","","","","","","","","","","546","uau","Diagnostic trial","","","","","f","8","3","false","false","RIGHT","j","0","LEFT","false","","",""
"","call-function","329","410806","0.0-428.0-0.0","cq7hhxa8","","","","","","","","","","","","","","","","","","","","","","","","","","","","","","","",""
"","html-keyboard-response","330","411115","0.0-428.0-1.0","cq7hhxa8","3440","1440","","","","","","","","","","","null","Wrong","Feedback","","","","","null","","","","","","","","","","","",""
"","call-function","331","411115","0.0-428.0-2.0","cq7hhxa8","","","","","","","","","","","","","","","","","","","","","","","","","","","","","","","",""
"","html-keyboard-response","332","411867","0.0-429.0","cq7hhxa8","3440","1440","","","","","","","","","","","null","+","Fixation - short","","","","","null","","","","","","","","","","","",""
"","html-keyboard-response","333","412385","0.0-430.0","cq7hhxa8","3440","1440","","","","","","","","","","","518","uau","Diagnostic trial","","","","","f","8","4","false","true","LEFT","f","1","LEFT","true","","",""
"","html-keyboard-response","334","413139","0.0-433.0","cq7hhxa8","3440","1440","","","","","","","","","","","null","+","Fixation - short","","","","","null","","","","","","","","","","","",""
"","html-keyboard-response","335","413762","0.0-434.0","cq7hhxa8","3440","1440","","","","","","","","","","","623","sbk","Diagnostic trial","","","","","j","8","5","false","false","RIGHT","j","1","RIGHT","true","","",""
"","html-keyboard-response","336","414513","0.0-437.0","cq7hhxa8","3440","1440","","","","","","","","","","","null","+","Fixation - short","","","","","null","","","","","","","","","","","",""
"","html-keyboard-response","337","415460","0.0-438.0","cq7hhxa8","3440","1440","","","","","","","","","","","946","sbk","Diagnostic trial","","","","","j","8","6","false","false","RIGHT","j","1","RIGHT","true","","",""
"","html-keyboard-response","338","416217","0.0-441.0","cq7hhxa8","3440","1440","","","","","","","","","","","null","+","Fixation - short","","","","","null","","","","","","","","","","","",""
"","html-keyboard-response","339","416919","0.0-442.0","cq7hhxa8","3440","1440","","","","","","","","","","","702","uau","Inducer trial","","","","","f","8","","true","","","f","1","LEFT","","","",""
"","html-keyboard-response","340","418425","0.0-445.0","cq7hhxa8","3440","1440","","","","","","","","","","","null","+","Fixation - long","","","","","null","","","","","","","","","","","",""
"","html-keyboard-response","341","423471","0.0-446.0","cq7hhxa8","3440","1440","","","","","","","","","","","5044","If kpt press RIGHT | If gbm press LEFT","Inducer instructions","","","",""," ","9","","","","","","","","","","",""
"","html-keyboard-response","342","424235","0.0-447.0","cq7hhxa8","3440","1440","","","","","","","","","","","null","+","Fixation - short","","","","","null","","","","","","","","","","","",""
"","html-keyboard-response","343","424954","0.0-448.0","cq7hhxa8","3440","1440","","","","","","","","","","","718","gbm","Diagnostic trial","","","","","f","9","0","false","true","LEFT","f","1","LEFT","true","","",""
"","html-keyboard-response","344","425708","0.0-451.0","cq7hhxa8","3440","1440","","","","","","","","","","","null","+","Fixation - short","","","","","null","","","","","","","","","","","",""
"","html-keyboard-response","345","426210","0.0-452.0","cq7hhxa8","3440","1440","","","","","","","","","","","502","kpt","Diagnostic trial","","","","","j","9","1","false","false","RIGHT","j","1","RIGHT","true","","",""
"","html-keyboard-response","346","426967","0.0-455.0","cq7hhxa8","3440","1440","","","","","","","","","","","null","+","Fixation - short","","","","","null","","","","","","","","","","","",""
"","html-keyboard-response","347","427633","0.0-456.0","cq7hhxa8","3440","1440","","","","","","","","","","","667","gbm","Diagnostic trial","","","","","f","9","2","false","false","RIGHT","j","0","LEFT","false","","",""
"","call-function","348","427633","0.0-458.0-0.0","cq7hhxa8","","","","","","","","","","","","","","","","","","","","","","","","","","","","","","","",""
"","html-keyboard-response","349","427946","0.0-458.0-1.0","cq7hhxa8","3440","1440","","","","","","","","","","","null","Wrong","Feedback","","","","","null","","","","","","","","","","","",""
"","call-function","350","427946","0.0-458.0-2.0","cq7hhxa8","","","","","","","","","","","","","","","","","","","","","","","","","","","","","","","",""
"","html-keyboard-response","351","428707","0.0-459.0","cq7hhxa8","3440","1440","","","","","","","","","","","null","+","Fixation - short","","","","","null","","","","","","","","","","","",""
"","html-keyboard-response","352","429223","0.0-460.0","cq7hhxa8","3440","1440","","","","","","","","","","","514","kpt","Diagnostic trial","","","","","j","9","3","false","false","RIGHT","j","1","RIGHT","true","","",""
"","html-keyboard-response","353","429978","0.0-463.0","cq7hhxa8","3440","1440","","","","","","","","","","","null","+","Fixation - short","","","","","null","","","","","","","","","","","",""
"","html-keyboard-response","354","430583","0.0-464.0","cq7hhxa8","3440","1440","","","","","","","","","","","605","kpt","Diagnostic trial","","","","","j","9","4","false","false","RIGHT","j","1","RIGHT","true","","",""
"","html-keyboard-response","355","431339","0.0-467.0","cq7hhxa8","3440","1440","","","","","","","","","","","null","+","Fixation - short","","","","","null","","","","","","","","","","","",""
"","html-keyboard-response","356","432376","0.0-468.0","cq7hhxa8","3440","1440","","","","","","","","","","","1037","gbm","Diagnostic trial","","","","","f","9","5","false","false","RIGHT","j","0","LEFT","false","","",""
"","call-function","357","432377","0.0-470.0-0.0","cq7hhxa8","","","","","","","","","","","","","","","","","","","","","","","","","","","","","","","",""
"","html-keyboard-response","358","432682","0.0-470.0-1.0","cq7hhxa8","3440","1440","","","","","","","","","","","null","Wrong","Feedback","","","","","null","","","","","","","","","","","",""
"","call-function","359","432682","0.0-470.0-2.0","cq7hhxa8","","","","","","","","","","","","","","","","","","","","","","","","","","","","","","","",""
"","html-keyboard-response","360","433442","0.0-471.0","cq7hhxa8","3440","1440","","","","","","","","","","","null","+","Fixation - short","","","","","null","","","","","","","","","","","",""
"","html-keyboard-response","361","434547","0.0-472.0","cq7hhxa8","3440","1440","","","","","","","","","","","1104","gbm","Inducer trial","","","","","f","9","","true","","","f","1","LEFT","","","",""
"","html-keyboard-response","362","436059","0.0-475.0","cq7hhxa8","3440","1440","","","","","","","","","","","null","+","Fixation - long","","","","","null","","","","","","","","","","","",""
"","call-function","363","436059","0.0-476.0","cq7hhxa8","","","","","","","","","","","","","","","","","","","","","","","","","","","","","","","",""
"","survey","364","453190","0.0-477.0","cq7hhxa8","3440","1440","","","","","","","","","","","17111","distraction-feedback","Distraction and feedback","","","","","{""open_feedback"":""This was a cluseterfuck""}","","","","","","","","","","[]","This was a cluseterfuck","[{""event"":""fullscreenenter"",""trial"":3,""time"":36933}]"
