"value","trial_type","trial_index","time_elapsed","internal_node_id","id","width","height","webaudio","browser","browser_version","mobile","os","fullscreen","vsync_rate","webcam","microphone","view_history","rt","stimulus","trial_info","success","response","inducer_run","diagnostic_run","inducer_trial","italic","correct_diag_response_side","correct_response_key","correct_response","correct_inducer_response_side","congruent","accuracy","open_feedback","interactive"
"","call-function","0","1","0.0-0.0","xg8vmgtv","","","","","","","","","","","","","","","","","","","","","","","","","","","","",""
"","browser-check","1","1017","0.0-1.0","xg8vmgtv","1440","708","true","chrome","120.0.0","false","Mac OS","true","59.98","true","true","","","","","","","","","","","","","","","","","",""
"","instructions","2","62983","0.0-2.0","xg8vmgtv","","","","","","","","","","","","[{""page_index"":0,""viewing_time"":8014},{""page_index"":1,""viewing_time"":34600},{""page_index"":2,""viewing_time"":19351}]","61966","The experiment and consent","The experiment and consent","","","","","","","","","","","","","",""
"","fullscreen","3","82119","0.0-3.0","xg8vmgtv","1440","900","","","","","","","","","","","18129","","Full screen","true","","","","","","","","","","","","",""
"","instructions","4","124765","0.0-4.0","xg8vmgtv","1440","900","","","","","","","","","","[{""page_index"":0,""viewing_time"":27527},{""page_index"":1,""viewing_time"":15117}]","42645","Instructions","Basic overview explanation","","","","","","","","","","","","","",""
"","html-keyboard-response","5","142061","0.0-5.0","xg8vmgtv","1440","900","","","","","","","","","","","15789","If italic press RIGHT | If upright press LEFT","Diagnostic instructions",""," ","","","","","","","","","","","",""
"","html-keyboard-response","6","142814","0.0-6.0","xg8vmgtv","1440","900","","","","","","","","","","","null","+","Fixation - short","","null","","","","","","","","","","","",""
"","html-keyboard-response","7","144075","0.0-7.0","xg8vmgtv","1440","900","","","","","","","","","","","1260","pte","Practice diganostic trial","","f","practice","0","false","1","LEFT","f","1","","","","",""
"","html-keyboard-response","8","144833","0.0-10.0","xg8vmgtv","1440","900","","","","","","","","","","","null","+","Fixation - short","","null","","","","","","","","","","","",""
"","html-keyboard-response","9","146817","0.0-11.0","xg8vmgtv","1440","900","","","","","","","","","","","1983","upf","Practice diganostic trial","","j","practice","1","false","","LEFT","f","0","","","","",""
"","call-function","10","146818","0.0-13.0-0.0","xg8vmgtv","","","","","","","","","","","","","","","","","","","","","","","","","","","","",""
"","html-keyboard-response","11","147122","0.0-13.0-1.0","xg8vmgtv","1440","900","","","","","","","","","","","null","Wrong","Feedback","","null","","","","","","","","","","","",""
"","call-function","12","147123","0.0-13.0-2.0","xg8vmgtv","","","","","","","","","","","","","","","","","","","","","","","","","","","","",""
"","html-keyboard-response","13","147880","0.0-14.0","xg8vmgtv","1440","900","","","","","","","","","","","null","+","Fixation - short","","null","","","","","","","","","","","",""
"","html-keyboard-response","14","148446","0.0-15.0","xg8vmgtv","1440","900","","","","","","","","","","","565","pte","Practice diganostic trial","","f","practice","2","false","","LEFT","f","1","","","","",""
"","html-keyboard-response","15","149204","0.0-18.0","xg8vmgtv","1440","900","","","","","","","","","","","null","+","Fixation - short","","null","","","","","","","","","","","",""
"","html-keyboard-response","16","149707","0.0-19.0","xg8vmgtv","1440","900","","","","","","","","","","","503","upf","Practice diganostic trial","","f","practice","3","false","","LEFT","f","1","","","","",""
"","html-keyboard-response","17","150464","0.0-22.0","xg8vmgtv","1440","900","","","","","","","","","","","null","+","Fixation - short","","null","","","","","","","","","","","",""
"","html-keyboard-response","18","150975","0.0-23.0","xg8vmgtv","1440","900","","","","","","","","","","","509","upf","Practice diganostic trial","","f","practice","4","false","","LEFT","f","1","","","","",""
"","html-keyboard-response","19","151727","0.0-26.0","xg8vmgtv","1440","900","","","","","","","","","","","null","+","Fixation - short","","null","","","","","","","","","","","",""
"","html-keyboard-response","20","152128","0.0-27.0","xg8vmgtv","1440","900","","","","","","","","","","","400","upf","Practice diganostic trial","","f","practice","5","false","","LEFT","f","1","","","","",""
"","html-keyboard-response","21","152884","0.0-30.0","xg8vmgtv","1440","900","","","","","","","","","","","null","+","Fixation - short","","null","","","","","","","","","","","",""
"","html-keyboard-response","22","153227","0.0-31.0","xg8vmgtv","1440","900","","","","","","","","","","","342","upf","Practice diganostic trial","","f","practice","6","false","","LEFT","f","1","","","","",""
"","html-keyboard-response","23","153984","0.0-34.0","xg8vmgtv","1440","900","","","","","","","","","","","null","+","Fixation - short","","null","","","","","","","","","","","",""
"","html-keyboard-response","24","154273","0.0-35.0","xg8vmgtv","1440","900","","","","","","","","","","","288","pte","Practice diganostic trial","","f","practice","7","false","","LEFT","f","1","","","","",""
"","html-keyboard-response","25","155026","0.0-38.0","xg8vmgtv","1440","900","","","","","","","","","","","null","+","Fixation - short","","null","","","","","","","","","","","",""
"","html-keyboard-response","26","155369","0.0-39.0","xg8vmgtv","1440","900","","","","","","","","","","","342","pte","Practice diganostic trial","","f","practice","8","false","","LEFT","f","1","","","","",""
"","html-keyboard-response","27","156120","0.0-42.0","xg8vmgtv","1440","900","","","","","","","","","","","null","+","Fixation - short","","null","","","","","","","","","","","",""
"","html-keyboard-response","28","156454","0.0-43.0","xg8vmgtv","1440","900","","","","","","","","","","","333","pte","Practice diganostic trial","","f","practice","9","false","","LEFT","f","1","","","","",""
"","html-keyboard-response","29","157206","0.0-46.0","xg8vmgtv","1440","900","","","","","","","","","","","null","+","Fixation - short","","null","","","","","","","","","","","",""
"","html-keyboard-response","30","157518","0.0-47.0","xg8vmgtv","1440","900","","","","","","","","","","","311","pte","Practice diganostic trial","","f","practice","10","false","","LEFT","f","1","","","","",""
"","html-keyboard-response","31","158274","0.0-50.0","xg8vmgtv","1440","900","","","","","","","","","","","null","+","Fixation - short","","null","","","","","","","","","","","",""
"","html-keyboard-response","32","158605","0.0-51.0","xg8vmgtv","1440","900","","","","","","","","","","","330","pte","Practice diganostic trial","","f","practice","11","false","","LEFT","f","1","","","","",""
"","html-keyboard-response","33","159362","0.0-54.0","xg8vmgtv","1440","900","","","","","","","","","","","null","+","Fixation - short","","null","","","","","","","","","","","",""
"","html-keyboard-response","34","159685","0.0-55.0","xg8vmgtv","1440","900","","","","","","","","","","","322","pte","Practice diganostic trial","","f","practice","12","false","","LEFT","f","1","","","","",""
"","html-keyboard-response","35","160438","0.0-58.0","xg8vmgtv","1440","900","","","","","","","","","","","null","+","Fixation - short","","null","","","","","","","","","","","",""
"","html-keyboard-response","36","160760","0.0-59.0","xg8vmgtv","1440","900","","","","","","","","","","","321","upf","Practice diganostic trial","","f","practice","13","false","","LEFT","f","1","","","","",""
"","html-keyboard-response","37","161513","0.0-62.0","xg8vmgtv","1440","900","","","","","","","","","","","null","+","Fixation - short","","null","","","","","","","","","","","",""
"","html-keyboard-response","38","161820","0.0-63.0","xg8vmgtv","1440","900","","","","","","","","","","","306","pte","Practice diganostic trial","","f","practice","14","false","","LEFT","f","1","","","","",""
"","html-keyboard-response","39","162575","0.0-66.0","xg8vmgtv","1440","900","","","","","","","","","","","null","+","Fixation - short","","null","","","","","","","","","","","",""
"","instructions","40","180231","0.0-67.0","xg8vmgtv","1440","900","","","","","","","","","","[{""page_index"":0,""viewing_time"":17654}]","17655","Instructions","Final experiment explanation","","","","","","","","","","","","","",""
"","html-keyboard-response","41","192008","0.0-68.0","xg8vmgtv","1440","900","","","","","","","","","","","10274","If flh press LEFT | If snx press RIGHT","Practice inducer instructions",""," ","practice","","","","","","","","","","",""
"","html-keyboard-response","42","192867","0.0-69.0","xg8vmgtv","1440","900","","","","","","","","","","","858","flh","Practice inducer trial","","f","practice","","true","","","","1","","","","",""
"","html-keyboard-response","43","193620","0.0-72.0","xg8vmgtv","1440","900","","","","","","","","","","","null","+","Fixation - short","","null","","","","","","","","","","","",""
"","html-keyboard-response","44","199486","0.0-73.0","xg8vmgtv","1440","900","","","","","","","","","","","5865","If dgv press LEFT | If eeu press RIGHT","Practice inducer instructions",""," ","practice","","","","","","","","","","",""
"","html-keyboard-response","45","200167","0.0-74.0","xg8vmgtv","1440","900","","","","","","","","","","","680","dgv","Practice inducer trial","","j","practice","","true","","","","0","","","","",""
"","call-function","46","200168","0.0-76.0-0.0","xg8vmgtv","","","","","","","","","","","","","","","","","","","","","","","","","","","","",""
"","html-keyboard-response","47","200470","0.0-76.0-1.0","xg8vmgtv","1440","900","","","","","","","","","","","null","Wrong","Feedback","","null","","","","","","","","","","","",""
"","call-function","48","200471","0.0-76.0-2.0","xg8vmgtv","","","","","","","","","","","","","","","","","","","","","","","","","","","","",""
"","html-keyboard-response","49","201227","0.0-77.0","xg8vmgtv","1440","900","","","","","","","","","","","null","+","Fixation - short","","null","","","","","","","","","","","",""
"","html-keyboard-response","50","205751","0.0-78.0","xg8vmgtv","1440","900","","","","","","","","","","","4523","If chy press LEFT | If vib press RIGHT","Practice inducer instructions",""," ","practice","","","","","","","","","","",""
"","html-keyboard-response","51","206800","0.0-79.0","xg8vmgtv","1440","900","","","","","","","","","","","1047","chy","Practice inducer trial","","f","practice","","true","","","","1","","","","",""
"","html-keyboard-response","52","207556","0.0-82.0","xg8vmgtv","1440","900","","","","","","","","","","","null","+","Fixation - short","","null","","","","","","","","","","","",""
"","html-keyboard-response","53","209688","0.0-83.0","xg8vmgtv","1440","900","","","","","","","","","","","2131","If wrz press LEFT | If ila press RIGHT","Practice inducer instructions",""," ","practice","","","","","","","","","","",""
"","html-keyboard-response","54","210320","0.0-84.0","xg8vmgtv","1440","900","","","","","","","","","","","631","ila","Practice inducer trial","","j","practice","","true","","","","1","","","","",""
"","html-keyboard-response","55","211077","0.0-87.0","xg8vmgtv","1440","900","","","","","","","","","","","null","+","Fixation - short","","null","","","","","","","","","","","",""
"","html-keyboard-response","56","225453","0.0-88.0","xg8vmgtv","1440","900","","","","","","","","","","","14375","End practice","End of practice",""," ","","","","","","","","","","","",""
"","html-keyboard-response","57","226958","0.0-89.0","xg8vmgtv","1440","900","","","","","","","","","","","null","+","Fixation - long","","null","","","","","","","","","","","",""
"","html-keyboard-response","58","232611","0.0-90.0","xg8vmgtv","1440","900","","","","","","","","","","","5652","If dlg press LEFT | If sdw press RIGHT","Inducer instructions",""," ","0","","","","","","","","","","",""
"","html-keyboard-response","59","233366","0.0-91.0","xg8vmgtv","1440","900","","","","","","","","","","","null","+","Fixation - short","","null","","","","","","","","","","","",""
"","html-keyboard-response","60","233935","0.0-92.0","xg8vmgtv","1440","900","","","","","","","","","","","567","sdw","Diagnostic trial","","f","0","0","false","true","RIGHT","j","0","RIGHT","true","","",""
"","call-function","61","233936","0.0-94.0-0.0","xg8vmgtv","","","","","","","","","","","","","","","","","","","","","","","","","","","","",""
"","html-keyboard-response","62","234239","0.0-94.0-1.0","xg8vmgtv","1440","900","","","","","","","","","","","null","Wrong","Feedback","","null","","","","","","","","","","","",""
"","call-function","63","234240","0.0-94.0-2.0","xg8vmgtv","","","","","","","","","","","","","","","","","","","","","","","","","","","","",""
"","html-keyboard-response","64","234992","0.0-95.0","xg8vmgtv","1440","900","","","","","","","","","","","null","+","Fixation - short","","null","","","","","","","","","","","",""
"","html-keyboard-response","65","235551","0.0-96.0","xg8vmgtv","1440","900","","","","","","","","","","","558","sdw","Diagnostic trial","","j","0","1","false","true","RIGHT","j","1","RIGHT","true","","",""
"","html-keyboard-response","66","236306","0.0-99.0","xg8vmgtv","1440","900","","","","","","","","","","","null","+","Fixation - short","","null","","","","","","","","","","","",""
"","html-keyboard-response","67","236746","0.0-100.0","xg8vmgtv","1440","900","","","","","","","","","","","438","sdw","Diagnostic trial","","j","0","2","false","true","RIGHT","j","1","RIGHT","true","","",""
"","html-keyboard-response","68","237502","0.0-103.0","xg8vmgtv","1440","900","","","","","","","","","","","null","+","Fixation - short","","null","","","","","","","","","","","",""
"","html-keyboard-response","69","238163","0.0-104.0","xg8vmgtv","1440","900","","","","","","","","","","","659","dlg","Diagnostic trial","","j","0","3","false","true","RIGHT","j","1","LEFT","false","","",""
"","html-keyboard-response","70","238915","0.0-107.0","xg8vmgtv","1440","900","","","","","","","","","","","null","+","Fixation - short","","null","","","","","","","","","","","",""
"","html-keyboard-response","71","239554","0.0-108.0","xg8vmgtv","1440","900","","","","","","","","","","","638","dlg","Diagnostic trial","","f","0","4","false","false","LEFT","f","1","LEFT","true","","",""
"","html-keyboard-response","72","240308","0.0-111.0","xg8vmgtv","1440","900","","","","","","","","","","","null","+","Fixation - short","","null","","","","","","","","","","","",""
"","html-keyboard-response","73","241361","0.0-112.0","xg8vmgtv","1440","900","","","","","","","","","","","1052","sdw","Diagnostic trial","","j","0","5","false","true","RIGHT","j","1","RIGHT","true","","",""
"","html-keyboard-response","74","242117","0.0-115.0","xg8vmgtv","1440","900","","","","","","","","","","","null","+","Fixation - short","","null","","","","","","","","","","","",""
"","html-keyboard-response","75","243089","0.0-116.0","xg8vmgtv","1440","900","","","","","","","","","","","971","sdw","Diagnostic trial","","f","0","6","false","false","LEFT","f","1","RIGHT","false","","",""
"","html-keyboard-response","76","243846","0.0-119.0","xg8vmgtv","1440","900","","","","","","","","","","","null","+","Fixation - short","","null","","","","","","","","","","","",""
"","html-keyboard-response","77","244497","0.0-120.0","xg8vmgtv","1440","900","","","","","","","","","","","649","dlg","Diagnostic trial","","f","0","7","false","false","LEFT","f","1","LEFT","true","","",""
"","html-keyboard-response","78","245252","0.0-123.0","xg8vmgtv","1440","900","","","","","","","","","","","null","+","Fixation - short","","null","","","","","","","","","","","",""
"","html-keyboard-response","79","246227","0.0-124.0","xg8vmgtv","1440","900","","","","","","","","","","","974","sdw","Inducer trial","","f","0","","true","","","","0","","","","",""
"","call-function","80","246228","0.0-126.0-0.0","xg8vmgtv","","","","","","","","","","","","","","","","","","","","","","","","","","","","",""
"","html-keyboard-response","81","246530","0.0-126.0-1.0","xg8vmgtv","1440","900","","","","","","","","","","","null","Wrong","Feedback","","null","","","","","","","","","","","",""
"","call-function","82","246531","0.0-126.0-2.0","xg8vmgtv","","","","","","","","","","","","","","","","","","","","","","","","","","","","",""
"","html-keyboard-response","83","248038","0.0-127.0","xg8vmgtv","1440","900","","","","","","","","","","","null","+","Fixation - long","","null","","","","","","","","","","","",""
"","html-keyboard-response","84","250443","0.0-128.0","xg8vmgtv","1440","900","","","","","","","","","","","2404","If cer press LEFT | If rrd press RIGHT","Inducer instructions",""," ","1","","","","","","","","","","",""
"","html-keyboard-response","85","251197","0.0-129.0","xg8vmgtv","1440","900","","","","","","","","","","","null","+","Fixation - short","","null","","","","","","","","","","","",""
"","html-keyboard-response","86","251855","0.0-130.0","xg8vmgtv","1440","900","","","","","","","","","","","657","cer","Diagnostic trial","","f","1","0","false","false","LEFT","f","1","LEFT","true","","",""
"","html-keyboard-response","87","252613","0.0-133.0","xg8vmgtv","1440","900","","","","","","","","","","","null","+","Fixation - short","","null","","","","","","","","","","","",""
"","html-keyboard-response","88","253580","0.0-134.0","xg8vmgtv","1440","900","","","","","","","","","","","966","rrd","Diagnostic trial","","j","1","1","false","true","RIGHT","j","1","RIGHT","true","","",""
"","html-keyboard-response","89","254335","0.0-137.0","xg8vmgtv","1440","900","","","","","","","","","","","null","+","Fixation - short","","null","","","","","","","","","","","",""
"","html-keyboard-response","90","255436","0.0-138.0","xg8vmgtv","1440","900","","","","","","","","","","","1100","cer","Diagnostic trial","","j","1","2","false","true","RIGHT","j","1","LEFT","false","","",""
"","html-keyboard-response","91","256189","0.0-141.0","xg8vmgtv","1440","900","","","","","","","","","","","null","+","Fixation - short","","null","","","","","","","","","","","",""
"","html-keyboard-response","92","256770","0.0-142.0","xg8vmgtv","1440","900","","","","","","","","","","","580","cer","Diagnostic trial","","j","1","3","false","true","RIGHT","j","1","LEFT","false","","",""
"","html-keyboard-response","93","257527","0.0-145.0","xg8vmgtv","1440","900","","","","","","","","","","","null","+","Fixation - short","","null","","","","","","","","","","","",""
"","html-keyboard-response","94","259037","0.0-146.0","xg8vmgtv","1440","900","","","","","","","","","","","1509","rrd","Inducer trial","","j","1","","true","","","","1","","","","",""
"","html-keyboard-response","95","260539","0.0-149.0","xg8vmgtv","1440","900","","","","","","","","","","","null","+","Fixation - long","","null","","","","","","","","","","","",""
"","html-keyboard-response","96","262102","0.0-150.0","xg8vmgtv","1440","900","","","","","","","","","","","1562","If feg press LEFT | If mvv press RIGHT","Inducer instructions",""," ","2","","","","","","","","","","",""
"","html-keyboard-response","97","262859","0.0-151.0","xg8vmgtv","1440","900","","","","","","","","","","","null","+","Fixation - short","","null","","","","","","","","","","","",""
"","html-keyboard-response","98","263866","0.0-152.0","xg8vmgtv","1440","900","","","","","","","","","","","1005","feg","Diagnostic trial","","j","2","0","false","true","RIGHT","j","1","LEFT","false","","",""
"","html-keyboard-response","99","264620","0.0-155.0","xg8vmgtv","1440","900","","","","","","","","","","","null","+","Fixation - short","","null","","","","","","","","","","","",""
"","html-keyboard-response","100","265338","0.0-156.0","xg8vmgtv","1440","900","","","","","","","","","","","717","feg","Diagnostic trial","","f","2","1","false","false","LEFT","f","1","LEFT","true","","",""
"","html-keyboard-response","101","266094","0.0-159.0","xg8vmgtv","1440","900","","","","","","","","","","","null","+","Fixation - short","","null","","","","","","","","","","","",""
"","html-keyboard-response","102","267071","0.0-160.0","xg8vmgtv","1440","900","","","","","","","","","","","976","mvv","Diagnostic trial","","f","2","2","false","false","LEFT","f","1","RIGHT","false","","",""
"","html-keyboard-response","103","267827","0.0-163.0","xg8vmgtv","1440","900","","","","","","","","","","","null","+","Fixation - short","","null","","","","","","","","","","","",""
"","html-keyboard-response","104","268477","0.0-164.0","xg8vmgtv","1440","900","","","","","","","","","","","648","mvv","Diagnostic trial","","f","2","3","false","false","LEFT","f","1","RIGHT","false","","",""
"","html-keyboard-response","105","269229","0.0-167.0","xg8vmgtv","1440","900","","","","","","","","","","","null","+","Fixation - short","","null","","","","","","","","","","","",""
"","html-keyboard-response","106","269883","0.0-168.0","xg8vmgtv","1440","900","","","","","","","","","","","653","mvv","Diagnostic trial","","j","2","4","false","true","RIGHT","j","1","RIGHT","true","","",""
"","html-keyboard-response","107","270638","0.0-171.0","xg8vmgtv","1440","900","","","","","","","","","","","null","+","Fixation - short","","null","","","","","","","","","","","",""
"","html-keyboard-response","108","271464","0.0-172.0","xg8vmgtv","1440","900","","","","","","","","","","","824","mvv","Diagnostic trial","","j","2","5","false","true","RIGHT","j","1","RIGHT","true","","",""
"","html-keyboard-response","109","272221","0.0-175.0","xg8vmgtv","1440","900","","","","","","","","","","","null","+","Fixation - short","","null","","","","","","","","","","","",""
"","html-keyboard-response","110","272686","0.0-176.0","xg8vmgtv","1440","900","","","","","","","","","","","464","mvv","Diagnostic trial","","j","2","6","false","true","RIGHT","j","1","RIGHT","true","","",""
"","html-keyboard-response","111","273443","0.0-179.0","xg8vmgtv","1440","900","","","","","","","","","","","null","+","Fixation - short","","null","","","","","","","","","","","",""
"","html-keyboard-response","112","274129","0.0-180.0","xg8vmgtv","1440","900","","","","","","","","","","","685","feg","Diagnostic trial","","f","2","7","false","false","LEFT","f","1","LEFT","true","","",""
"","html-keyboard-response","113","274883","0.0-183.0","xg8vmgtv","1440","900","","","","","","","","","","","null","+","Fixation - short","","null","","","","","","","","","","","",""
"","html-keyboard-response","114","275394","0.0-184.0","xg8vmgtv","1440","900","","","","","","","","","","","509","feg","Diagnostic trial","","f","2","8","false","false","LEFT","f","1","LEFT","true","","",""
"","html-keyboard-response","115","276149","0.0-187.0","xg8vmgtv","1440","900","","","","","","","","","","","null","+","Fixation - short","","null","","","","","","","","","","","",""
"","html-keyboard-response","116","277163","0.0-188.0","xg8vmgtv","1440","900","","","","","","","","","","","1013","feg","Inducer trial","","f","2","","true","","","","1","","","","",""
"","html-keyboard-response","117","278672","0.0-191.0","xg8vmgtv","1440","900","","","","","","","","","","","null","+","Fixation - long","","null","","","","","","","","","","","",""
"","html-keyboard-response","118","279687","0.0-192.0","xg8vmgtv","1440","900","","","","","","","","","","","1013","If aor press LEFT | If xet press RIGHT","Inducer instructions",""," ","3","","","","","","","","","","",""
"","html-keyboard-response","119","280440","0.0-193.0","xg8vmgtv","1440","900","","","","","","","","","","","null","+","Fixation - short","","null","","","","","","","","","","","",""
"","html-keyboard-response","120","281283","0.0-194.0","xg8vmgtv","1440","900","","","","","","","","","","","842","xet","Diagnostic trial","","f","3","0","false","false","LEFT","f","1","RIGHT","false","","",""
"","html-keyboard-response","121","282038","0.0-197.0","xg8vmgtv","1440","900","","","","","","","","","","","null","+","Fixation - short","","null","","","","","","","","","","","",""
"","html-keyboard-response","122","282893","0.0-198.0","xg8vmgtv","1440","900","","","","","","","","","","","854","aor","Diagnostic trial","","f","3","1","false","false","LEFT","f","1","LEFT","true","","",""
"","html-keyboard-response","123","283650","0.0-201.0","xg8vmgtv","1440","900","","","","","","","","","","","null","+","Fixation - short","","null","","","","","","","","","","","",""
"","html-keyboard-response","124","284421","0.0-202.0","xg8vmgtv","1440","900","","","","","","","","","","","769","xet","Diagnostic trial","","j","3","2","false","true","RIGHT","j","1","RIGHT","true","","",""
"","html-keyboard-response","125","285178","0.0-205.0","xg8vmgtv","1440","900","","","","","","","","","","","null","+","Fixation - short","","null","","","","","","","","","","","",""
"","html-keyboard-response","126","286009","0.0-206.0","xg8vmgtv","1440","900","","","","","","","","","","","830","aor","Diagnostic trial","","f","3","3","false","false","LEFT","f","1","LEFT","true","","",""
"","html-keyboard-response","127","286762","0.0-209.0","xg8vmgtv","1440","900","","","","","","","","","","","null","+","Fixation - short","","null","","","","","","","","","","","",""
"","html-keyboard-response","128","287274","0.0-210.0","xg8vmgtv","1440","900","","","","","","","","","","","511","aor","Diagnostic trial","","f","3","4","false","false","LEFT","f","1","LEFT","true","","",""
"","html-keyboard-response","129","288031","0.0-213.0","xg8vmgtv","1440","900","","","","","","","","","","","null","+","Fixation - short","","null","","","","","","","","","","","",""
"","html-keyboard-response","130","288853","0.0-214.0","xg8vmgtv","1440","900","","","","","","","","","","","821","aor","Diagnostic trial","","j","3","5","false","true","RIGHT","j","1","LEFT","false","","",""
"","html-keyboard-response","131","289607","0.0-217.0","xg8vmgtv","1440","900","","","","","","","","","","","null","+","Fixation - short","","null","","","","","","","","","","","",""
"","html-keyboard-response","132","290515","0.0-218.0","xg8vmgtv","1440","900","","","","","","","","","","","907","aor","Diagnostic trial","","j","3","6","false","true","RIGHT","j","1","LEFT","false","","",""
"","html-keyboard-response","133","291267","0.0-221.0","xg8vmgtv","1440","900","","","","","","","","","","","null","+","Fixation - short","","null","","","","","","","","","","","",""
"","html-keyboard-response","134","292144","0.0-222.0","xg8vmgtv","1440","900","","","","","","","","","","","875","xet","Diagnostic trial","","f","3","7","false","false","LEFT","f","1","RIGHT","false","","",""
"","html-keyboard-response","135","292896","0.0-225.0","xg8vmgtv","1440","900","","","","","","","","","","","null","+","Fixation - short","","null","","","","","","","","","","","",""
"","html-keyboard-response","136","293444","0.0-226.0","xg8vmgtv","1440","900","","","","","","","","","","","546","xet","Diagnostic trial","","f","3","8","false","false","LEFT","f","1","RIGHT","false","","",""
"","html-keyboard-response","137","294196","0.0-229.0","xg8vmgtv","1440","900","","","","","","","","","","","null","+","Fixation - short","","null","","","","","","","","","","","",""
"","html-keyboard-response","138","294877","0.0-230.0","xg8vmgtv","1440","900","","","","","","","","","","","679","xet","Diagnostic trial","","j","3","9","false","true","RIGHT","j","1","RIGHT","true","","",""
"","html-keyboard-response","139","295634","0.0-233.0","xg8vmgtv","1440","900","","","","","","","","","","","null","+","Fixation - short","","null","","","","","","","","","","","",""
"","html-keyboard-response","140","296300","0.0-234.0","xg8vmgtv","1440","900","","","","","","","","","","","665","xet","Diagnostic trial","","f","3","10","false","false","LEFT","f","1","RIGHT","false","","",""
"","html-keyboard-response","141","297053","0.0-237.0","xg8vmgtv","1440","900","","","","","","","","","","","null","+","Fixation - short","","null","","","","","","","","","","","",""
"","html-keyboard-response","142","297648","0.0-238.0","xg8vmgtv","1440","900","","","","","","","","","","","594","xet","Diagnostic trial","","f","3","11","false","false","LEFT","f","1","RIGHT","false","","",""
"","html-keyboard-response","143","298404","0.0-241.0","xg8vmgtv","1440","900","","","","","","","","","","","null","+","Fixation - short","","null","","","","","","","","","","","",""
"","html-keyboard-response","144","299144","0.0-242.0","xg8vmgtv","1440","900","","","","","","","","","","","738","aor","Diagnostic trial","","j","3","12","false","true","RIGHT","j","1","LEFT","false","","",""
"","html-keyboard-response","145","299897","0.0-245.0","xg8vmgtv","1440","900","","","","","","","","","","","null","+","Fixation - short","","null","","","","","","","","","","","",""
"","html-keyboard-response","146","300450","0.0-246.0","xg8vmgtv","1440","900","","","","","","","","","","","552","xet","Inducer trial","","f","3","","true","","","","0","","","","",""
"","call-function","147","300451","0.0-248.0-0.0","xg8vmgtv","","","","","","","","","","","","","","","","","","","","","","","","","","","","",""
"","html-keyboard-response","148","300754","0.0-248.0-1.0","xg8vmgtv","1440","900","","","","","","","","","","","null","Wrong","Feedback","","null","","","","","","","","","","","",""
"","call-function","149","300754","0.0-248.0-2.0","xg8vmgtv","","","","","","","","","","","","","","","","","","","","","","","","","","","","",""
"","html-keyboard-response","150","302260","0.0-249.0","xg8vmgtv","1440","900","","","","","","","","","","","null","+","Fixation - long","","null","","","","","","","","","","","",""
"","html-keyboard-response","151","303956","0.0-250.0","xg8vmgtv","1440","900","","","","","","","","","","","1694","If gso press LEFT | If tkb press RIGHT","Inducer instructions",""," ","4","","","","","","","","","","",""
"","html-keyboard-response","152","304713","0.0-251.0","xg8vmgtv","1440","900","","","","","","","","","","","null","+","Fixation - short","","null","","","","","","","","","","","",""
"","html-keyboard-response","153","305901","0.0-252.0","xg8vmgtv","1440","900","","","","","","","","","","","1187","gso","Diagnostic trial","","f","4","0","false","false","LEFT","f","1","LEFT","true","","",""
"","html-keyboard-response","154","306654","0.0-255.0","xg8vmgtv","1440","900","","","","","","","","","","","null","+","Fixation - short","","null","","","","","","","","","","","",""
"","html-keyboard-response","155","307290","0.0-256.0","xg8vmgtv","1440","900","","","","","","","","","","","636","tkb","Diagnostic trial","","f","4","1","false","false","LEFT","f","1","RIGHT","false","","",""
"","html-keyboard-response","156","308046","0.0-259.0","xg8vmgtv","1440","900","","","","","","","","","","","null","+","Fixation - short","","null","","","","","","","","","","","",""
"","html-keyboard-response","157","308715","0.0-260.0","xg8vmgtv","1440","900","","","","","","","","","","","668","gso","Diagnostic trial","","j","4","2","false","true","RIGHT","j","1","LEFT","false","","",""
"","html-keyboard-response","158","309469","0.0-263.0","xg8vmgtv","1440","900","","","","","","","","","","","null","+","Fixation - short","","null","","","","","","","","","","","",""
"","html-keyboard-response","159","310204","0.0-264.0","xg8vmgtv","1440","900","","","","","","","","","","","734","tkb","Diagnostic trial","","j","4","3","false","true","RIGHT","j","1","RIGHT","true","","",""
"","html-keyboard-response","160","310960","0.0-267.0","xg8vmgtv","1440","900","","","","","","","","","","","null","+","Fixation - short","","null","","","","","","","","","","","",""
"","html-keyboard-response","161","311542","0.0-268.0","xg8vmgtv","1440","900","","","","","","","","","","","581","tkb","Diagnostic trial","","f","4","4","false","false","LEFT","f","1","RIGHT","false","","",""
"","html-keyboard-response","162","312296","0.0-271.0","xg8vmgtv","1440","900","","","","","","","","","","","null","+","Fixation - short","","null","","","","","","","","","","","",""
"","html-keyboard-response","163","313012","0.0-272.0","xg8vmgtv","1440","900","","","","","","","","","","","714","gso","Diagnostic trial","","f","4","5","false","false","LEFT","f","1","LEFT","true","","",""
"","html-keyboard-response","164","313764","0.0-275.0","xg8vmgtv","1440","900","","","","","","","","","","","null","+","Fixation - short","","null","","","","","","","","","","","",""
"","html-keyboard-response","165","314436","0.0-276.0","xg8vmgtv","1440","900","","","","","","","","","","","671","gso","Diagnostic trial","","f","4","6","false","false","LEFT","f","1","LEFT","true","","",""
"","html-keyboard-response","166","315193","0.0-279.0","xg8vmgtv","1440","900","","","","","","","","","","","null","+","Fixation - short","","null","","","","","","","","","","","",""
"","html-keyboard-response","167","315666","0.0-280.0","xg8vmgtv","1440","900","","","","","","","","","","","472","gso","Diagnostic trial","","f","4","7","false","false","LEFT","f","1","LEFT","true","","",""
"","html-keyboard-response","168","316423","0.0-283.0","xg8vmgtv","1440","900","","","","","","","","","","","null","+","Fixation - short","","null","","","","","","","","","","","",""
"","html-keyboard-response","169","317162","0.0-284.0","xg8vmgtv","1440","900","","","","","","","","","","","738","gso","Diagnostic trial","","j","4","8","false","true","RIGHT","j","1","LEFT","false","","",""
"","html-keyboard-response","170","317918","0.0-287.0","xg8vmgtv","1440","900","","","","","","","","","","","null","+","Fixation - short","","null","","","","","","","","","","","",""
"","html-keyboard-response","171","318459","0.0-288.0","xg8vmgtv","1440","900","","","","","","","","","","","540","gso","Diagnostic trial","","f","4","9","false","false","LEFT","f","1","LEFT","true","","",""
"","html-keyboard-response","172","319213","0.0-291.0","xg8vmgtv","1440","900","","","","","","","","","","","null","+","Fixation - short","","null","","","","","","","","","","","",""
"","html-keyboard-response","173","319900","0.0-292.0","xg8vmgtv","1440","900","","","","","","","","","","","686","gso","Diagnostic trial","","f","4","10","false","false","LEFT","f","1","LEFT","true","","",""
"","html-keyboard-response","174","320655","0.0-295.0","xg8vmgtv","1440","900","","","","","","","","","","","null","+","Fixation - short","","null","","","","","","","","","","","",""
"","html-keyboard-response","175","321312","0.0-296.0","xg8vmgtv","1440","900","","","","","","","","","","","655","gso","Diagnostic trial","","j","4","11","false","true","RIGHT","j","1","LEFT","false","","",""
"","html-keyboard-response","176","322066","0.0-299.0","xg8vmgtv","1440","900","","","","","","","","","","","null","+","Fixation - short","","null","","","","","","","","","","","",""
"","html-keyboard-response","177","322715","0.0-300.0","xg8vmgtv","1440","900","","","","","","","","","","","647","tkb","Diagnostic trial","","j","4","12","false","true","RIGHT","j","1","RIGHT","true","","",""
"","html-keyboard-response","178","323467","0.0-303.0","xg8vmgtv","1440","900","","","","","","","","","","","null","+","Fixation - short","","null","","","","","","","","","","","",""
"","html-keyboard-response","179","325227","0.0-304.0","xg8vmgtv","1440","900","","","","","","","","","","","1759","tkb","Diagnostic trial","","f","4","13","false","false","LEFT","f","1","RIGHT","false","","",""
"","html-keyboard-response","180","325984","0.0-307.0","xg8vmgtv","1440","900","","","","","","","","","","","null","+","Fixation - short","","null","","","","","","","","","","","",""
"","html-keyboard-response","181","327041","0.0-308.0","xg8vmgtv","1440","900","","","","","","","","","","","1055","tkb","Inducer trial","","j","4","","true","","","","1","","","","",""
"","html-keyboard-response","182","328544","0.0-311.0","xg8vmgtv","1440","900","","","","","","","","","","","null","+","Fixation - long","","null","","","","","","","","","","","",""
"","html-keyboard-response","183","329946","0.0-312.0","xg8vmgtv","1440","900","","","","","","","","","","","1402","If wab press LEFT | If yoy press RIGHT","Inducer instructions",""," ","5","","","","","","","","","","",""
"","html-keyboard-response","184","330699","0.0-313.0","xg8vmgtv","1440","900","","","","","","","","","","","null","+","Fixation - short","","null","","","","","","","","","","","",""
"","html-keyboard-response","185","331663","0.0-314.0","xg8vmgtv","1440","900","","","","","","","","","","","962","yoy","Diagnostic trial","","j","5","0","false","false","LEFT","f","0","RIGHT","false","","",""
"","call-function","186","331664","0.0-316.0-0.0","xg8vmgtv","","","","","","","","","","","","","","","","","","","","","","","","","","","","",""
"","html-keyboard-response","187","331968","0.0-316.0-1.0","xg8vmgtv","1440","900","","","","","","","","","","","null","Wrong","Feedback","","null","","","","","","","","","","","",""
"","call-function","188","331969","0.0-316.0-2.0","xg8vmgtv","","","","","","","","","","","","","","","","","","","","","","","","","","","","",""
"","html-keyboard-response","189","332722","0.0-317.0","xg8vmgtv","1440","900","","","","","","","","","","","null","+","Fixation - short","","null","","","","","","","","","","","",""
"","html-keyboard-response","190","333551","0.0-318.0","xg8vmgtv","1440","900","","","","","","","","","","","828","wab","Diagnostic trial","","j","5","1","false","true","RIGHT","j","1","LEFT","false","","",""
"","html-keyboard-response","191","334307","0.0-321.0","xg8vmgtv","1440","900","","","","","","","","","","","null","+","Fixation - short","","null","","","","","","","","","","","",""
"","html-keyboard-response","192","334855","0.0-322.0","xg8vmgtv","1440","900","","","","","","","","","","","547","wab","Diagnostic trial","","j","5","2","false","true","RIGHT","j","1","LEFT","false","","",""
"","html-keyboard-response","193","335607","0.0-325.0","xg8vmgtv","1440","900","","","","","","","","","","","null","+","Fixation - short","","null","","","","","","","","","","","",""
"","html-keyboard-response","194","336153","0.0-326.0","xg8vmgtv","1440","900","","","","","","","","","","","545","yoy","Diagnostic trial","","f","5","3","false","false","LEFT","f","1","RIGHT","false","","",""
"","html-keyboard-response","195","336910","0.0-329.0","xg8vmgtv","1440","900","","","","","","","","","","","null","+","Fixation - short","","null","","","","","","","","","","","",""
"","html-keyboard-response","196","337595","0.0-330.0","xg8vmgtv","1440","900","","","","","","","","","","","684","yoy","Diagnostic trial","","j","5","4","false","true","RIGHT","j","1","RIGHT","true","","",""
"","html-keyboard-response","197","338348","0.0-333.0","xg8vmgtv","1440","900","","","","","","","","","","","null","+","Fixation - short","","null","","","","","","","","","","","",""
"","html-keyboard-response","198","338982","0.0-334.0","xg8vmgtv","1440","900","","","","","","","","","","","633","yoy","Diagnostic trial","","j","5","5","false","true","RIGHT","j","1","RIGHT","true","","",""
"","html-keyboard-response","199","339740","0.0-337.0","xg8vmgtv","1440","900","","","","","","","","","","","null","+","Fixation - short","","null","","","","","","","","","","","",""
"","html-keyboard-response","200","340282","0.0-338.0","xg8vmgtv","1440","900","","","","","","","","","","","541","yoy","Diagnostic trial","","j","5","6","false","true","RIGHT","j","1","RIGHT","true","","",""
"","html-keyboard-response","201","341034","0.0-341.0","xg8vmgtv","1440","900","","","","","","","","","","","null","+","Fixation - short","","null","","","","","","","","","","","",""
"","html-keyboard-response","202","341742","0.0-342.0","xg8vmgtv","1440","900","","","","","","","","","","","708","wab","Diagnostic trial","","f","5","7","false","false","LEFT","f","1","LEFT","true","","",""
"","html-keyboard-response","203","342499","0.0-345.0","xg8vmgtv","1440","900","","","","","","","","","","","null","+","Fixation - short","","null","","","","","","","","","","","",""
"","html-keyboard-response","204","343149","0.0-346.0","xg8vmgtv","1440","900","","","","","","","","","","","649","wab","Diagnostic trial","","j","5","8","false","true","RIGHT","j","1","LEFT","false","","",""
"","html-keyboard-response","205","343905","0.0-349.0","xg8vmgtv","1440","900","","","","","","","","","","","null","+","Fixation - short","","null","","","","","","","","","","","",""
"","html-keyboard-response","206","344784","0.0-350.0","xg8vmgtv","1440","900","","","","","","","","","","","878","wab","Diagnostic trial","","f","5","9","false","false","LEFT","f","1","LEFT","true","","",""
"","html-keyboard-response","207","345536","0.0-353.0","xg8vmgtv","1440","900","","","","","","","","","","","null","+","Fixation - short","","null","","","","","","","","","","","",""
"","html-keyboard-response","208","346212","0.0-354.0","xg8vmgtv","1440","900","","","","","","","","","","","675","yoy","Diagnostic trial","","f","5","10","false","false","LEFT","f","1","RIGHT","false","","",""
"","html-keyboard-response","209","346965","0.0-357.0","xg8vmgtv","1440","900","","","","","","","","","","","null","+","Fixation - short","","null","","","","","","","","","","","",""
"","html-keyboard-response","210","347596","0.0-358.0","xg8vmgtv","1440","900","","","","","","","","","","","630","wab","Diagnostic trial","","f","5","11","false","false","LEFT","f","1","LEFT","true","","",""
"","html-keyboard-response","211","348353","0.0-361.0","xg8vmgtv","1440","900","","","","","","","","","","","null","+","Fixation - short","","null","","","","","","","","","","","",""
"","html-keyboard-response","212","350358","0.0-362.0","xg8vmgtv","1440","900","","","","","","","","","","","null","wab","Inducer trial","","null","5","","true","","","","0","","","","",""
"","call-function","213","350360","0.0-363.0-0.0","xg8vmgtv","","","","","","","","","","","","","","","","","","","","","","","","","","","","",""
"","html-keyboard-response","214","350666","0.0-363.0-1.0","xg8vmgtv","1440","900","","","","","","","","","","","null","Slow","Feedback","","null","","","","","","","","","","","",""
"","call-function","215","350666","0.0-363.0-2.0","xg8vmgtv","","","","","","","","","","","","","","","","","","","","","","","","","","","","",""
"","html-keyboard-response","216","352173","0.0-365.0","xg8vmgtv","1440","900","","","","","","","","","","","null","+","Fixation - long","","null","","","","","","","","","","","",""
"","html-keyboard-response","217","354135","0.0-366.0","xg8vmgtv","1440","900","","","","","","","","","","","1960","If frn press LEFT | If dof press RIGHT","Inducer instructions",""," ","6","","","","","","","","","","",""
"","html-keyboard-response","218","354890","0.0-367.0","xg8vmgtv","1440","900","","","","","","","","","","","null","+","Fixation - short","","null","","","","","","","","","","","",""
"","html-keyboard-response","219","355529","0.0-368.0","xg8vmgtv","1440","900","","","","","","","","","","","638","frn","Diagnostic trial","","f","6","0","false","false","LEFT","f","1","LEFT","true","","",""
"","html-keyboard-response","220","356282","0.0-371.0","xg8vmgtv","1440","900","","","","","","","","","","","null","+","Fixation - short","","null","","","","","","","","","","","",""
"","html-keyboard-response","221","356801","0.0-372.0","xg8vmgtv","1440","900","","","","","","","","","","","518","dof","Diagnostic trial","","f","6","1","false","false","LEFT","f","1","RIGHT","false","","",""
"","html-keyboard-response","222","357557","0.0-375.0","xg8vmgtv","1440","900","","","","","","","","","","","null","+","Fixation - short","","null","","","","","","","","","","","",""
"","html-keyboard-response","223","358154","0.0-376.0","xg8vmgtv","1440","900","","","","","","","","","","","596","dof","Diagnostic trial","","j","6","2","false","true","RIGHT","j","1","RIGHT","true","","",""
"","html-keyboard-response","224","358906","0.0-379.0","xg8vmgtv","1440","900","","","","","","","","","","","null","+","Fixation - short","","null","","","","","","","","","","","",""
"","html-keyboard-response","225","359395","0.0-380.0","xg8vmgtv","1440","900","","","","","","","","","","","487","dof","Diagnostic trial","","j","6","3","false","true","RIGHT","j","1","RIGHT","true","","",""
"","html-keyboard-response","226","360147","0.0-383.0","xg8vmgtv","1440","900","","","","","","","","","","","null","+","Fixation - short","","null","","","","","","","","","","","",""
"","html-keyboard-response","227","360755","0.0-384.0","xg8vmgtv","1440","900","","","","","","","","","","","607","frn","Diagnostic trial","","f","6","4","false","false","LEFT","f","1","LEFT","true","","",""
"","html-keyboard-response","228","361509","0.0-387.0","xg8vmgtv","1440","900","","","","","","","","","","","null","+","Fixation - short","","null","","","","","","","","","","","",""
"","html-keyboard-response","229","362843","0.0-388.0","xg8vmgtv","1440","900","","","","","","","","","","","1333","frn","Diagnostic trial","","j","6","5","false","true","RIGHT","j","1","LEFT","false","","",""
"","html-keyboard-response","230","363594","0.0-391.0","xg8vmgtv","1440","900","","","","","","","","","","","null","+","Fixation - short","","null","","","","","","","","","","","",""
"","html-keyboard-response","231","364751","0.0-392.0","xg8vmgtv","1440","900","","","","","","","","","","","1155","dof","Diagnostic trial","","j","6","6","false","true","RIGHT","j","1","RIGHT","true","","",""
"","html-keyboard-response","232","365504","0.0-395.0","xg8vmgtv","1440","900","","","","","","","","","","","null","+","Fixation - short","","null","","","","","","","","","","","",""
"","html-keyboard-response","233","366214","0.0-396.0","xg8vmgtv","1440","900","","","","","","","","","","","708","frn","Diagnostic trial","","f","6","7","false","false","LEFT","f","1","LEFT","true","","",""
"","html-keyboard-response","234","366970","0.0-399.0","xg8vmgtv","1440","900","","","","","","","","","","","null","+","Fixation - short","","null","","","","","","","","","","","",""
"","html-keyboard-response","235","367897","0.0-400.0","xg8vmgtv","1440","900","","","","","","","","","","","925","dof","Diagnostic trial","","j","6","8","false","true","RIGHT","j","1","RIGHT","true","","",""
"","html-keyboard-response","236","368654","0.0-403.0","xg8vmgtv","1440","900","","","","","","","","","","","null","+","Fixation - short","","null","","","","","","","","","","","",""
"","html-keyboard-response","237","369390","0.0-404.0","xg8vmgtv","1440","900","","","","","","","","","","","735","frn","Diagnostic trial","","j","6","9","false","true","RIGHT","j","1","LEFT","false","","",""
"","html-keyboard-response","238","370146","0.0-407.0","xg8vmgtv","1440","900","","","","","","","","","","","null","+","Fixation - short","","null","","","","","","","","","","","",""
"","html-keyboard-response","239","371259","0.0-408.0","xg8vmgtv","1440","900","","","","","","","","","","","1112","frn","Inducer trial","","j","6","","true","","","","0","","","","",""
"","call-function","240","371259","0.0-410.0-0.0","xg8vmgtv","","","","","","","","","","","","","","","","","","","","","","","","","","","","",""
"","html-keyboard-response","241","371565","0.0-410.0-1.0","xg8vmgtv","1440","900","","","","","","","","","","","null","Wrong","Feedback","","null","","","","","","","","","","","",""
"","call-function","242","371565","0.0-410.0-2.0","xg8vmgtv","","","","","","","","","","","","","","","","","","","","","","","","","","","","",""
"","html-keyboard-response","243","373072","0.0-411.0","xg8vmgtv","1440","900","","","","","","","","","","","null","+","Fixation - long","","null","","","","","","","","","","","",""
"","html-keyboard-response","244","375591","0.0-412.0","xg8vmgtv","1440","900","","","","","","","","","","","2518","If otr press LEFT | If mik press RIGHT","Inducer instructions",""," ","7","","","","","","","","","","",""
"","html-keyboard-response","245","376345","0.0-413.0","xg8vmgtv","1440","900","","","","","","","","","","","null","+","Fixation - short","","null","","","","","","","","","","","",""
"","html-keyboard-response","246","377042","0.0-414.0","xg8vmgtv","1440","900","","","","","","","","","","","695","otr","Diagnostic trial","","j","7","0","false","true","RIGHT","j","1","LEFT","false","","",""
"","html-keyboard-response","247","377799","0.0-417.0","xg8vmgtv","1440","900","","","","","","","","","","","null","+","Fixation - short","","null","","","","","","","","","","","",""
"","html-keyboard-response","248","378701","0.0-418.0","xg8vmgtv","1440","900","","","","","","","","","","","901","mik","Diagnostic trial","","f","7","1","false","false","LEFT","f","1","RIGHT","false","","",""
"","html-keyboard-response","249","379458","0.0-421.0","xg8vmgtv","1440","900","","","","","","","","","","","null","+","Fixation - short","","null","","","","","","","","","","","",""
"","html-keyboard-response","250","380246","0.0-422.0","xg8vmgtv","1440","900","","","","","","","","","","","786","mik","Diagnostic trial","","f","7","2","false","false","LEFT","f","1","RIGHT","false","","",""
"","html-keyboard-response","251","380999","0.0-425.0","xg8vmgtv","1440","900","","","","","","","","","","","null","+","Fixation - short","","null","","","","","","","","","","","",""
"","html-keyboard-response","252","381584","0.0-426.0","xg8vmgtv","1440","900","","","","","","","","","","","584","otr","Diagnostic trial","","f","7","3","false","false","LEFT","f","1","LEFT","true","","",""
"","html-keyboard-response","253","382340","0.0-429.0","xg8vmgtv","1440","900","","","","","","","","","","","null","+","Fixation - short","","null","","","","","","","","","","","",""
"","html-keyboard-response","254","383057","0.0-430.0","xg8vmgtv","1440","900","","","","","","","","","","","717","otr","Inducer trial","","f","7","","true","","","","1","","","","",""
"","html-keyboard-response","255","384564","0.0-433.0","xg8vmgtv","1440","900","","","","","","","","","","","null","+","Fixation - long","","null","","","","","","","","","","","",""
"","html-keyboard-response","256","385420","0.0-434.0","xg8vmgtv","1440","900","","","","","","","","","","","854","If byy press LEFT | If rpw press RIGHT","Inducer instructions",""," ","8","","","","","","","","","","",""
"","html-keyboard-response","257","386177","0.0-435.0","xg8vmgtv","1440","900","","","","","","","","","","","null","+","Fixation - short","","null","","","","","","","","","","","",""
"","html-keyboard-response","258","387025","0.0-436.0","xg8vmgtv","1440","900","","","","","","","","","","","847","byy","Diagnostic trial","","f","8","0","false","false","LEFT","f","1","LEFT","true","","",""
"","html-keyboard-response","259","387778","0.0-439.0","xg8vmgtv","1440","900","","","","","","","","","","","null","+","Fixation - short","","null","","","","","","","","","","","",""
"","html-keyboard-response","260","388202","0.0-440.0","xg8vmgtv","1440","900","","","","","","","","","","","423","byy","Diagnostic trial","","j","8","1","false","false","LEFT","f","0","LEFT","true","","",""
"","call-function","261","388202","0.0-442.0-0.0","xg8vmgtv","","","","","","","","","","","","","","","","","","","","","","","","","","","","",""
"","html-keyboard-response","262","388505","0.0-442.0-1.0","xg8vmgtv","1440","900","","","","","","","","","","","null","Wrong","Feedback","","null","","","","","","","","","","","",""
"","call-function","263","388505","0.0-442.0-2.0","xg8vmgtv","","","","","","","","","","","","","","","","","","","","","","","","","","","","",""
"","html-keyboard-response","264","389260","0.0-443.0","xg8vmgtv","1440","900","","","","","","","","","","","null","+","Fixation - short","","null","","","","","","","","","","","",""
"","html-keyboard-response","265","389967","0.0-444.0","xg8vmgtv","1440","900","","","","","","","","","","","706","rpw","Diagnostic trial","","j","8","2","false","true","RIGHT","j","1","RIGHT","true","","",""
"","html-keyboard-response","266","390723","0.0-447.0","xg8vmgtv","1440","900","","","","","","","","","","","null","+","Fixation - short","","null","","","","","","","","","","","",""
"","html-keyboard-response","267","391433","0.0-448.0","xg8vmgtv","1440","900","","","","","","","","","","","708","byy","Diagnostic trial","","f","8","3","false","false","LEFT","f","1","LEFT","true","","",""
"","html-keyboard-response","268","392188","0.0-451.0","xg8vmgtv","1440","900","","","","","","","","","","","null","+","Fixation - short","","null","","","","","","","","","","","",""
"","html-keyboard-response","269","392641","0.0-452.0","xg8vmgtv","1440","900","","","","","","","","","","","451","rpw","Diagnostic trial","","f","8","4","false","false","LEFT","f","1","RIGHT","false","","",""
"","html-keyboard-response","270","393395","0.0-455.0","xg8vmgtv","1440","900","","","","","","","","","","","null","+","Fixation - short","","null","","","","","","","","","","","",""
"","html-keyboard-response","271","393995","0.0-456.0","xg8vmgtv","1440","900","","","","","","","","","","","599","byy","Diagnostic trial","","f","8","5","false","false","LEFT","f","1","LEFT","true","","",""
"","html-keyboard-response","272","394751","0.0-459.0","xg8vmgtv","1440","900","","","","","","","","","","","null","+","Fixation - short","","null","","","","","","","","","","","",""
"","html-keyboard-response","273","395140","0.0-460.0","xg8vmgtv","1440","900","","","","","","","","","","","388","byy","Diagnostic trial","","f","8","6","false","false","LEFT","f","1","LEFT","true","","",""
"","html-keyboard-response","274","395897","0.0-463.0","xg8vmgtv","1440","900","","","","","","","","","","","null","+","Fixation - short","","null","","","","","","","","","","","",""
"","html-keyboard-response","275","396428","0.0-464.0","xg8vmgtv","1440","900","","","","","","","","","","","529","rpw","Diagnostic trial","","f","8","7","false","false","LEFT","f","1","RIGHT","false","","",""
"","html-keyboard-response","276","397184","0.0-467.0","xg8vmgtv","1440","900","","","","","","","","","","","null","+","Fixation - short","","null","","","","","","","","","","","",""
"","html-keyboard-response","277","397721","0.0-468.0","xg8vmgtv","1440","900","","","","","","","","","","","535","byy","Diagnostic trial","","f","8","8","false","false","LEFT","f","1","LEFT","true","","",""
"","html-keyboard-response","278","398474","0.0-471.0","xg8vmgtv","1440","900","","","","","","","","","","","null","+","Fixation - short","","null","","","","","","","","","","","",""
"","html-keyboard-response","279","398866","0.0-472.0","xg8vmgtv","1440","900","","","","","","","","","","","391","byy","Diagnostic trial","","f","8","9","false","false","LEFT","f","1","LEFT","true","","",""
"","html-keyboard-response","280","399619","0.0-475.0","xg8vmgtv","1440","900","","","","","","","","","","","null","+","Fixation - short","","null","","","","","","","","","","","",""
"","html-keyboard-response","281","400267","0.0-476.0","xg8vmgtv","1440","900","","","","","","","","","","","647","rpw","Diagnostic trial","","f","8","10","false","false","LEFT","f","1","RIGHT","false","","",""
"","html-keyboard-response","282","401020","0.0-479.0","xg8vmgtv","1440","900","","","","","","","","","","","null","+","Fixation - short","","null","","","","","","","","","","","",""
"","html-keyboard-response","283","401773","0.0-480.0","xg8vmgtv","1440","900","","","","","","","","","","","752","byy","Diagnostic trial","","f","8","11","false","false","LEFT","f","1","LEFT","true","","",""
"","html-keyboard-response","284","402528","0.0-483.0","xg8vmgtv","1440","900","","","","","","","","","","","null","+","Fixation - short","","null","","","","","","","","","","","",""
"","html-keyboard-response","285","403229","0.0-484.0","xg8vmgtv","1440","900","","","","","","","","","","","699","byy","Diagnostic trial","","j","8","12","false","true","RIGHT","j","1","LEFT","false","","",""
"","html-keyboard-response","286","403986","0.0-487.0","xg8vmgtv","1440","900","","","","","","","","","","","null","+","Fixation - short","","null","","","","","","","","","","","",""
"","html-keyboard-response","287","404626","0.0-488.0","xg8vmgtv","1440","900","","","","","","","","","","","639","byy","Diagnostic trial","","j","8","13","false","true","RIGHT","j","1","LEFT","false","","",""
"","html-keyboard-response","288","405383","0.0-491.0","xg8vmgtv","1440","900","","","","","","","","","","","null","+","Fixation - short","","null","","","","","","","","","","","",""
"","html-keyboard-response","289","405983","0.0-492.0","xg8vmgtv","1440","900","","","","","","","","","","","599","byy","Diagnostic trial","","j","8","14","false","true","RIGHT","j","1","LEFT","false","","",""
"","html-keyboard-response","290","406739","0.0-495.0","xg8vmgtv","1440","900","","","","","","","","","","","null","+","Fixation - short","","null","","","","","","","","","","","",""
"","html-keyboard-response","291","408275","0.0-496.0","xg8vmgtv","1440","900","","","","","","","","","","","1534","rpw","Inducer trial","","j","8","","true","","","","1","","","","",""
"","html-keyboard-response","292","409783","0.0-499.0","xg8vmgtv","1440","900","","","","","","","","","","","null","+","Fixation - long","","null","","","","","","","","","","","",""
"","html-keyboard-response","293","411922","0.0-500.0","xg8vmgtv","1440","900","","","","","","","","","","","2138","If xlv press LEFT | If rbc press RIGHT","Inducer instructions",""," ","9","","","","","","","","","","",""
"","html-keyboard-response","294","412679","0.0-501.0","xg8vmgtv","1440","900","","","","","","","","","","","null","+","Fixation - short","","null","","","","","","","","","","","",""
"","html-keyboard-response","295","413441","0.0-502.0","xg8vmgtv","1440","900","","","","","","","","","","","761","rbc","Diagnostic trial","","f","9","0","false","false","LEFT","f","1","RIGHT","false","","",""
"","html-keyboard-response","296","414194","0.0-505.0","xg8vmgtv","1440","900","","","","","","","","","","","null","+","Fixation - short","","null","","","","","","","","","","","",""
"","html-keyboard-response","297","414687","0.0-506.0","xg8vmgtv","1440","900","","","","","","","","","","","491","rbc","Diagnostic trial","","j","9","1","false","true","RIGHT","j","1","RIGHT","true","","",""
"","html-keyboard-response","298","415439","0.0-509.0","xg8vmgtv","1440","900","","","","","","","","","","","null","+","Fixation - short","","null","","","","","","","","","","","",""
"","html-keyboard-response","299","415964","0.0-510.0","xg8vmgtv","1440","900","","","","","","","","","","","525","xlv","Diagnostic trial","","f","9","2","false","false","LEFT","f","1","LEFT","true","","",""
"","html-keyboard-response","300","416720","0.0-513.0","xg8vmgtv","1440","900","","","","","","","","","","","null","+","Fixation - short","","null","","","","","","","","","","","",""
"","html-keyboard-response","301","417314","0.0-514.0","xg8vmgtv","1440","900","","","","","","","","","","","593","xlv","Diagnostic trial","","f","9","3","false","false","LEFT","f","1","LEFT","true","","",""
"","html-keyboard-response","302","418071","0.0-517.0","xg8vmgtv","1440","900","","","","","","","","","","","null","+","Fixation - short","","null","","","","","","","","","","","",""
"","html-keyboard-response","303","418766","0.0-518.0","xg8vmgtv","1440","900","","","","","","","","","","","694","xlv","Diagnostic trial","","j","9","4","false","true","RIGHT","j","1","LEFT","false","","",""
"","html-keyboard-response","304","419520","0.0-521.0","xg8vmgtv","1440","900","","","","","","","","","","","null","+","Fixation - short","","null","","","","","","","","","","","",""
"","html-keyboard-response","305","420233","0.0-522.0","xg8vmgtv","1440","900","","","","","","","","","","","712","rbc","Diagnostic trial","","j","9","5","false","true","RIGHT","j","1","RIGHT","true","","",""
"","html-keyboard-response","306","420986","0.0-525.0","xg8vmgtv","1440","900","","","","","","","","","","","null","+","Fixation - short","","null","","","","","","","","","","","",""
"","html-keyboard-response","307","421706","0.0-526.0","xg8vmgtv","1440","900","","","","","","","","","","","719","rbc","Diagnostic trial","","f","9","6","false","false","LEFT","f","1","RIGHT","false","","",""
"","html-keyboard-response","308","422458","0.0-529.0","xg8vmgtv","1440","900","","","","","","","","","","","null","+","Fixation - short","","null","","","","","","","","","","","",""
"","html-keyboard-response","309","422909","0.0-530.0","xg8vmgtv","1440","900","","","","","","","","","","","450","rbc","Diagnostic trial","","f","9","7","false","false","LEFT","f","1","RIGHT","false","","",""
"","html-keyboard-response","310","423666","0.0-533.0","xg8vmgtv","1440","900","","","","","","","","","","","null","+","Fixation - short","","null","","","","","","","","","","","",""
"","html-keyboard-response","311","424284","0.0-534.0","xg8vmgtv","1440","900","","","","","","","","","","","616","xlv","Diagnostic trial","","f","9","8","false","false","LEFT","f","1","LEFT","true","","",""
"","html-keyboard-response","312","425038","0.0-537.0","xg8vmgtv","1440","900","","","","","","","","","","","null","+","Fixation - short","","null","","","","","","","","","","","",""
"","html-keyboard-response","313","425547","0.0-538.0","xg8vmgtv","1440","900","","","","","","","","","","","508","xlv","Diagnostic trial","","f","9","9","false","false","LEFT","f","1","LEFT","true","","",""
"","html-keyboard-response","314","426299","0.0-541.0","xg8vmgtv","1440","900","","","","","","","","","","","null","+","Fixation - short","","null","","","","","","","","","","","",""
"","html-keyboard-response","315","426923","0.0-542.0","xg8vmgtv","1440","900","","","","","","","","","","","623","xlv","Diagnostic trial","","j","9","10","false","true","RIGHT","j","1","LEFT","false","","",""
"","html-keyboard-response","316","427676","0.0-545.0","xg8vmgtv","1440","900","","","","","","","","","","","null","+","Fixation - short","","null","","","","","","","","","","","",""
"","html-keyboard-response","317","428253","0.0-546.0","xg8vmgtv","1440","900","","","","","","","","","","","576","rbc","Diagnostic trial","","j","9","11","false","true","RIGHT","j","1","RIGHT","true","","",""
"","html-keyboard-response","318","429006","0.0-549.0","xg8vmgtv","1440","900","","","","","","","","","","","null","+","Fixation - short","","null","","","","","","","","","","","",""
"","html-keyboard-response","319","429588","0.0-550.0","xg8vmgtv","1440","900","","","","","","","","","","","580","rbc","Inducer trial","","f","9","","true","","","","0","","","","",""
"","call-function","320","429589","0.0-552.0-0.0","xg8vmgtv","","","","","","","","","","","","","","","","","","","","","","","","","","","","",""
"","html-keyboard-response","321","429892","0.0-552.0-1.0","xg8vmgtv","1440","900","","","","","","","","","","","null","Wrong","Feedback","","null","","","","","","","","","","","",""
"","call-function","322","429892","0.0-552.0-2.0","xg8vmgtv","","","","","","","","","","","","","","","","","","","","","","","","","","","","",""
"","html-keyboard-response","323","431396","0.0-553.0","xg8vmgtv","1440","900","","","","","","","","","","","null","+","Fixation - long","","null","","","","","","","","","","","",""
"","html-keyboard-response","324","437482","0.0-554.0","xg8vmgtv","1440","900","","","","","","","","","","","6085","If jup press LEFT | If bsh press RIGHT","Inducer instructions",""," ","10","","","","","","","","","","",""
"","html-keyboard-response","325","438234","0.0-555.0","xg8vmgtv","1440","900","","","","","","","","","","","null","+","Fixation - short","","null","","","","","","","","","","","",""
"","html-keyboard-response","326","438985","0.0-556.0","xg8vmgtv","1440","900","","","","","","","","","","","749","jup","Diagnostic trial","","j","10","0","false","true","RIGHT","j","1","LEFT","false","","",""
"","html-keyboard-response","327","439738","0.0-559.0","xg8vmgtv","1440","900","","","","","","","","","","","null","+","Fixation - short","","null","","","","","","","","","","","",""
"","html-keyboard-response","328","440298","0.0-560.0","xg8vmgtv","1440","900","","","","","","","","","","","559","jup","Diagnostic trial","","f","10","1","false","false","LEFT","f","1","LEFT","true","","",""
"","html-keyboard-response","329","441050","0.0-563.0","xg8vmgtv","1440","900","","","","","","","","","","","null","+","Fixation - short","","null","","","","","","","","","","","",""
"","html-keyboard-response","330","441628","0.0-564.0","xg8vmgtv","1440","900","","","","","","","","","","","577","bsh","Diagnostic trial","","f","10","2","false","false","LEFT","f","1","RIGHT","false","","",""
"","html-keyboard-response","331","442384","0.0-567.0","xg8vmgtv","1440","900","","","","","","","","","","","null","+","Fixation - short","","null","","","","","","","","","","","",""
"","html-keyboard-response","332","442913","0.0-568.0","xg8vmgtv","1440","900","","","","","","","","","","","528","bsh","Diagnostic trial","","j","10","3","false","true","RIGHT","j","1","RIGHT","true","","",""
"","html-keyboard-response","333","443666","0.0-571.0","xg8vmgtv","1440","900","","","","","","","","","","","null","+","Fixation - short","","null","","","","","","","","","","","",""
"","html-keyboard-response","334","444298","0.0-572.0","xg8vmgtv","1440","900","","","","","","","","","","","631","jup","Diagnostic trial","","f","10","4","false","false","LEFT","f","1","LEFT","true","","",""
"","html-keyboard-response","335","445055","0.0-575.0","xg8vmgtv","1440","900","","","","","","","","","","","null","+","Fixation - short","","null","","","","","","","","","","","",""
"","html-keyboard-response","336","445534","0.0-576.0","xg8vmgtv","1440","900","","","","","","","","","","","477","jup","Diagnostic trial","","f","10","5","false","false","LEFT","f","1","LEFT","true","","",""
"","html-keyboard-response","337","446286","0.0-579.0","xg8vmgtv","1440","900","","","","","","","","","","","null","+","Fixation - short","","null","","","","","","","","","","","",""
"","html-keyboard-response","338","446743","0.0-580.0","xg8vmgtv","1440","900","","","","","","","","","","","456","jup","Diagnostic trial","","f","10","6","false","false","LEFT","f","1","LEFT","true","","",""
"","html-keyboard-response","339","447498","0.0-583.0","xg8vmgtv","1440","900","","","","","","","","","","","null","+","Fixation - short","","null","","","","","","","","","","","",""
"","html-keyboard-response","340","448105","0.0-584.0","xg8vmgtv","1440","900","","","","","","","","","","","605","bsh","Diagnostic trial","","j","10","7","false","true","RIGHT","j","1","RIGHT","true","","",""
"","html-keyboard-response","341","448861","0.0-587.0","xg8vmgtv","1440","900","","","","","","","","","","","null","+","Fixation - short","","null","","","","","","","","","","","",""
"","html-keyboard-response","342","449699","0.0-588.0","xg8vmgtv","1440","900","","","","","","","","","","","837","jup","Diagnostic trial","","f","10","8","false","false","LEFT","f","1","LEFT","true","","",""
"","html-keyboard-response","343","450451","0.0-591.0","xg8vmgtv","1440","900","","","","","","","","","","","null","+","Fixation - short","","null","","","","","","","","","","","",""
"","html-keyboard-response","344","451203","0.0-592.0","xg8vmgtv","1440","900","","","","","","","","","","","751","jup","Inducer trial","","f","10","","true","","","","1","","","","",""
"","html-keyboard-response","345","452710","0.0-595.0","xg8vmgtv","1440","900","","","","","","","","","","","null","+","Fixation - long","","null","","","","","","","","","","","",""
"","call-function","346","452711","0.0-596.0","xg8vmgtv","","","","","","","","","","","","","","","","","","","","","","","","","","","","",""
"","survey","347","518349","0.0-597.0","xg8vmgtv","1440","900","","","","","","","","","","","65591","feedback","Feedback","","{""strategy_feedback"":""I remembered only the left blue word. I tried to repeat that rule throught each session. However I sucked at it because I had a hard time differentiating between italic and the other property of the black worded non-words."",""open_feedback"":""See previous comment.""}","","","","","","","","","","[]","See previous comment.","[{""event"":""fullscreenenter"",""trial"":3,""time"":81126}]"
