"value","trial_type","trial_index","time_elapsed","internal_node_id","id","width","height","webaudio","browser","browser_version","mobile","os","fullscreen","vsync_rate","webcam","microphone","view_history","rt","stimulus","trial_info","success","response","inducer_run","diagnostic_run","inducer_trial","italic","correct_diag_response_side","correct_response_key","correct_response","correct_indu_response_side","correct_inducer_response_side","congruent","accuracy","open_feedback","interactive"
"","call-function","0","8","0.0-0.0","4j7k5fa0","","","","","","","","","","","","","","","","","","","","","","","","","","","","","",""
"","browser-check","1","1092","0.0-1.0","4j7k5fa0","1366","619","true","chrome","120.0.0","false","Windows 10","true","59.29","true","true","","","","","","","","","","","","","","","","","","",""
"","instructions","2","19315","0.0-2.0","4j7k5fa0","","","","","","","","","","","","[{""page_index"":0,""viewing_time"":3636},{""page_index"":1,""viewing_time"":6765},{""page_index"":2,""viewing_time"":7816}]","18218","The experiment and consent","The experiment and consent","","","","","","","","","","","","","","",""
"","fullscreen","3","25132","0.0-3.0","4j7k5fa0","1366","768","","","","","","","","","","","4791","","Full screen","true","","","","","","","","","","","","","",""
"","instructions","4","65412","0.0-4.0","4j7k5fa0","1366","768","","","","","","","","","","[{""page_index"":0,""viewing_time"":35909},{""page_index"":1,""viewing_time"":4366}]","40276","Instructions","Basic overview explanation","","","","","","","","","","","","","","",""
"","html-keyboard-response","5","72009","0.0-5.0","4j7k5fa0","1366","768","","","","","","","","","","","5078","If italic press LEFT | If upright press RIGHT","Diagnostic instructions",""," ","","","","","","","","","","","","",""
"","html-keyboard-response","6","72772","0.0-6.0","4j7k5fa0","1366","768","","","","","","","","","","","null","+","Fixation - short","","null","","","","","","","","","","","","",""
"","html-keyboard-response","7","73560","0.0-7.0","4j7k5fa0","1366","768","","","","","","","","","","","784","jcr","Practice diganostic trial","","j","practice","0","false","0","RIGHT","j","1","","","","","",""
"","html-keyboard-response","8","74323","0.0-10.0","4j7k5fa0","1366","768","","","","","","","","","","","null","+","Fixation - short","","null","","","","","","","","","","","","",""
"","html-keyboard-response","9","74853","0.0-11.0","4j7k5fa0","1366","768","","","","","","","","","","","527","jil","Practice diganostic trial","","j","practice","1","false","0","RIGHT","j","1","","","","","",""
"","html-keyboard-response","10","75621","0.0-14.0","4j7k5fa0","1366","768","","","","","","","","","","","null","+","Fixation - short","","null","","","","","","","","","","","","",""
"","html-keyboard-response","11","76061","0.0-15.0","4j7k5fa0","1366","768","","","","","","","","","","","438","jil","Practice diganostic trial","","j","practice","2","false","0","RIGHT","j","1","","","","","",""
"","html-keyboard-response","12","76827","0.0-18.0","4j7k5fa0","1366","768","","","","","","","","","","","null","+","Fixation - short","","null","","","","","","","","","","","","",""
"","html-keyboard-response","13","77440","0.0-19.0","4j7k5fa0","1366","768","","","","","","","","","","","610","jcr","Practice diganostic trial","","f","practice","3","false","1","LEFT","f","1","","","","","",""
"","html-keyboard-response","14","78204","0.0-22.0","4j7k5fa0","1366","768","","","","","","","","","","","null","+","Fixation - short","","null","","","","","","","","","","","","",""
"","html-keyboard-response","15","78697","0.0-23.0","4j7k5fa0","1366","768","","","","","","","","","","","490","jcr","Practice diganostic trial","","f","practice","4","false","1","LEFT","f","1","","","","","",""
"","html-keyboard-response","16","79455","0.0-26.0","4j7k5fa0","1366","768","","","","","","","","","","","null","+","Fixation - short","","null","","","","","","","","","","","","",""
"","html-keyboard-response","17","79918","0.0-27.0","4j7k5fa0","1366","768","","","","","","","","","","","461","jcr","Practice diganostic trial","","f","practice","5","false","1","LEFT","f","1","","","","","",""
"","html-keyboard-response","18","80671","0.0-30.0","4j7k5fa0","1366","768","","","","","","","","","","","null","+","Fixation - short","","null","","","","","","","","","","","","",""
"","html-keyboard-response","19","81192","0.0-31.0","4j7k5fa0","1366","768","","","","","","","","","","","518","jcr","Practice diganostic trial","","f","practice","6","false","1","LEFT","f","1","","","","","",""
"","html-keyboard-response","20","81958","0.0-34.0","4j7k5fa0","1366","768","","","","","","","","","","","null","+","Fixation - short","","null","","","","","","","","","","","","",""
"","html-keyboard-response","21","82459","0.0-35.0","4j7k5fa0","1366","768","","","","","","","","","","","498","jcr","Practice diganostic trial","","f","practice","7","false","1","LEFT","f","1","","","","","",""
"","html-keyboard-response","22","83221","0.0-38.0","4j7k5fa0","1366","768","","","","","","","","","","","null","+","Fixation - short","","null","","","","","","","","","","","","",""
"","html-keyboard-response","23","83862","0.0-39.0","4j7k5fa0","1366","768","","","","","","","","","","","639","jil","Practice diganostic trial","","j","practice","8","false","0","RIGHT","j","1","","","","","",""
"","html-keyboard-response","24","84621","0.0-42.0","4j7k5fa0","1366","768","","","","","","","","","","","null","+","Fixation - short","","null","","","","","","","","","","","","",""
"","html-keyboard-response","25","85131","0.0-43.0","4j7k5fa0","1366","768","","","","","","","","","","","507","jcr","Practice diganostic trial","","f","practice","9","false","1","LEFT","f","1","","","","","",""
"","html-keyboard-response","26","85887","0.0-46.0","4j7k5fa0","1366","768","","","","","","","","","","","null","+","Fixation - short","","null","","","","","","","","","","","","",""
"","html-keyboard-response","27","86367","0.0-47.0","4j7k5fa0","1366","768","","","","","","","","","","","476","jcr","Practice diganostic trial","","j","practice","10","false","0","RIGHT","j","1","","","","","",""
"","html-keyboard-response","28","87121","0.0-50.0","4j7k5fa0","1366","768","","","","","","","","","","","null","+","Fixation - short","","null","","","","","","","","","","","","",""
"","html-keyboard-response","29","87681","0.0-51.0","4j7k5fa0","1366","768","","","","","","","","","","","558","jcr","Practice diganostic trial","","j","practice","11","false","0","RIGHT","j","1","","","","","",""
"","html-keyboard-response","30","88437","0.0-54.0","4j7k5fa0","1366","768","","","","","","","","","","","null","+","Fixation - short","","null","","","","","","","","","","","","",""
"","html-keyboard-response","31","88975","0.0-55.0","4j7k5fa0","1366","768","","","","","","","","","","","535","jil","Practice diganostic trial","","f","practice","12","false","1","LEFT","f","1","","","","","",""
"","html-keyboard-response","32","89736","0.0-58.0","4j7k5fa0","1366","768","","","","","","","","","","","null","+","Fixation - short","","null","","","","","","","","","","","","",""
"","html-keyboard-response","33","90286","0.0-59.0","4j7k5fa0","1366","768","","","","","","","","","","","547","jil","Practice diganostic trial","","j","practice","13","false","0","RIGHT","j","1","","","","","",""
"","html-keyboard-response","34","91053","0.0-62.0","4j7k5fa0","1366","768","","","","","","","","","","","null","+","Fixation - short","","null","","","","","","","","","","","","",""
"","html-keyboard-response","35","91630","0.0-63.0","4j7k5fa0","1366","768","","","","","","","","","","","574","jcr","Practice diganostic trial","","f","practice","14","false","1","LEFT","f","1","","","","","",""
"","html-keyboard-response","36","92387","0.0-66.0","4j7k5fa0","1366","768","","","","","","","","","","","null","+","Fixation - short","","null","","","","","","","","","","","","",""
"","html-keyboard-response","37","92924","0.0-67.0","4j7k5fa0","1366","768","","","","","","","","","","","534","jil","Practice diganostic trial","","j","practice","15","false","0","RIGHT","j","1","","","","","",""
"","html-keyboard-response","38","93687","0.0-70.0","4j7k5fa0","1366","768","","","","","","","","","","","null","+","Fixation - short","","null","","","","","","","","","","","","",""
"","instructions","39","98893","0.0-71.0","4j7k5fa0","1366","768","","","","","","","","","","[{""page_index"":0,""viewing_time"":5202}]","5204","Instructions","Final experiment explanation","","","","","","","","","","","","","","",""
"","html-keyboard-response","40","112928","0.0-72.0","4j7k5fa0","1366","768","","","","","","","","","","","12518","If xet press LEFT | If uen press RIGHT","Practice inducer instructions",""," ","practice","","","","","","","","","","","",""
"","html-keyboard-response","41","113471","0.0-73.0","4j7k5fa0","1366","768","","","","","","","","","","","538","","Practice inducer trial","","f","practice","","true","","","f","1","LEFT","","","","",""
"","html-keyboard-response","42","114235","0.0-76.0","4j7k5fa0","1366","768","","","","","","","","","","","null","+","Fixation - short","","null","","","","","","","","","","","","",""
"","html-keyboard-response","43","116762","0.0-77.0","4j7k5fa0","1366","768","","","","","","","","","","","2525","If tgf press LEFT | If vib press RIGHT","Practice inducer instructions",""," ","practice","","","","","","","","","","","",""
"","html-keyboard-response","44","117369","0.0-78.0","4j7k5fa0","1366","768","","","","","","","","","","","604","","Practice inducer trial","","f","practice","","true","","","f","1","LEFT","","","","",""
"","html-keyboard-response","45","118135","0.0-81.0","4j7k5fa0","1366","768","","","","","","","","","","","null","+","Fixation - short","","null","","","","","","","","","","","","",""
"","html-keyboard-response","46","120095","0.0-82.0","4j7k5fa0","1366","768","","","","","","","","","","","1958","If bgi press LEFT | If upf press RIGHT","Practice inducer instructions",""," ","practice","","","","","","","","","","","",""
"","html-keyboard-response","47","120694","0.0-83.0","4j7k5fa0","1366","768","","","","","","","","","","","596","","Practice inducer trial","","j","practice","","true","","","j","1","RIGHT","","","","",""
"","html-keyboard-response","48","121459","0.0-86.0","4j7k5fa0","1366","768","","","","","","","","","","","null","+","Fixation - short","","null","","","","","","","","","","","","",""
"","html-keyboard-response","49","122878","0.0-87.0","4j7k5fa0","1366","768","","","","","","","","","","","1416","If guf press LEFT | If csp press RIGHT","Practice inducer instructions",""," ","practice","","","","","","","","","","","",""
"","html-keyboard-response","50","123593","0.0-88.0","4j7k5fa0","1366","768","","","","","","","","","","","713","","Practice inducer trial","","j","practice","","true","","","j","1","RIGHT","","","","",""
"","html-keyboard-response","51","124353","0.0-91.0","4j7k5fa0","1366","768","","","","","","","","","","","null","+","Fixation - short","","null","","","","","","","","","","","","",""
"","html-keyboard-response","52","126136","0.0-92.0","4j7k5fa0","1366","768","","","","","","","","","","","1780","If gdn press LEFT | If swr press RIGHT","Practice inducer instructions",""," ","practice","","","","","","","","","","","",""
"","html-keyboard-response","53","126734","0.0-93.0","4j7k5fa0","1366","768","","","","","","","","","","","596","","Practice inducer trial","","j","practice","","true","","","j","1","RIGHT","","","","",""
"","html-keyboard-response","54","127489","0.0-96.0","4j7k5fa0","1366","768","","","","","","","","","","","null","+","Fixation - short","","null","","","","","","","","","","","","",""
"","html-keyboard-response","55","129610","0.0-97.0","4j7k5fa0","1366","768","","","","","","","","","","","2118","If asn press LEFT | If epy press RIGHT","Practice inducer instructions",""," ","practice","","","","","","","","","","","",""
"","html-keyboard-response","56","130112","0.0-98.0","4j7k5fa0","1366","768","","","","","","","","","","","499","","Practice inducer trial","","f","practice","","true","","","f","1","LEFT","","","","",""
"","html-keyboard-response","57","130869","0.0-101.0","4j7k5fa0","1366","768","","","","","","","","","","","null","+","Fixation - short","","null","","","","","","","","","","","","",""
"","html-keyboard-response","58","141636","0.0-102.0","4j7k5fa0","1366","768","","","","","","","","","","","10762","End practice","End of practice",""," ","","","","","","","","","","","","",""
"","html-keyboard-response","59","143141","0.0-103.0","4j7k5fa0","1366","768","","","","","","","","","","","null","+","Fixation - long","","null","","","","","","","","","","","","",""
"","html-keyboard-response","60","146166","0.0-104.0","4j7k5fa0","1366","768","","","","","","","","","","","3028","If byy press LEFT | If ydi press RIGHT","Inducer instructions",""," ","0","","","","","","","","","","","",""
"","html-keyboard-response","61","146930","0.0-105.0","4j7k5fa0","1366","768","","","","","","","","","","","null","+","Fixation - short","","null","","","","","","","","","","","","",""
"","html-keyboard-response","62","147634","0.0-106.0","4j7k5fa0","1366","768","","","","","","","","","","","701","byy","Diagnostic trial","","f","0","0","false","true","LEFT","f","1","","LEFT","true","","",""
"","html-keyboard-response","63","148395","0.0-109.0","4j7k5fa0","1366","768","","","","","","","","","","","null","+","Fixation - short","","null","","","","","","","","","","","","",""
"","html-keyboard-response","64","150183","0.0-110.0","4j7k5fa0","1366","768","","","","","","","","","","","1786","ydi","Diagnostic trial","","j","0","1","false","true","LEFT","f","0","","RIGHT","false","","",""
"","call-function","65","150186","0.0-112.0-0.0","4j7k5fa0","","","","","","","","","","","","","","","","","","","","","","","","","","","","","",""
"","html-keyboard-response","66","150492","0.0-112.0-1.0","4j7k5fa0","1366","768","","","","","","","","","","","null","Wrong","Feedback","","null","","","","","","","","","","","","",""
"","call-function","67","150494","0.0-112.0-2.0","4j7k5fa0","","","","","","","","","","","","","","","","","","","","","","","","","","","","","",""
"","html-keyboard-response","68","151261","0.0-113.0","4j7k5fa0","1366","768","","","","","","","","","","","null","+","Fixation - short","","null","","","","","","","","","","","","",""
"","html-keyboard-response","69","151915","0.0-114.0","4j7k5fa0","1366","768","","","","","","","","","","","651","byy","Diagnostic trial","","f","0","2","false","false","RIGHT","j","0","","LEFT","false","","",""
"","call-function","70","151916","0.0-116.0-0.0","4j7k5fa0","","","","","","","","","","","","","","","","","","","","","","","","","","","","","",""
"","html-keyboard-response","71","152229","0.0-116.0-1.0","4j7k5fa0","1366","768","","","","","","","","","","","null","Wrong","Feedback","","null","","","","","","","","","","","","",""
"","call-function","72","152231","0.0-116.0-2.0","4j7k5fa0","","","","","","","","","","","","","","","","","","","","","","","","","","","","","",""
"","html-keyboard-response","73","152995","0.0-117.0","4j7k5fa0","1366","768","","","","","","","","","","","null","+","Fixation - short","","null","","","","","","","","","","","","",""
"","html-keyboard-response","74","153626","0.0-118.0","4j7k5fa0","1366","768","","","","","","","","","","","628","ydi","Diagnostic trial","","f","0","3","false","true","LEFT","f","1","","RIGHT","false","","",""
"","html-keyboard-response","75","154393","0.0-121.0","4j7k5fa0","1366","768","","","","","","","","","","","null","+","Fixation - short","","null","","","","","","","","","","","","",""
"","html-keyboard-response","76","155527","0.0-122.0","4j7k5fa0","1366","768","","","","","","","","","","","1131","byy","Diagnostic trial","","f","0","4","false","false","RIGHT","j","0","","LEFT","false","","",""
"","call-function","77","155529","0.0-124.0-0.0","4j7k5fa0","","","","","","","","","","","","","","","","","","","","","","","","","","","","","",""
"","html-keyboard-response","78","155842","0.0-124.0-1.0","4j7k5fa0","1366","768","","","","","","","","","","","null","Wrong","Feedback","","null","","","","","","","","","","","","",""
"","call-function","79","155844","0.0-124.0-2.0","4j7k5fa0","","","","","","","","","","","","","","","","","","","","","","","","","","","","","",""
"","html-keyboard-response","80","156610","0.0-125.0","4j7k5fa0","1366","768","","","","","","","","","","","null","+","Fixation - short","","null","","","","","","","","","","","","",""
"","html-keyboard-response","81","157444","0.0-126.0","4j7k5fa0","1366","768","","","","","","","","","","","832","ydi","Diagnostic trial","","f","0","5","false","false","RIGHT","j","0","","RIGHT","true","","",""
"","call-function","82","157445","0.0-128.0-0.0","4j7k5fa0","","","","","","","","","","","","","","","","","","","","","","","","","","","","","",""
"","html-keyboard-response","83","157757","0.0-128.0-1.0","4j7k5fa0","1366","768","","","","","","","","","","","null","Wrong","Feedback","","null","","","","","","","","","","","","",""
"","call-function","84","157758","0.0-128.0-2.0","4j7k5fa0","","","","","","","","","","","","","","","","","","","","","","","","","","","","","",""
"","html-keyboard-response","85","158517","0.0-129.0","4j7k5fa0","1366","768","","","","","","","","","","","null","+","Fixation - short","","null","","","","","","","","","","","","",""
"","html-keyboard-response","86","159101","0.0-130.0","4j7k5fa0","1366","768","","","","","","","","","","","581","byy","Diagnostic trial","","j","0","6","false","true","LEFT","f","0","","LEFT","true","","",""
"","call-function","87","159103","0.0-132.0-0.0","4j7k5fa0","","","","","","","","","","","","","","","","","","","","","","","","","","","","","",""
"","html-keyboard-response","88","159408","0.0-132.0-1.0","4j7k5fa0","1366","768","","","","","","","","","","","null","Wrong","Feedback","","null","","","","","","","","","","","","",""
"","call-function","89","159409","0.0-132.0-2.0","4j7k5fa0","","","","","","","","","","","","","","","","","","","","","","","","","","","","","",""
"","html-keyboard-response","90","160177","0.0-133.0","4j7k5fa0","1366","768","","","","","","","","","","","null","+","Fixation - short","","null","","","","","","","","","","","","",""
"","html-keyboard-response","91","161069","0.0-134.0","4j7k5fa0","1366","768","","","","","","","","","","","887","byy","Inducer trial","","f","0","","true","","","f","1","LEFT","","","","",""
"","html-keyboard-response","92","162583","0.0-137.0","4j7k5fa0","1366","768","","","","","","","","","","","null","+","Fixation - long","","null","","","","","","","","","","","","",""
"","html-keyboard-response","93","168703","0.0-138.0","4j7k5fa0","1366","768","","","","","","","","","","","6117","If ivr press LEFT | If dij press RIGHT","Inducer instructions",""," ","1","","","","","","","","","","","",""
"","html-keyboard-response","94","169460","0.0-139.0","4j7k5fa0","1366","768","","","","","","","","","","","null","+","Fixation - short","","null","","","","","","","","","","","","",""
"","html-keyboard-response","95","171476","0.0-140.0","4j7k5fa0","1366","768","","","","","","","","","","","null","dij","Diagnostic trial","","null","1","0","false","true","LEFT","f","NaN","","RIGHT","false","","",""
"","call-function","96","171478","0.0-141.0-0.0","4j7k5fa0","","","","","","","","","","","","","","","","","","","","","","","","","","","","","",""
"","html-keyboard-response","97","171791","0.0-141.0-1.0","4j7k5fa0","1366","768","","","","","","","","","","","null","Slow","Feedback","","null","","","","","","","","","","","","",""
"","call-function","98","171793","0.0-141.0-2.0","4j7k5fa0","","","","","","","","","","","","","","","","","","","","","","","","","","","","","",""
"","html-keyboard-response","99","172548","0.0-143.0","4j7k5fa0","1366","768","","","","","","","","","","","null","+","Fixation - short","","null","","","","","","","","","","","","",""
"","html-keyboard-response","100","173420","0.0-144.0","4j7k5fa0","1366","768","","","","","","","","","","","869","ivr","Diagnostic trial","","j","1","1","false","false","RIGHT","j","1","","LEFT","false","","",""
"","html-keyboard-response","101","174176","0.0-147.0","4j7k5fa0","1366","768","","","","","","","","","","","null","+","Fixation - short","","null","","","","","","","","","","","","",""
"","html-keyboard-response","102","174832","0.0-148.0","4j7k5fa0","1366","768","","","","","","","","","","","653","dij","Diagnostic trial","","f","1","2","false","false","RIGHT","j","0","","RIGHT","true","","",""
"","call-function","103","174834","0.0-150.0-0.0","4j7k5fa0","","","","","","","","","","","","","","","","","","","","","","","","","","","","","",""
"","html-keyboard-response","104","175141","0.0-150.0-1.0","4j7k5fa0","1366","768","","","","","","","","","","","null","Wrong","Feedback","","null","","","","","","","","","","","","",""
"","call-function","105","175142","0.0-150.0-2.0","4j7k5fa0","","","","","","","","","","","","","","","","","","","","","","","","","","","","","",""
"","html-keyboard-response","106","175910","0.0-151.0","4j7k5fa0","1366","768","","","","","","","","","","","null","+","Fixation - short","","null","","","","","","","","","","","","",""
"","html-keyboard-response","107","176392","0.0-152.0","4j7k5fa0","1366","768","","","","","","","","","","","479","ivr","Diagnostic trial","","j","1","3","false","true","LEFT","f","0","","LEFT","true","","",""
"","call-function","108","176394","0.0-154.0-0.0","4j7k5fa0","","","","","","","","","","","","","","","","","","","","","","","","","","","","","",""
"","html-keyboard-response","109","176708","0.0-154.0-1.0","4j7k5fa0","1366","768","","","","","","","","","","","null","Wrong","Feedback","","null","","","","","","","","","","","","",""
"","call-function","110","176710","0.0-154.0-2.0","4j7k5fa0","","","","","","","","","","","","","","","","","","","","","","","","","","","","","",""
"","html-keyboard-response","111","177477","0.0-155.0","4j7k5fa0","1366","768","","","","","","","","","","","null","+","Fixation - short","","null","","","","","","","","","","","","",""
"","html-keyboard-response","112","178209","0.0-156.0","4j7k5fa0","1366","768","","","","","","","","","","","730","ivr","Inducer trial","","j","1","","true","","","f","0","LEFT","","","","",""
"","call-function","113","178211","0.0-158.0-0.0","4j7k5fa0","","","","","","","","","","","","","","","","","","","","","","","","","","","","","",""
"","html-keyboard-response","114","178523","0.0-158.0-1.0","4j7k5fa0","1366","768","","","","","","","","","","","null","Wrong","Feedback","","null","","","","","","","","","","","","",""
"","call-function","115","178525","0.0-158.0-2.0","4j7k5fa0","","","","","","","","","","","","","","","","","","","","","","","","","","","","","",""
"","html-keyboard-response","116","180028","0.0-159.0","4j7k5fa0","1366","768","","","","","","","","","","","null","+","Fixation - long","","null","","","","","","","","","","","","",""
"","html-keyboard-response","117","188342","0.0-160.0","4j7k5fa0","1366","768","","","","","","","","","","","8312","If frn press LEFT | If hfs press RIGHT","Inducer instructions",""," ","2","","","","","","","","","","","",""
"","html-keyboard-response","118","189108","0.0-161.0","4j7k5fa0","1366","768","","","","","","","","","","","null","+","Fixation - short","","null","","","","","","","","","","","","",""
"","html-keyboard-response","119","189662","0.0-162.0","4j7k5fa0","1366","768","","","","","","","","","","","552","hfs","Diagnostic trial","","j","2","0","false","false","RIGHT","j","1","","RIGHT","true","","",""
"","html-keyboard-response","120","190425","0.0-165.0","4j7k5fa0","1366","768","","","","","","","","","","","null","+","Fixation - short","","null","","","","","","","","","","","","",""
"","html-keyboard-response","121","190990","0.0-166.0","4j7k5fa0","1366","768","","","","","","","","","","","563","hfs","Diagnostic trial","","j","2","1","false","false","RIGHT","j","1","","RIGHT","true","","",""
"","html-keyboard-response","122","191756","0.0-169.0","4j7k5fa0","1366","768","","","","","","","","","","","null","+","Fixation - short","","null","","","","","","","","","","","","",""
"","html-keyboard-response","123","192497","0.0-170.0","4j7k5fa0","1366","768","","","","","","","","","","","739","frn","Diagnostic trial","","f","2","2","false","false","RIGHT","j","0","","LEFT","false","","",""
"","call-function","124","192499","0.0-172.0-0.0","4j7k5fa0","","","","","","","","","","","","","","","","","","","","","","","","","","","","","",""
"","html-keyboard-response","125","192810","0.0-172.0-1.0","4j7k5fa0","1366","768","","","","","","","","","","","null","Wrong","Feedback","","null","","","","","","","","","","","","",""
"","call-function","126","192811","0.0-172.0-2.0","4j7k5fa0","","","","","","","","","","","","","","","","","","","","","","","","","","","","","",""
"","html-keyboard-response","127","193576","0.0-173.0","4j7k5fa0","1366","768","","","","","","","","","","","null","+","Fixation - short","","null","","","","","","","","","","","","",""
"","html-keyboard-response","128","194025","0.0-174.0","4j7k5fa0","1366","768","","","","","","","","","","","447","hfs","Diagnostic trial","","j","2","3","false","false","RIGHT","j","1","","RIGHT","true","","",""
"","html-keyboard-response","129","194791","0.0-177.0","4j7k5fa0","1366","768","","","","","","","","","","","null","+","Fixation - short","","null","","","","","","","","","","","","",""
"","html-keyboard-response","130","195184","0.0-178.0","4j7k5fa0","1366","768","","","","","","","","","","","390","hfs","Diagnostic trial","","j","2","4","false","false","RIGHT","j","1","","RIGHT","true","","",""
"","html-keyboard-response","131","195942","0.0-181.0","4j7k5fa0","1366","768","","","","","","","","","","","null","+","Fixation - short","","null","","","","","","","","","","","","",""
"","html-keyboard-response","132","196375","0.0-182.0","4j7k5fa0","1366","768","","","","","","","","","","","431","hfs","Diagnostic trial","","j","2","5","false","true","LEFT","f","0","","RIGHT","false","","",""
"","call-function","133","196377","0.0-184.0-0.0","4j7k5fa0","","","","","","","","","","","","","","","","","","","","","","","","","","","","","",""
"","html-keyboard-response","134","196689","0.0-184.0-1.0","4j7k5fa0","1366","768","","","","","","","","","","","null","Wrong","Feedback","","null","","","","","","","","","","","","",""
"","call-function","135","196690","0.0-184.0-2.0","4j7k5fa0","","","","","","","","","","","","","","","","","","","","","","","","","","","","","",""
"","html-keyboard-response","136","197444","0.0-185.0","4j7k5fa0","1366","768","","","","","","","","","","","null","+","Fixation - short","","null","","","","","","","","","","","","",""
"","html-keyboard-response","137","198293","0.0-186.0","4j7k5fa0","1366","768","","","","","","","","","","","846","frn","Diagnostic trial","","f","2","6","false","true","LEFT","f","1","","LEFT","true","","",""
"","html-keyboard-response","138","199057","0.0-189.0","4j7k5fa0","1366","768","","","","","","","","","","","null","+","Fixation - short","","null","","","","","","","","","","","","",""
"","html-keyboard-response","139","199870","0.0-190.0","4j7k5fa0","1366","768","","","","","","","","","","","809","hfs","Diagnostic trial","","j","2","7","false","false","RIGHT","j","1","","RIGHT","true","","",""
"","html-keyboard-response","140","200625","0.0-193.0","4j7k5fa0","1366","768","","","","","","","","","","","null","+","Fixation - short","","null","","","","","","","","","","","","",""
"","html-keyboard-response","141","202082","0.0-194.0","4j7k5fa0","1366","768","","","","","","","","","","","1454","frn","Diagnostic trial","","j","2","8","false","false","RIGHT","j","1","","LEFT","false","","",""
"","html-keyboard-response","142","202847","0.0-197.0","4j7k5fa0","1366","768","","","","","","","","","","","null","+","Fixation - short","","null","","","","","","","","","","","","",""
"","html-keyboard-response","143","203441","0.0-198.0","4j7k5fa0","1366","768","","","","","","","","","","","591","hfs","Diagnostic trial","","j","2","9","false","false","RIGHT","j","1","","RIGHT","true","","",""
"","html-keyboard-response","144","204207","0.0-201.0","4j7k5fa0","1366","768","","","","","","","","","","","null","+","Fixation - short","","null","","","","","","","","","","","","",""
"","html-keyboard-response","145","205166","0.0-202.0","4j7k5fa0","1366","768","","","","","","","","","","","956","frn","Diagnostic trial","","f","2","10","false","false","RIGHT","j","0","","LEFT","false","","",""
"","call-function","146","205168","0.0-204.0-0.0","4j7k5fa0","","","","","","","","","","","","","","","","","","","","","","","","","","","","","",""
"","html-keyboard-response","147","205472","0.0-204.0-1.0","4j7k5fa0","1366","768","","","","","","","","","","","null","Wrong","Feedback","","null","","","","","","","","","","","","",""
"","call-function","148","205473","0.0-204.0-2.0","4j7k5fa0","","","","","","","","","","","","","","","","","","","","","","","","","","","","","",""
"","html-keyboard-response","149","206233","0.0-205.0","4j7k5fa0","1366","768","","","","","","","","","","","null","+","Fixation - short","","null","","","","","","","","","","","","",""
"","html-keyboard-response","150","207404","0.0-206.0","4j7k5fa0","1366","768","","","","","","","","","","","1169","frn","Diagnostic trial","","j","2","11","false","false","RIGHT","j","1","","LEFT","false","","",""
"","html-keyboard-response","151","208169","0.0-209.0","4j7k5fa0","1366","768","","","","","","","","","","","null","+","Fixation - short","","null","","","","","","","","","","","","",""
"","html-keyboard-response","152","209245","0.0-210.0","4j7k5fa0","1366","768","","","","","","","","","","","1073","frn","Inducer trial","","f","2","","true","","","f","1","LEFT","","","","",""
"","html-keyboard-response","153","210749","0.0-213.0","4j7k5fa0","1366","768","","","","","","","","","","","null","+","Fixation - long","","null","","","","","","","","","","","","",""
"","html-keyboard-response","154","215119","0.0-214.0","4j7k5fa0","1366","768","","","","","","","","","","","4367","If goj press LEFT | If ofa press RIGHT","Inducer instructions",""," ","3","","","","","","","","","","","",""
"","html-keyboard-response","155","215881","0.0-215.0","4j7k5fa0","1366","768","","","","","","","","","","","null","+","Fixation - short","","null","","","","","","","","","","","","",""
"","html-keyboard-response","156","216531","0.0-216.0","4j7k5fa0","1366","768","","","","","","","","","","","646","goj","Diagnostic trial","","f","3","0","false","false","RIGHT","j","0","","LEFT","false","","",""
"","call-function","157","216532","0.0-218.0-0.0","4j7k5fa0","","","","","","","","","","","","","","","","","","","","","","","","","","","","","",""
"","html-keyboard-response","158","216844","0.0-218.0-1.0","4j7k5fa0","1366","768","","","","","","","","","","","null","Wrong","Feedback","","null","","","","","","","","","","","","",""
"","call-function","159","216846","0.0-218.0-2.0","4j7k5fa0","","","","","","","","","","","","","","","","","","","","","","","","","","","","","",""
"","html-keyboard-response","160","217599","0.0-219.0","4j7k5fa0","1366","768","","","","","","","","","","","null","+","Fixation - short","","null","","","","","","","","","","","","",""
"","html-keyboard-response","161","218427","0.0-220.0","4j7k5fa0","1366","768","","","","","","","","","","","825","goj","Diagnostic trial","","j","3","1","false","true","LEFT","f","0","","LEFT","true","","",""
"","call-function","162","218429","0.0-222.0-0.0","4j7k5fa0","","","","","","","","","","","","","","","","","","","","","","","","","","","","","",""
"","html-keyboard-response","163","218745","0.0-222.0-1.0","4j7k5fa0","1366","768","","","","","","","","","","","null","Wrong","Feedback","","null","","","","","","","","","","","","",""
"","call-function","164","218746","0.0-222.0-2.0","4j7k5fa0","","","","","","","","","","","","","","","","","","","","","","","","","","","","","",""
"","html-keyboard-response","165","219499","0.0-223.0","4j7k5fa0","1366","768","","","","","","","","","","","null","+","Fixation - short","","null","","","","","","","","","","","","",""
"","html-keyboard-response","166","220580","0.0-224.0","4j7k5fa0","1366","768","","","","","","","","","","","1078","goj","Diagnostic trial","","f","3","2","false","true","LEFT","f","1","","LEFT","true","","",""
"","html-keyboard-response","167","221341","0.0-227.0","4j7k5fa0","1366","768","","","","","","","","","","","null","+","Fixation - short","","null","","","","","","","","","","","","",""
"","html-keyboard-response","168","222274","0.0-228.0","4j7k5fa0","1366","768","","","","","","","","","","","931","goj","Diagnostic trial","","j","3","3","false","false","RIGHT","j","1","","LEFT","false","","",""
"","html-keyboard-response","169","223038","0.0-231.0","4j7k5fa0","1366","768","","","","","","","","","","","null","+","Fixation - short","","null","","","","","","","","","","","","",""
"","html-keyboard-response","170","223713","0.0-232.0","4j7k5fa0","1366","768","","","","","","","","","","","672","goj","Diagnostic trial","","f","3","4","false","true","LEFT","f","1","","LEFT","true","","",""
"","html-keyboard-response","171","224468","0.0-235.0","4j7k5fa0","1366","768","","","","","","","","","","","null","+","Fixation - short","","null","","","","","","","","","","","","",""
"","html-keyboard-response","172","225406","0.0-236.0","4j7k5fa0","1366","768","","","","","","","","","","","935","ofa","Diagnostic trial","","j","3","5","false","false","RIGHT","j","1","","RIGHT","true","","",""
"","html-keyboard-response","173","226164","0.0-239.0","4j7k5fa0","1366","768","","","","","","","","","","","null","+","Fixation - short","","null","","","","","","","","","","","","",""
"","html-keyboard-response","174","227379","0.0-240.0","4j7k5fa0","1366","768","","","","","","","","","","","1212","goj","Diagnostic trial","","j","3","6","false","false","RIGHT","j","1","","LEFT","false","","",""
"","html-keyboard-response","175","228147","0.0-243.0","4j7k5fa0","1366","768","","","","","","","","","","","null","+","Fixation - short","","null","","","","","","","","","","","","",""
"","html-keyboard-response","176","229466","0.0-244.0","4j7k5fa0","1366","768","","","","","","","","","","","1317","ofa","Diagnostic trial","","f","3","7","false","true","LEFT","f","1","","RIGHT","false","","",""
"","html-keyboard-response","177","230231","0.0-247.0","4j7k5fa0","1366","768","","","","","","","","","","","null","+","Fixation - short","","null","","","","","","","","","","","","",""
"","html-keyboard-response","178","230940","0.0-248.0","4j7k5fa0","1366","768","","","","","","","","","","","707","ofa","Diagnostic trial","","j","3","8","false","false","RIGHT","j","1","","RIGHT","true","","",""
"","html-keyboard-response","179","231697","0.0-251.0","4j7k5fa0","1366","768","","","","","","","","","","","null","+","Fixation - short","","null","","","","","","","","","","","","",""
"","html-keyboard-response","180","232467","0.0-252.0","4j7k5fa0","1366","768","","","","","","","","","","","768","goj","Diagnostic trial","","f","3","9","false","true","LEFT","f","1","","LEFT","true","","",""
"","html-keyboard-response","181","233229","0.0-255.0","4j7k5fa0","1366","768","","","","","","","","","","","null","+","Fixation - short","","null","","","","","","","","","","","","",""
"","html-keyboard-response","182","233847","0.0-256.0","4j7k5fa0","1366","768","","","","","","","","","","","615","goj","Diagnostic trial","","f","3","10","false","true","LEFT","f","1","","LEFT","true","","",""
"","html-keyboard-response","183","234613","0.0-259.0","4j7k5fa0","1366","768","","","","","","","","","","","null","+","Fixation - short","","null","","","","","","","","","","","","",""
"","html-keyboard-response","184","236174","0.0-260.0","4j7k5fa0","1366","768","","","","","","","","","","","1559","goj","Inducer trial","","j","3","","true","","","f","0","LEFT","","","","",""
"","call-function","185","236177","0.0-262.0-0.0","4j7k5fa0","","","","","","","","","","","","","","","","","","","","","","","","","","","","","",""
"","html-keyboard-response","186","236494","0.0-262.0-1.0","4j7k5fa0","1366","768","","","","","","","","","","","null","Wrong","Feedback","","null","","","","","","","","","","","","",""
"","call-function","187","236495","0.0-262.0-2.0","4j7k5fa0","","","","","","","","","","","","","","","","","","","","","","","","","","","","","",""
"","html-keyboard-response","188","237998","0.0-263.0","4j7k5fa0","1366","768","","","","","","","","","","","null","+","Fixation - long","","null","","","","","","","","","","","","",""
"","html-keyboard-response","189","245220","0.0-264.0","4j7k5fa0","1366","768","","","","","","","","","","","7219","If otr press LEFT | If yna press RIGHT","Inducer instructions",""," ","4","","","","","","","","","","","",""
"","html-keyboard-response","190","245980","0.0-265.0","4j7k5fa0","1366","768","","","","","","","","","","","null","+","Fixation - short","","null","","","","","","","","","","","","",""
"","html-keyboard-response","191","246406","0.0-266.0","4j7k5fa0","1366","768","","","","","","","","","","","423","otr","Diagnostic trial","","f","4","0","false","true","LEFT","f","1","","LEFT","true","","",""
"","html-keyboard-response","192","247163","0.0-269.0","4j7k5fa0","1366","768","","","","","","","","","","","null","+","Fixation - short","","null","","","","","","","","","","","","",""
"","html-keyboard-response","193","247723","0.0-270.0","4j7k5fa0","1366","768","","","","","","","","","","","557","otr","Diagnostic trial","","f","4","1","false","false","RIGHT","j","0","","LEFT","false","","",""
"","call-function","194","247724","0.0-272.0-0.0","4j7k5fa0","","","","","","","","","","","","","","","","","","","","","","","","","","","","","",""
"","html-keyboard-response","195","248043","0.0-272.0-1.0","4j7k5fa0","1366","768","","","","","","","","","","","null","Wrong","Feedback","","null","","","","","","","","","","","","",""
"","call-function","196","248045","0.0-272.0-2.0","4j7k5fa0","","","","","","","","","","","","","","","","","","","","","","","","","","","","","",""
"","html-keyboard-response","197","248802","0.0-273.0","4j7k5fa0","1366","768","","","","","","","","","","","null","+","Fixation - short","","null","","","","","","","","","","","","",""
"","html-keyboard-response","198","249696","0.0-274.0","4j7k5fa0","1366","768","","","","","","","","","","","892","otr","Diagnostic trial","","f","4","2","false","true","LEFT","f","1","","LEFT","true","","",""
"","html-keyboard-response","199","250462","0.0-277.0","4j7k5fa0","1366","768","","","","","","","","","","","null","+","Fixation - short","","null","","","","","","","","","","","","",""
"","html-keyboard-response","200","251400","0.0-278.0","4j7k5fa0","1366","768","","","","","","","","","","","935","otr","Diagnostic trial","","j","4","3","false","true","LEFT","f","0","","LEFT","true","","",""
"","call-function","201","251401","0.0-280.0-0.0","4j7k5fa0","","","","","","","","","","","","","","","","","","","","","","","","","","","","","",""
"","html-keyboard-response","202","251711","0.0-280.0-1.0","4j7k5fa0","1366","768","","","","","","","","","","","null","Wrong","Feedback","","null","","","","","","","","","","","","",""
"","call-function","203","251712","0.0-280.0-2.0","4j7k5fa0","","","","","","","","","","","","","","","","","","","","","","","","","","","","","",""
"","html-keyboard-response","204","252480","0.0-281.0","4j7k5fa0","1366","768","","","","","","","","","","","null","+","Fixation - short","","null","","","","","","","","","","","","",""
"","html-keyboard-response","205","253873","0.0-282.0","4j7k5fa0","1366","768","","","","","","","","","","","1391","yna","Diagnostic trial","","j","4","4","false","true","LEFT","f","0","","RIGHT","false","","",""
"","call-function","206","253875","0.0-284.0-0.0","4j7k5fa0","","","","","","","","","","","","","","","","","","","","","","","","","","","","","",""
"","html-keyboard-response","207","254193","0.0-284.0-1.0","4j7k5fa0","1366","768","","","","","","","","","","","null","Wrong","Feedback","","null","","","","","","","","","","","","",""
"","call-function","208","254194","0.0-284.0-2.0","4j7k5fa0","","","","","","","","","","","","","","","","","","","","","","","","","","","","","",""
"","html-keyboard-response","209","254948","0.0-285.0","4j7k5fa0","1366","768","","","","","","","","","","","null","+","Fixation - short","","null","","","","","","","","","","","","",""
"","html-keyboard-response","210","255629","0.0-286.0","4j7k5fa0","1366","768","","","","","","","","","","","678","otr","Diagnostic trial","","f","4","5","false","true","LEFT","f","1","","LEFT","true","","",""
"","html-keyboard-response","211","256395","0.0-289.0","4j7k5fa0","1366","768","","","","","","","","","","","null","+","Fixation - short","","null","","","","","","","","","","","","",""
"","html-keyboard-response","212","257194","0.0-290.0","4j7k5fa0","1366","768","","","","","","","","","","","797","yna","Diagnostic trial","","j","4","6","false","true","LEFT","f","0","","RIGHT","false","","",""
"","call-function","213","257196","0.0-292.0-0.0","4j7k5fa0","","","","","","","","","","","","","","","","","","","","","","","","","","","","","",""
"","html-keyboard-response","214","257510","0.0-292.0-1.0","4j7k5fa0","1366","768","","","","","","","","","","","null","Wrong","Feedback","","null","","","","","","","","","","","","",""
"","call-function","215","257511","0.0-292.0-2.0","4j7k5fa0","","","","","","","","","","","","","","","","","","","","","","","","","","","","","",""
"","html-keyboard-response","216","258279","0.0-293.0","4j7k5fa0","1366","768","","","","","","","","","","","null","+","Fixation - short","","null","","","","","","","","","","","","",""
"","html-keyboard-response","217","259846","0.0-294.0","4j7k5fa0","1366","768","","","","","","","","","","","1564","yna","Diagnostic trial","","j","4","7","false","true","LEFT","f","0","","RIGHT","false","","",""
"","call-function","218","259847","0.0-296.0-0.0","4j7k5fa0","","","","","","","","","","","","","","","","","","","","","","","","","","","","","",""
"","html-keyboard-response","219","260159","0.0-296.0-1.0","4j7k5fa0","1366","768","","","","","","","","","","","null","Wrong","Feedback","","null","","","","","","","","","","","","",""
"","call-function","220","260161","0.0-296.0-2.0","4j7k5fa0","","","","","","","","","","","","","","","","","","","","","","","","","","","","","",""
"","html-keyboard-response","221","260929","0.0-297.0","4j7k5fa0","1366","768","","","","","","","","","","","null","+","Fixation - short","","null","","","","","","","","","","","","",""
"","html-keyboard-response","222","262178","0.0-298.0","4j7k5fa0","1366","768","","","","","","","","","","","1246","otr","Diagnostic trial","","f","4","8","false","false","RIGHT","j","0","","LEFT","false","","",""
"","call-function","223","262179","0.0-300.0-0.0","4j7k5fa0","","","","","","","","","","","","","","","","","","","","","","","","","","","","","",""
"","html-keyboard-response","224","262493","0.0-300.0-1.0","4j7k5fa0","1366","768","","","","","","","","","","","null","Wrong","Feedback","","null","","","","","","","","","","","","",""
"","call-function","225","262494","0.0-300.0-2.0","4j7k5fa0","","","","","","","","","","","","","","","","","","","","","","","","","","","","","",""
"","html-keyboard-response","226","263248","0.0-301.0","4j7k5fa0","1366","768","","","","","","","","","","","null","+","Fixation - short","","null","","","","","","","","","","","","",""
"","html-keyboard-response","227","264165","0.0-302.0","4j7k5fa0","1366","768","","","","","","","","","","","915","yna","Diagnostic trial","","f","4","9","false","false","RIGHT","j","0","","RIGHT","true","","",""
"","call-function","228","264166","0.0-304.0-0.0","4j7k5fa0","","","","","","","","","","","","","","","","","","","","","","","","","","","","","",""
"","html-keyboard-response","229","264477","0.0-304.0-1.0","4j7k5fa0","1366","768","","","","","","","","","","","null","Wrong","Feedback","","null","","","","","","","","","","","","",""
"","call-function","230","264478","0.0-304.0-2.0","4j7k5fa0","","","","","","","","","","","","","","","","","","","","","","","","","","","","","",""
"","html-keyboard-response","231","265245","0.0-305.0","4j7k5fa0","1366","768","","","","","","","","","","","null","+","Fixation - short","","null","","","","","","","","","","","","",""
"","html-keyboard-response","232","266402","0.0-306.0","4j7k5fa0","1366","768","","","","","","","","","","","1154","otr","Diagnostic trial","","j","4","10","false","false","RIGHT","j","1","","LEFT","false","","",""
"","html-keyboard-response","233","267162","0.0-309.0","4j7k5fa0","1366","768","","","","","","","","","","","null","+","Fixation - short","","null","","","","","","","","","","","","",""
"","html-keyboard-response","234","268233","0.0-310.0","4j7k5fa0","1366","768","","","","","","","","","","","1067","otr","Diagnostic trial","","j","4","11","false","true","LEFT","f","0","","LEFT","true","","",""
"","call-function","235","268234","0.0-312.0-0.0","4j7k5fa0","","","","","","","","","","","","","","","","","","","","","","","","","","","","","",""
"","html-keyboard-response","236","268545","0.0-312.0-1.0","4j7k5fa0","1366","768","","","","","","","","","","","null","Wrong","Feedback","","null","","","","","","","","","","","","",""
"","call-function","237","268546","0.0-312.0-2.0","4j7k5fa0","","","","","","","","","","","","","","","","","","","","","","","","","","","","","",""
"","html-keyboard-response","238","269300","0.0-313.0","4j7k5fa0","1366","768","","","","","","","","","","","null","+","Fixation - short","","null","","","","","","","","","","","","",""
"","html-keyboard-response","239","271113","0.0-314.0","4j7k5fa0","1366","768","","","","","","","","","","","1811","yna","Diagnostic trial","","f","4","12","false","false","RIGHT","j","0","","RIGHT","true","","",""
"","call-function","240","271114","0.0-316.0-0.0","4j7k5fa0","","","","","","","","","","","","","","","","","","","","","","","","","","","","","",""
"","html-keyboard-response","241","271426","0.0-316.0-1.0","4j7k5fa0","1366","768","","","","","","","","","","","null","Wrong","Feedback","","null","","","","","","","","","","","","",""
"","call-function","242","271427","0.0-316.0-2.0","4j7k5fa0","","","","","","","","","","","","","","","","","","","","","","","","","","","","","",""
"","html-keyboard-response","243","272196","0.0-317.0","4j7k5fa0","1366","768","","","","","","","","","","","null","+","Fixation - short","","null","","","","","","","","","","","","",""
"","html-keyboard-response","244","272858","0.0-318.0","4j7k5fa0","1366","768","","","","","","","","","","","659","otr","Inducer trial","","j","4","","true","","","f","0","LEFT","","","","",""
"","call-function","245","272860","0.0-320.0-0.0","4j7k5fa0","","","","","","","","","","","","","","","","","","","","","","","","","","","","","",""
"","html-keyboard-response","246","273176","0.0-320.0-1.0","4j7k5fa0","1366","768","","","","","","","","","","","null","Wrong","Feedback","","null","","","","","","","","","","","","",""
"","call-function","247","273177","0.0-320.0-2.0","4j7k5fa0","","","","","","","","","","","","","","","","","","","","","","","","","","","","","",""
"","html-keyboard-response","248","274684","0.0-321.0","4j7k5fa0","1366","768","","","","","","","","","","","null","+","Fixation - long","","null","","","","","","","","","","","","",""
"","html-keyboard-response","249","281649","0.0-322.0","4j7k5fa0","1366","768","","","","","","","","","","","6962","If mmo press LEFT | If afp press RIGHT","Inducer instructions",""," ","5","","","","","","","","","","","",""
"","html-keyboard-response","250","282412","0.0-323.0","4j7k5fa0","1366","768","","","","","","","","","","","null","+","Fixation - short","","null","","","","","","","","","","","","",""
"","html-keyboard-response","251","282960","0.0-324.0","4j7k5fa0","1366","768","","","","","","","","","","","545","afp","Diagnostic trial","","j","5","0","false","true","LEFT","f","0","","RIGHT","false","","",""
"","call-function","252","282961","0.0-326.0-0.0","4j7k5fa0","","","","","","","","","","","","","","","","","","","","","","","","","","","","","",""
"","html-keyboard-response","253","283275","0.0-326.0-1.0","4j7k5fa0","1366","768","","","","","","","","","","","null","Wrong","Feedback","","null","","","","","","","","","","","","",""
"","call-function","254","283277","0.0-326.0-2.0","4j7k5fa0","","","","","","","","","","","","","","","","","","","","","","","","","","","","","",""
"","html-keyboard-response","255","284033","0.0-327.0","4j7k5fa0","1366","768","","","","","","","","","","","null","+","Fixation - short","","null","","","","","","","","","","","","",""
"","html-keyboard-response","256","284746","0.0-328.0","4j7k5fa0","1366","768","","","","","","","","","","","710","mmo","Diagnostic trial","","f","5","1","false","true","LEFT","f","1","","LEFT","true","","",""
"","html-keyboard-response","257","285510","0.0-331.0","4j7k5fa0","1366","768","","","","","","","","","","","null","+","Fixation - short","","null","","","","","","","","","","","","",""
"","html-keyboard-response","258","286220","0.0-332.0","4j7k5fa0","1366","768","","","","","","","","","","","707","afp","Diagnostic trial","","j","5","2","false","false","RIGHT","j","1","","RIGHT","true","","",""
"","html-keyboard-response","259","286978","0.0-335.0","4j7k5fa0","1366","768","","","","","","","","","","","null","+","Fixation - short","","null","","","","","","","","","","","","",""
"","html-keyboard-response","260","287983","0.0-336.0","4j7k5fa0","1366","768","","","","","","","","","","","1002","afp","Diagnostic trial","","j","5","3","false","true","LEFT","f","0","","RIGHT","false","","",""
"","call-function","261","287984","0.0-338.0-0.0","4j7k5fa0","","","","","","","","","","","","","","","","","","","","","","","","","","","","","",""
"","html-keyboard-response","262","288292","0.0-338.0-1.0","4j7k5fa0","1366","768","","","","","","","","","","","null","Wrong","Feedback","","null","","","","","","","","","","","","",""
"","call-function","263","288293","0.0-338.0-2.0","4j7k5fa0","","","","","","","","","","","","","","","","","","","","","","","","","","","","","",""
"","html-keyboard-response","264","289050","0.0-339.0","4j7k5fa0","1366","768","","","","","","","","","","","null","+","Fixation - short","","null","","","","","","","","","","","","",""
"","html-keyboard-response","265","290359","0.0-340.0","4j7k5fa0","1366","768","","","","","","","","","","","1306","mmo","Diagnostic trial","","f","5","4","false","false","RIGHT","j","0","","LEFT","false","","",""
"","call-function","266","290360","0.0-342.0-0.0","4j7k5fa0","","","","","","","","","","","","","","","","","","","","","","","","","","","","","",""
"","html-keyboard-response","267","290675","0.0-342.0-1.0","4j7k5fa0","1366","768","","","","","","","","","","","null","Wrong","Feedback","","null","","","","","","","","","","","","",""
"","call-function","268","290676","0.0-342.0-2.0","4j7k5fa0","","","","","","","","","","","","","","","","","","","","","","","","","","","","","",""
"","html-keyboard-response","269","291429","0.0-343.0","4j7k5fa0","1366","768","","","","","","","","","","","null","+","Fixation - short","","null","","","","","","","","","","","","",""
"","html-keyboard-response","270","293147","0.0-344.0","4j7k5fa0","1366","768","","","","","","","","","","","1715","afp","Diagnostic trial","","j","5","5","false","true","LEFT","f","0","","RIGHT","false","","",""
"","call-function","271","293149","0.0-346.0-0.0","4j7k5fa0","","","","","","","","","","","","","","","","","","","","","","","","","","","","","",""
"","html-keyboard-response","272","293458","0.0-346.0-1.0","4j7k5fa0","1366","768","","","","","","","","","","","null","Wrong","Feedback","","null","","","","","","","","","","","","",""
"","call-function","273","293460","0.0-346.0-2.0","4j7k5fa0","","","","","","","","","","","","","","","","","","","","","","","","","","","","","",""
"","html-keyboard-response","274","294216","0.0-347.0","4j7k5fa0","1366","768","","","","","","","","","","","null","+","Fixation - short","","null","","","","","","","","","","","","",""
"","html-keyboard-response","275","295249","0.0-348.0","4j7k5fa0","1366","768","","","","","","","","","","","1030","mmo","Diagnostic trial","","f","5","6","false","true","LEFT","f","1","","LEFT","true","","",""
"","html-keyboard-response","276","296011","0.0-351.0","4j7k5fa0","1366","768","","","","","","","","","","","null","+","Fixation - short","","null","","","","","","","","","","","","",""
"","html-keyboard-response","277","298010","0.0-352.0","4j7k5fa0","1366","768","","","","","","","","","","","1997","mmo","Diagnostic trial","","j","5","7","false","false","RIGHT","j","1","","LEFT","false","","",""
"","html-keyboard-response","278","298778","0.0-355.0","4j7k5fa0","1366","768","","","","","","","","","","","null","+","Fixation - short","","null","","","","","","","","","","","","",""
"","html-keyboard-response","279","299677","0.0-356.0","4j7k5fa0","1366","768","","","","","","","","","","","897","mmo","Diagnostic trial","","j","5","8","false","false","RIGHT","j","1","","LEFT","false","","",""
"","html-keyboard-response","280","300443","0.0-359.0","4j7k5fa0","1366","768","","","","","","","","","","","null","+","Fixation - short","","null","","","","","","","","","","","","",""
"","html-keyboard-response","281","301286","0.0-360.0","4j7k5fa0","1366","768","","","","","","","","","","","840","mmo","Diagnostic trial","","f","5","9","false","true","LEFT","f","1","","LEFT","true","","",""
"","html-keyboard-response","282","302044","0.0-363.0","4j7k5fa0","1366","768","","","","","","","","","","","null","+","Fixation - short","","null","","","","","","","","","","","","",""
"","html-keyboard-response","283","303351","0.0-364.0","4j7k5fa0","1366","768","","","","","","","","","","","1305","afp","Diagnostic trial","","f","5","10","false","true","LEFT","f","1","","RIGHT","false","","",""
"","html-keyboard-response","284","304114","0.0-367.0","4j7k5fa0","1366","768","","","","","","","","","","","null","+","Fixation - short","","null","","","","","","","","","","","","",""
"","html-keyboard-response","285","305344","0.0-368.0","4j7k5fa0","1366","768","","","","","","","","","","","1227","afp","Diagnostic trial","","j","5","11","false","false","RIGHT","j","1","","RIGHT","true","","",""
"","html-keyboard-response","286","306109","0.0-371.0","4j7k5fa0","1366","768","","","","","","","","","","","null","+","Fixation - short","","null","","","","","","","","","","","","",""
"","html-keyboard-response","287","307121","0.0-372.0","4j7k5fa0","1366","768","","","","","","","","","","","1009","afp","Diagnostic trial","","f","5","12","false","true","LEFT","f","1","","RIGHT","false","","",""
"","html-keyboard-response","288","307877","0.0-375.0","4j7k5fa0","1366","768","","","","","","","","","","","null","+","Fixation - short","","null","","","","","","","","","","","","",""
"","html-keyboard-response","289","309614","0.0-376.0","4j7k5fa0","1366","768","","","","","","","","","","","1734","mmo","Diagnostic trial","","j","5","13","false","false","RIGHT","j","1","","LEFT","false","","",""
"","html-keyboard-response","290","310377","0.0-379.0","4j7k5fa0","1366","768","","","","","","","","","","","null","+","Fixation - short","","null","","","","","","","","","","","","",""
"","html-keyboard-response","291","311579","0.0-380.0","4j7k5fa0","1366","768","","","","","","","","","","","1200","afp","Diagnostic trial","","f","5","14","false","false","RIGHT","j","0","","RIGHT","true","","",""
"","call-function","292","311580","0.0-382.0-0.0","4j7k5fa0","","","","","","","","","","","","","","","","","","","","","","","","","","","","","",""
"","html-keyboard-response","293","311885","0.0-382.0-1.0","4j7k5fa0","1366","768","","","","","","","","","","","null","Wrong","Feedback","","null","","","","","","","","","","","","",""
"","call-function","294","311887","0.0-382.0-2.0","4j7k5fa0","","","","","","","","","","","","","","","","","","","","","","","","","","","","","",""
"","html-keyboard-response","295","312643","0.0-383.0","4j7k5fa0","1366","768","","","","","","","","","","","null","+","Fixation - short","","null","","","","","","","","","","","","",""
"","html-keyboard-response","296","313719","0.0-384.0","4j7k5fa0","1366","768","","","","","","","","","","","1073","afp","Inducer trial","","j","5","","true","","","j","1","RIGHT","","","","",""
"","html-keyboard-response","297","315238","0.0-387.0","4j7k5fa0","1366","768","","","","","","","","","","","null","+","Fixation - long","","null","","","","","","","","","","","","",""
"","html-keyboard-response","298","318067","0.0-388.0","4j7k5fa0","1366","768","","","","","","","","","","","2825","If jey press LEFT | If eht press RIGHT","Inducer instructions",""," ","6","","","","","","","","","","","",""
"","html-keyboard-response","299","318827","0.0-389.0","4j7k5fa0","1366","768","","","","","","","","","","","null","+","Fixation - short","","null","","","","","","","","","","","","",""
"","html-keyboard-response","300","319528","0.0-390.0","4j7k5fa0","1366","768","","","","","","","","","","","699","eht","Diagnostic trial","","j","6","0","false","false","RIGHT","j","1","","RIGHT","true","","",""
"","html-keyboard-response","301","320292","0.0-393.0","4j7k5fa0","1366","768","","","","","","","","","","","null","+","Fixation - short","","null","","","","","","","","","","","","",""
"","html-keyboard-response","302","320933","0.0-394.0","4j7k5fa0","1366","768","","","","","","","","","","","639","jey","Diagnostic trial","","f","6","1","false","false","RIGHT","j","0","","LEFT","false","","",""
"","call-function","303","320935","0.0-396.0-0.0","4j7k5fa0","","","","","","","","","","","","","","","","","","","","","","","","","","","","","",""
"","html-keyboard-response","304","321240","0.0-396.0-1.0","4j7k5fa0","1366","768","","","","","","","","","","","null","Wrong","Feedback","","null","","","","","","","","","","","","",""
"","call-function","305","321241","0.0-396.0-2.0","4j7k5fa0","","","","","","","","","","","","","","","","","","","","","","","","","","","","","",""
"","html-keyboard-response","306","321995","0.0-397.0","4j7k5fa0","1366","768","","","","","","","","","","","null","+","Fixation - short","","null","","","","","","","","","","","","",""
"","html-keyboard-response","307","322670","0.0-398.0","4j7k5fa0","1366","768","","","","","","","","","","","672","eht","Diagnostic trial","","j","6","2","false","false","RIGHT","j","1","","RIGHT","true","","",""
"","html-keyboard-response","308","323426","0.0-401.0","4j7k5fa0","1366","768","","","","","","","","","","","null","+","Fixation - short","","null","","","","","","","","","","","","",""
"","html-keyboard-response","309","324619","0.0-402.0","4j7k5fa0","1366","768","","","","","","","","","","","1190","jey","Diagnostic trial","","j","6","3","false","false","RIGHT","j","1","","LEFT","false","","",""
"","html-keyboard-response","310","325376","0.0-405.0","4j7k5fa0","1366","768","","","","","","","","","","","null","+","Fixation - short","","null","","","","","","","","","","","","",""
"","html-keyboard-response","311","326414","0.0-406.0","4j7k5fa0","1366","768","","","","","","","","","","","1036","eht","Diagnostic trial","","j","6","4","false","false","RIGHT","j","1","","RIGHT","true","","",""
"","html-keyboard-response","312","327175","0.0-409.0","4j7k5fa0","1366","768","","","","","","","","","","","null","+","Fixation - short","","null","","","","","","","","","","","","",""
"","html-keyboard-response","313","327986","0.0-410.0","4j7k5fa0","1366","768","","","","","","","","","","","809","eht","Diagnostic trial","","j","6","5","false","false","RIGHT","j","1","","RIGHT","true","","",""
"","html-keyboard-response","314","328744","0.0-413.0","4j7k5fa0","1366","768","","","","","","","","","","","null","+","Fixation - short","","null","","","","","","","","","","","","",""
"","html-keyboard-response","315","329950","0.0-414.0","4j7k5fa0","1366","768","","","","","","","","","","","1203","jey","Diagnostic trial","","f","6","6","false","true","LEFT","f","1","","LEFT","true","","",""
"","html-keyboard-response","316","330709","0.0-417.0","4j7k5fa0","1366","768","","","","","","","","","","","null","+","Fixation - short","","null","","","","","","","","","","","","",""
"","html-keyboard-response","317","331489","0.0-418.0","4j7k5fa0","1366","768","","","","","","","","","","","776","jey","Diagnostic trial","","f","6","7","false","true","LEFT","f","1","","LEFT","true","","",""
"","html-keyboard-response","318","332242","0.0-421.0","4j7k5fa0","1366","768","","","","","","","","","","","null","+","Fixation - short","","null","","","","","","","","","","","","",""
"","html-keyboard-response","319","332852","0.0-422.0","4j7k5fa0","1366","768","","","","","","","","","","","608","jey","Diagnostic trial","","j","6","8","false","false","RIGHT","j","1","","LEFT","false","","",""
"","html-keyboard-response","320","333609","0.0-425.0","4j7k5fa0","1366","768","","","","","","","","","","","null","+","Fixation - short","","null","","","","","","","","","","","","",""
"","html-keyboard-response","321","334796","0.0-426.0","4j7k5fa0","1366","768","","","","","","","","","","","1184","jey","Inducer trial","","f","6","","true","","","f","1","LEFT","","","","",""
"","html-keyboard-response","322","336308","0.0-429.0","4j7k5fa0","1366","768","","","","","","","","","","","null","+","Fixation - long","","null","","","","","","","","","","","","",""
"","html-keyboard-response","323","342652","0.0-430.0","4j7k5fa0","1366","768","","","","","","","","","","","6341","If xlv press LEFT | If dgv press RIGHT","Inducer instructions",""," ","7","","","","","","","","","","","",""
"","html-keyboard-response","324","343409","0.0-431.0","4j7k5fa0","1366","768","","","","","","","","","","","null","+","Fixation - short","","null","","","","","","","","","","","","",""
"","html-keyboard-response","325","344340","0.0-432.0","4j7k5fa0","1366","768","","","","","","","","","","","929","xlv","Diagnostic trial","","f","7","0","false","true","LEFT","f","1","","LEFT","true","","",""
"","html-keyboard-response","326","345101","0.0-435.0","4j7k5fa0","1366","768","","","","","","","","","","","null","+","Fixation - short","","null","","","","","","","","","","","","",""
"","html-keyboard-response","327","346215","0.0-436.0","4j7k5fa0","1366","768","","","","","","","","","","","1112","dgv","Diagnostic trial","","j","7","1","false","false","RIGHT","j","1","","RIGHT","true","","",""
"","html-keyboard-response","328","346975","0.0-439.0","4j7k5fa0","1366","768","","","","","","","","","","","null","+","Fixation - short","","null","","","","","","","","","","","","",""
"","html-keyboard-response","329","347535","0.0-440.0","4j7k5fa0","1366","768","","","","","","","","","","","557","xlv","Diagnostic trial","","f","7","2","false","true","LEFT","f","1","","LEFT","true","","",""
"","html-keyboard-response","330","348292","0.0-443.0","4j7k5fa0","1366","768","","","","","","","","","","","null","+","Fixation - short","","null","","","","","","","","","","","","",""
"","html-keyboard-response","331","348860","0.0-444.0","4j7k5fa0","1366","768","","","","","","","","","","","566","dgv","Diagnostic trial","","j","7","3","false","false","RIGHT","j","1","","RIGHT","true","","",""
"","html-keyboard-response","332","349628","0.0-447.0","4j7k5fa0","1366","768","","","","","","","","","","","null","+","Fixation - short","","null","","","","","","","","","","","","",""
"","html-keyboard-response","333","350666","0.0-448.0","4j7k5fa0","1366","768","","","","","","","","","","","1036","dgv","Diagnostic trial","","j","7","4","false","false","RIGHT","j","1","","RIGHT","true","","",""
"","html-keyboard-response","334","351425","0.0-451.0","4j7k5fa0","1366","768","","","","","","","","","","","null","+","Fixation - short","","null","","","","","","","","","","","","",""
"","html-keyboard-response","335","352023","0.0-452.0","4j7k5fa0","1366","768","","","","","","","","","","","595","dgv","Diagnostic trial","","j","7","5","false","false","RIGHT","j","1","","RIGHT","true","","",""
"","html-keyboard-response","336","352790","0.0-455.0","4j7k5fa0","1366","768","","","","","","","","","","","null","+","Fixation - short","","null","","","","","","","","","","","","",""
"","html-keyboard-response","337","353658","0.0-456.0","4j7k5fa0","1366","768","","","","","","","","","","","865","dgv","Diagnostic trial","","f","7","6","false","true","LEFT","f","1","","RIGHT","false","","",""
"","html-keyboard-response","338","354424","0.0-459.0","4j7k5fa0","1366","768","","","","","","","","","","","null","+","Fixation - short","","null","","","","","","","","","","","","",""
"","html-keyboard-response","339","356262","0.0-460.0","4j7k5fa0","1366","768","","","","","","","","","","","1835","xlv","Diagnostic trial","","f","7","7","false","false","RIGHT","j","0","","LEFT","false","","",""
"","call-function","340","356263","0.0-462.0-0.0","4j7k5fa0","","","","","","","","","","","","","","","","","","","","","","","","","","","","","",""
"","html-keyboard-response","341","356572","0.0-462.0-1.0","4j7k5fa0","1366","768","","","","","","","","","","","null","Wrong","Feedback","","null","","","","","","","","","","","","",""
"","call-function","342","356573","0.0-462.0-2.0","4j7k5fa0","","","","","","","","","","","","","","","","","","","","","","","","","","","","","",""
"","html-keyboard-response","343","357340","0.0-463.0","4j7k5fa0","1366","768","","","","","","","","","","","null","+","Fixation - short","","null","","","","","","","","","","","","",""
"","html-keyboard-response","344","357490","0.0-464.0","4j7k5fa0","1366","768","","","","","","","","","","","147","dgv","Diagnostic trial","","j","7","8","false","false","RIGHT","j","1","","RIGHT","true","","",""
"","html-keyboard-response","345","358257","0.0-467.0","4j7k5fa0","1366","768","","","","","","","","","","","null","+","Fixation - short","","null","","","","","","","","","","","","",""
"","html-keyboard-response","346","359217","0.0-468.0","4j7k5fa0","1366","768","","","","","","","","","","","958","dgv","Diagnostic trial","","f","7","9","false","true","LEFT","f","1","","RIGHT","false","","",""
"","html-keyboard-response","347","359978","0.0-471.0","4j7k5fa0","1366","768","","","","","","","","","","","null","+","Fixation - short","","null","","","","","","","","","","","","",""
"","html-keyboard-response","348","360898","0.0-472.0","4j7k5fa0","1366","768","","","","","","","","","","","917","xlv","Diagnostic trial","","j","7","10","false","false","RIGHT","j","1","","LEFT","false","","",""
"","html-keyboard-response","349","361658","0.0-475.0","4j7k5fa0","1366","768","","","","","","","","","","","null","+","Fixation - short","","null","","","","","","","","","","","","",""
"","html-keyboard-response","350","362708","0.0-476.0","4j7k5fa0","1366","768","","","","","","","","","","","1047","dgv","Inducer trial","","j","7","","true","","","j","1","RIGHT","","","","",""
"","html-keyboard-response","351","364224","0.0-479.0","4j7k5fa0","1366","768","","","","","","","","","","","null","+","Fixation - long","","null","","","","","","","","","","","","",""
"","html-keyboard-response","352","370197","0.0-480.0","4j7k5fa0","1366","768","","","","","","","","","","","5971","If vbt press LEFT | If fja press RIGHT","Inducer instructions",""," ","8","","","","","","","","","","","",""
"","html-keyboard-response","353","370959","0.0-481.0","4j7k5fa0","1366","768","","","","","","","","","","","null","+","Fixation - short","","null","","","","","","","","","","","","",""
"","html-keyboard-response","354","371612","0.0-482.0","4j7k5fa0","1366","768","","","","","","","","","","","651","vbt","Diagnostic trial","","f","8","0","false","true","LEFT","f","1","","LEFT","true","","",""
"","html-keyboard-response","355","372374","0.0-485.0","4j7k5fa0","1366","768","","","","","","","","","","","null","+","Fixation - short","","null","","","","","","","","","","","","",""
"","html-keyboard-response","356","373179","0.0-486.0","4j7k5fa0","1366","768","","","","","","","","","","","802","vbt","Diagnostic trial","","j","8","1","false","false","RIGHT","j","1","","LEFT","false","","",""
"","html-keyboard-response","357","373940","0.0-489.0","4j7k5fa0","1366","768","","","","","","","","","","","null","+","Fixation - short","","null","","","","","","","","","","","","",""
"","html-keyboard-response","358","374911","0.0-490.0","4j7k5fa0","1366","768","","","","","","","","","","","969","fja","Diagnostic trial","","j","8","2","false","false","RIGHT","j","1","","RIGHT","true","","",""
"","html-keyboard-response","359","375673","0.0-493.0","4j7k5fa0","1366","768","","","","","","","","","","","null","+","Fixation - short","","null","","","","","","","","","","","","",""
"","html-keyboard-response","360","377599","0.0-494.0","4j7k5fa0","1366","768","","","","","","","","","","","1923","vbt","Diagnostic trial","","j","8","3","false","false","RIGHT","j","1","","LEFT","false","","",""
"","html-keyboard-response","361","378357","0.0-497.0","4j7k5fa0","1366","768","","","","","","","","","","","null","+","Fixation - short","","null","","","","","","","","","","","","",""
"","html-keyboard-response","362","379356","0.0-498.0","4j7k5fa0","1366","768","","","","","","","","","","","997","vbt","Inducer trial","","f","8","","true","","","f","1","LEFT","","","","",""
"","html-keyboard-response","363","380861","0.0-501.0","4j7k5fa0","1366","768","","","","","","","","","","","null","+","Fixation - long","","null","","","","","","","","","","","","",""
"","html-keyboard-response","364","385982","0.0-502.0","4j7k5fa0","1366","768","","","","","","","","","","","5118","If kho press LEFT | If mts press RIGHT","Inducer instructions",""," ","9","","","","","","","","","","","",""
"","html-keyboard-response","365","386741","0.0-503.0","4j7k5fa0","1366","768","","","","","","","","","","","null","+","Fixation - short","","null","","","","","","","","","","","","",""
"","html-keyboard-response","366","387176","0.0-504.0","4j7k5fa0","1366","768","","","","","","","","","","","432","kho","Diagnostic trial","","f","9","0","false","false","RIGHT","j","0","","LEFT","false","","",""
"","call-function","367","387177","0.0-506.0-0.0","4j7k5fa0","","","","","","","","","","","","","","","","","","","","","","","","","","","","","",""
"","html-keyboard-response","368","387488","0.0-506.0-1.0","4j7k5fa0","1366","768","","","","","","","","","","","null","Wrong","Feedback","","null","","","","","","","","","","","","",""
"","call-function","369","387489","0.0-506.0-2.0","4j7k5fa0","","","","","","","","","","","","","","","","","","","","","","","","","","","","","",""
"","html-keyboard-response","370","388256","0.0-507.0","4j7k5fa0","1366","768","","","","","","","","","","","null","+","Fixation - short","","null","","","","","","","","","","","","",""
"","html-keyboard-response","371","389014","0.0-508.0","4j7k5fa0","1366","768","","","","","","","","","","","755","kho","Diagnostic trial","","j","9","1","false","false","RIGHT","j","1","","LEFT","false","","",""
"","html-keyboard-response","372","389774","0.0-511.0","4j7k5fa0","1366","768","","","","","","","","","","","null","+","Fixation - short","","null","","","","","","","","","","","","",""
"","html-keyboard-response","373","390601","0.0-512.0","4j7k5fa0","1366","768","","","","","","","","","","","825","kho","Diagnostic trial","","j","9","2","false","false","RIGHT","j","1","","LEFT","false","","",""
"","html-keyboard-response","374","391356","0.0-515.0","4j7k5fa0","1366","768","","","","","","","","","","","null","+","Fixation - short","","null","","","","","","","","","","","","",""
"","html-keyboard-response","375","392036","0.0-516.0","4j7k5fa0","1366","768","","","","","","","","","","","676","kho","Diagnostic trial","","f","9","3","false","true","LEFT","f","1","","LEFT","true","","",""
"","html-keyboard-response","376","392791","0.0-519.0","4j7k5fa0","1366","768","","","","","","","","","","","null","+","Fixation - short","","null","","","","","","","","","","","","",""
"","html-keyboard-response","377","394366","0.0-520.0","4j7k5fa0","1366","768","","","","","","","","","","","1573","mts","Diagnostic trial","","f","9","4","false","true","LEFT","f","1","","RIGHT","false","","",""
"","html-keyboard-response","378","395123","0.0-523.0","4j7k5fa0","1366","768","","","","","","","","","","","null","+","Fixation - short","","null","","","","","","","","","","","","",""
"","html-keyboard-response","379","396128","0.0-524.0","4j7k5fa0","1366","768","","","","","","","","","","","1002","kho","Diagnostic trial","","f","9","5","false","true","LEFT","f","1","","LEFT","true","","",""
"","html-keyboard-response","380","396890","0.0-527.0","4j7k5fa0","1366","768","","","","","","","","","","","null","+","Fixation - short","","null","","","","","","","","","","","","",""
"","html-keyboard-response","381","397842","0.0-528.0","4j7k5fa0","1366","768","","","","","","","","","","","949","kho","Diagnostic trial","","j","9","6","false","false","RIGHT","j","1","","LEFT","false","","",""
"","html-keyboard-response","382","398605","0.0-531.0","4j7k5fa0","1366","768","","","","","","","","","","","null","+","Fixation - short","","null","","","","","","","","","","","","",""
"","html-keyboard-response","383","399246","0.0-532.0","4j7k5fa0","1366","768","","","","","","","","","","","637","kho","Diagnostic trial","","f","9","7","false","true","LEFT","f","1","","LEFT","true","","",""
"","html-keyboard-response","384","400013","0.0-535.0","4j7k5fa0","1366","768","","","","","","","","","","","null","+","Fixation - short","","null","","","","","","","","","","","","",""
"","html-keyboard-response","385","400807","0.0-536.0","4j7k5fa0","1366","768","","","","","","","","","","","793","kho","Diagnostic trial","","j","9","8","false","false","RIGHT","j","1","","LEFT","false","","",""
"","html-keyboard-response","386","401565","0.0-539.0","4j7k5fa0","1366","768","","","","","","","","","","","null","+","Fixation - short","","null","","","","","","","","","","","","",""
"","html-keyboard-response","387","402213","0.0-540.0","4j7k5fa0","1366","768","","","","","","","","","","","645","kho","Diagnostic trial","","j","9","9","false","false","RIGHT","j","1","","LEFT","false","","",""
"","html-keyboard-response","388","402973","0.0-543.0","4j7k5fa0","1366","768","","","","","","","","","","","null","+","Fixation - short","","null","","","","","","","","","","","","",""
"","html-keyboard-response","389","403560","0.0-544.0","4j7k5fa0","1366","768","","","","","","","","","","","584","kho","Diagnostic trial","","j","9","10","false","false","RIGHT","j","1","","LEFT","false","","",""
"","html-keyboard-response","390","404321","0.0-547.0","4j7k5fa0","1366","768","","","","","","","","","","","null","+","Fixation - short","","null","","","","","","","","","","","","",""
"","html-keyboard-response","391","405362","0.0-548.0","4j7k5fa0","1366","768","","","","","","","","","","","1038","mts","Diagnostic trial","","j","9","11","false","false","RIGHT","j","1","","RIGHT","true","","",""
"","html-keyboard-response","392","406122","0.0-551.0","4j7k5fa0","1366","768","","","","","","","","","","","null","+","Fixation - short","","null","","","","","","","","","","","","",""
"","html-keyboard-response","393","406876","0.0-552.0","4j7k5fa0","1366","768","","","","","","","","","","","751","mts","Diagnostic trial","","f","9","12","false","true","LEFT","f","1","","RIGHT","false","","",""
"","html-keyboard-response","394","407637","0.0-555.0","4j7k5fa0","1366","768","","","","","","","","","","","null","+","Fixation - short","","null","","","","","","","","","","","","",""
"","html-keyboard-response","395","409579","0.0-556.0","4j7k5fa0","1366","768","","","","","","","","","","","1940","kho","Diagnostic trial","","f","9","13","false","true","LEFT","f","1","","LEFT","true","","",""
"","html-keyboard-response","396","410339","0.0-559.0","4j7k5fa0","1366","768","","","","","","","","","","","null","+","Fixation - short","","null","","","","","","","","","","","","",""
"","html-keyboard-response","397","411226","0.0-560.0","4j7k5fa0","1366","768","","","","","","","","","","","884","mts","Inducer trial","","j","9","","true","","","j","1","RIGHT","","","","",""
"","html-keyboard-response","398","412738","0.0-563.0","4j7k5fa0","1366","768","","","","","","","","","","","null","+","Fixation - long","","null","","","","","","","","","","","","",""
"","html-keyboard-response","399","416610","0.0-564.0","4j7k5fa0","1366","768","","","","","","","","","","","3869","If zpl press LEFT | If dul press RIGHT","Inducer instructions",""," ","10","","","","","","","","","","","",""
"","html-keyboard-response","400","417372","0.0-565.0","4j7k5fa0","1366","768","","","","","","","","","","","null","+","Fixation - short","","null","","","","","","","","","","","","",""
"","html-keyboard-response","401","418185","0.0-566.0","4j7k5fa0","1366","768","","","","","","","","","","","810","dul","Diagnostic trial","","f","10","0","false","true","LEFT","f","1","","RIGHT","false","","",""
"","html-keyboard-response","402","418939","0.0-569.0","4j7k5fa0","1366","768","","","","","","","","","","","null","+","Fixation - short","","null","","","","","","","","","","","","",""
"","html-keyboard-response","403","420788","0.0-570.0","4j7k5fa0","1366","768","","","","","","","","","","","1847","zpl","Diagnostic trial","","j","10","1","false","false","RIGHT","j","1","","LEFT","false","","",""
"","html-keyboard-response","404","421554","0.0-573.0","4j7k5fa0","1366","768","","","","","","","","","","","null","+","Fixation - short","","null","","","","","","","","","","","","",""
"","html-keyboard-response","405","422568","0.0-574.0","4j7k5fa0","1366","768","","","","","","","","","","","1011","dul","Diagnostic trial","","f","10","2","false","true","LEFT","f","1","","RIGHT","false","","",""
"","html-keyboard-response","406","423322","0.0-577.0","4j7k5fa0","1366","768","","","","","","","","","","","null","+","Fixation - short","","null","","","","","","","","","","","","",""
"","html-keyboard-response","407","424127","0.0-578.0","4j7k5fa0","1366","768","","","","","","","","","","","803","dul","Diagnostic trial","","j","10","3","false","false","RIGHT","j","1","","RIGHT","true","","",""
"","html-keyboard-response","408","424888","0.0-581.0","4j7k5fa0","1366","768","","","","","","","","","","","null","+","Fixation - short","","null","","","","","","","","","","","","",""
"","html-keyboard-response","409","426222","0.0-582.0","4j7k5fa0","1366","768","","","","","","","","","","","1331","zpl","Diagnostic trial","","j","10","4","false","false","RIGHT","j","1","","LEFT","false","","",""
"","html-keyboard-response","410","426987","0.0-585.0","4j7k5fa0","1366","768","","","","","","","","","","","null","+","Fixation - short","","null","","","","","","","","","","","","",""
"","html-keyboard-response","411","428780","0.0-586.0","4j7k5fa0","1366","768","","","","","","","","","","","1789","dul","Diagnostic trial","","j","10","5","false","false","RIGHT","j","1","","RIGHT","true","","",""
"","html-keyboard-response","412","429538","0.0-589.0","4j7k5fa0","1366","768","","","","","","","","","","","null","+","Fixation - short","","null","","","","","","","","","","","","",""
"","html-keyboard-response","413","430425","0.0-590.0","4j7k5fa0","1366","768","","","","","","","","","","","885","zpl","Diagnostic trial","","j","10","6","false","false","RIGHT","j","1","","LEFT","false","","",""
"","html-keyboard-response","414","431179","0.0-593.0","4j7k5fa0","1366","768","","","","","","","","","","","null","+","Fixation - short","","null","","","","","","","","","","","","",""
"","html-keyboard-response","415","432094","0.0-594.0","4j7k5fa0","1366","768","","","","","","","","","","","911","zpl","Diagnostic trial","","j","10","7","false","false","RIGHT","j","1","","LEFT","false","","",""
"","html-keyboard-response","416","432855","0.0-597.0","4j7k5fa0","1366","768","","","","","","","","","","","null","+","Fixation - short","","null","","","","","","","","","","","","",""
"","html-keyboard-response","417","433684","0.0-598.0","4j7k5fa0","1366","768","","","","","","","","","","","825","dul","Diagnostic trial","","j","10","8","false","false","RIGHT","j","1","","RIGHT","true","","",""
"","html-keyboard-response","418","434438","0.0-601.0","4j7k5fa0","1366","768","","","","","","","","","","","null","+","Fixation - short","","null","","","","","","","","","","","","",""
"","html-keyboard-response","419","435865","0.0-602.0","4j7k5fa0","1366","768","","","","","","","","","","","1424","zpl","Diagnostic trial","","j","10","9","false","false","RIGHT","j","1","","LEFT","false","","",""
"","html-keyboard-response","420","436622","0.0-605.0","4j7k5fa0","1366","768","","","","","","","","","","","null","+","Fixation - short","","null","","","","","","","","","","","","",""
"","html-keyboard-response","421","437213","0.0-606.0","4j7k5fa0","1366","768","","","","","","","","","","","588","zpl","Diagnostic trial","","j","10","10","false","false","RIGHT","j","1","","LEFT","false","","",""
"","html-keyboard-response","422","437971","0.0-609.0","4j7k5fa0","1366","768","","","","","","","","","","","null","+","Fixation - short","","null","","","","","","","","","","","","",""
"","html-keyboard-response","423","438789","0.0-610.0","4j7k5fa0","1366","768","","","","","","","","","","","815","dul","Diagnostic trial","","f","10","11","false","true","LEFT","f","1","","RIGHT","false","","",""
"","html-keyboard-response","424","439554","0.0-613.0","4j7k5fa0","1366","768","","","","","","","","","","","null","+","Fixation - short","","null","","","","","","","","","","","","",""
"","html-keyboard-response","425","440280","0.0-614.0","4j7k5fa0","1366","768","","","","","","","","","","","723","zpl","Diagnostic trial","","j","10","12","false","true","LEFT","f","0","","LEFT","true","","",""
"","call-function","426","440281","0.0-616.0-0.0","4j7k5fa0","","","","","","","","","","","","","","","","","","","","","","","","","","","","","",""
"","html-keyboard-response","427","440603","0.0-616.0-1.0","4j7k5fa0","1366","768","","","","","","","","","","","null","Wrong","Feedback","","null","","","","","","","","","","","","",""
"","call-function","428","440604","0.0-616.0-2.0","4j7k5fa0","","","","","","","","","","","","","","","","","","","","","","","","","","","","","",""
"","html-keyboard-response","429","441360","0.0-617.0","4j7k5fa0","1366","768","","","","","","","","","","","null","+","Fixation - short","","null","","","","","","","","","","","","",""
"","html-keyboard-response","430","442444","0.0-618.0","4j7k5fa0","1366","768","","","","","","","","","","","1082","dul","Diagnostic trial","","j","10","13","false","false","RIGHT","j","1","","RIGHT","true","","",""
"","html-keyboard-response","431","443204","0.0-621.0","4j7k5fa0","1366","768","","","","","","","","","","","null","+","Fixation - short","","null","","","","","","","","","","","","",""
"","html-keyboard-response","432","444361","0.0-622.0","4j7k5fa0","1366","768","","","","","","","","","","","1155","zpl","Diagnostic trial","","j","10","14","false","false","RIGHT","j","1","","LEFT","false","","",""
"","html-keyboard-response","433","445121","0.0-625.0","4j7k5fa0","1366","768","","","","","","","","","","","null","+","Fixation - short","","null","","","","","","","","","","","","",""
"","html-keyboard-response","434","446071","0.0-626.0","4j7k5fa0","1366","768","","","","","","","","","","","947","zpl","Diagnostic trial","","f","10","15","false","true","LEFT","f","1","","LEFT","true","","",""
"","html-keyboard-response","435","446836","0.0-629.0","4j7k5fa0","1366","768","","","","","","","","","","","null","+","Fixation - short","","null","","","","","","","","","","","","",""
"","html-keyboard-response","436","447590","0.0-630.0","4j7k5fa0","1366","768","","","","","","","","","","","751","dul","Inducer trial","","f","10","","true","","","j","0","RIGHT","","","","",""
"","call-function","437","447592","0.0-632.0-0.0","4j7k5fa0","","","","","","","","","","","","","","","","","","","","","","","","","","","","","",""
"","html-keyboard-response","438","447901","0.0-632.0-1.0","4j7k5fa0","1366","768","","","","","","","","","","","null","Wrong","Feedback","","null","","","","","","","","","","","","",""
"","call-function","439","447902","0.0-632.0-2.0","4j7k5fa0","","","","","","","","","","","","","","","","","","","","","","","","","","","","","",""
"","html-keyboard-response","440","449405","0.0-633.0","4j7k5fa0","1366","768","","","","","","","","","","","null","+","Fixation - long","","null","","","","","","","","","","","","",""
"","html-keyboard-response","441","460520","0.0-634.0","4j7k5fa0","1366","768","","","","","","","","","","","11113","If dnc press LEFT | If feg press RIGHT","Inducer instructions",""," ","11","","","","","","","","","","","",""
"","html-keyboard-response","442","461274","0.0-635.0","4j7k5fa0","1366","768","","","","","","","","","","","null","+","Fixation - short","","null","","","","","","","","","","","","",""
"","html-keyboard-response","443","462232","0.0-636.0","4j7k5fa0","1366","768","","","","","","","","","","","955","dnc","Diagnostic trial","","j","11","0","false","true","LEFT","f","0","","LEFT","true","","",""
"","call-function","444","462234","0.0-638.0-0.0","4j7k5fa0","","","","","","","","","","","","","","","","","","","","","","","","","","","","","",""
"","html-keyboard-response","445","462550","0.0-638.0-1.0","4j7k5fa0","1366","768","","","","","","","","","","","null","Wrong","Feedback","","null","","","","","","","","","","","","",""
"","call-function","446","462552","0.0-638.0-2.0","4j7k5fa0","","","","","","","","","","","","","","","","","","","","","","","","","","","","","",""
"","html-keyboard-response","447","463320","0.0-639.0","4j7k5fa0","1366","768","","","","","","","","","","","null","+","Fixation - short","","null","","","","","","","","","","","","",""
"","html-keyboard-response","448","463916","0.0-640.0","4j7k5fa0","1366","768","","","","","","","","","","","593","dnc","Diagnostic trial","","f","11","1","false","true","LEFT","f","1","","LEFT","true","","",""
"","html-keyboard-response","449","464670","0.0-643.0","4j7k5fa0","1366","768","","","","","","","","","","","null","+","Fixation - short","","null","","","","","","","","","","","","",""
"","html-keyboard-response","450","465408","0.0-644.0","4j7k5fa0","1366","768","","","","","","","","","","","736","dnc","Diagnostic trial","","j","11","2","false","false","RIGHT","j","1","","LEFT","false","","",""
"","html-keyboard-response","451","466173","0.0-647.0","4j7k5fa0","1366","768","","","","","","","","","","","null","+","Fixation - short","","null","","","","","","","","","","","","",""
"","html-keyboard-response","452","466704","0.0-648.0","4j7k5fa0","1366","768","","","","","","","","","","","529","dnc","Diagnostic trial","","j","11","3","false","false","RIGHT","j","1","","LEFT","false","","",""
"","html-keyboard-response","453","467468","0.0-651.0","4j7k5fa0","1366","768","","","","","","","","","","","null","+","Fixation - short","","null","","","","","","","","","","","","",""
"","html-keyboard-response","454","468173","0.0-652.0","4j7k5fa0","1366","768","","","","","","","","","","","702","feg","Diagnostic trial","","f","11","4","false","true","LEFT","f","1","","RIGHT","false","","",""
"","html-keyboard-response","455","468935","0.0-655.0","4j7k5fa0","1366","768","","","","","","","","","","","null","+","Fixation - short","","null","","","","","","","","","","","","",""
"","html-keyboard-response","456","469737","0.0-656.0","4j7k5fa0","1366","768","","","","","","","","","","","800","feg","Diagnostic trial","","f","11","5","false","true","LEFT","f","1","","RIGHT","false","","",""
"","html-keyboard-response","457","470502","0.0-659.0","4j7k5fa0","1366","768","","","","","","","","","","","null","+","Fixation - short","","null","","","","","","","","","","","","",""
"","html-keyboard-response","458","471369","0.0-660.0","4j7k5fa0","1366","768","","","","","","","","","","","865","dnc","Diagnostic trial","","f","11","6","false","true","LEFT","f","1","","LEFT","true","","",""
"","html-keyboard-response","459","472135","0.0-663.0","4j7k5fa0","1366","768","","","","","","","","","","","null","+","Fixation - short","","null","","","","","","","","","","","","",""
"","html-keyboard-response","460","473221","0.0-664.0","4j7k5fa0","1366","768","","","","","","","","","","","1084","feg","Diagnostic trial","","f","11","7","false","true","LEFT","f","1","","RIGHT","false","","",""
"","html-keyboard-response","461","473985","0.0-667.0","4j7k5fa0","1366","768","","","","","","","","","","","null","+","Fixation - short","","null","","","","","","","","","","","","",""
"","html-keyboard-response","462","475073","0.0-668.0","4j7k5fa0","1366","768","","","","","","","","","","","1085","dnc","Diagnostic trial","","f","11","8","false","true","LEFT","f","1","","LEFT","true","","",""
"","html-keyboard-response","463","475836","0.0-671.0","4j7k5fa0","1366","768","","","","","","","","","","","null","+","Fixation - short","","null","","","","","","","","","","","","",""
"","html-keyboard-response","464","476422","0.0-672.0","4j7k5fa0","1366","768","","","","","","","","","","","584","dnc","Diagnostic trial","","j","11","9","false","false","RIGHT","j","1","","LEFT","false","","",""
"","html-keyboard-response","465","477185","0.0-675.0","4j7k5fa0","1366","768","","","","","","","","","","","null","+","Fixation - short","","null","","","","","","","","","","","","",""
"","html-keyboard-response","466","477846","0.0-676.0","4j7k5fa0","1366","768","","","","","","","","","","","659","dnc","Inducer trial","","j","11","","true","","","f","0","LEFT","","","","",""
"","call-function","467","477849","0.0-678.0-0.0","4j7k5fa0","","","","","","","","","","","","","","","","","","","","","","","","","","","","","",""
"","html-keyboard-response","468","478165","0.0-678.0-1.0","4j7k5fa0","1366","768","","","","","","","","","","","null","Wrong","Feedback","","null","","","","","","","","","","","","",""
"","call-function","469","478167","0.0-678.0-2.0","4j7k5fa0","","","","","","","","","","","","","","","","","","","","","","","","","","","","","",""
"","html-keyboard-response","470","479671","0.0-679.0","4j7k5fa0","1366","768","","","","","","","","","","","null","+","Fixation - long","","null","","","","","","","","","","","","",""
"","html-keyboard-response","471","482308","0.0-680.0","4j7k5fa0","1366","768","","","","","","","","","","","2634","If lff press LEFT | If drk press RIGHT","Inducer instructions",""," ","12","","","","","","","","","","","",""
"","html-keyboard-response","472","483069","0.0-681.0","4j7k5fa0","1366","768","","","","","","","","","","","null","+","Fixation - short","","null","","","","","","","","","","","","",""
"","html-keyboard-response","473","483536","0.0-682.0","4j7k5fa0","1366","768","","","","","","","","","","","464","lff","Diagnostic trial","","f","12","0","false","false","RIGHT","j","0","","LEFT","false","","",""
"","call-function","474","483538","0.0-684.0-0.0","4j7k5fa0","","","","","","","","","","","","","","","","","","","","","","","","","","","","","",""
"","html-keyboard-response","475","483849","0.0-684.0-1.0","4j7k5fa0","1366","768","","","","","","","","","","","null","Wrong","Feedback","","null","","","","","","","","","","","","",""
"","call-function","476","483850","0.0-684.0-2.0","4j7k5fa0","","","","","","","","","","","","","","","","","","","","","","","","","","","","","",""
"","html-keyboard-response","477","484603","0.0-685.0","4j7k5fa0","1366","768","","","","","","","","","","","null","+","Fixation - short","","null","","","","","","","","","","","","",""
"","html-keyboard-response","478","485621","0.0-686.0","4j7k5fa0","1366","768","","","","","","","","","","","1015","lff","Diagnostic trial","","j","12","1","false","false","RIGHT","j","1","","LEFT","false","","",""
"","html-keyboard-response","479","486387","0.0-689.0","4j7k5fa0","1366","768","","","","","","","","","","","null","+","Fixation - short","","null","","","","","","","","","","","","",""
"","html-keyboard-response","480","487145","0.0-690.0","4j7k5fa0","1366","768","","","","","","","","","","","755","drk","Diagnostic trial","","j","12","2","false","false","RIGHT","j","1","","RIGHT","true","","",""
"","html-keyboard-response","481","487902","0.0-693.0","4j7k5fa0","1366","768","","","","","","","","","","","null","+","Fixation - short","","null","","","","","","","","","","","","",""
"","html-keyboard-response","482","488833","0.0-694.0","4j7k5fa0","1366","768","","","","","","","","","","","928","lff","Diagnostic trial","","j","12","3","false","false","RIGHT","j","1","","LEFT","false","","",""
"","html-keyboard-response","483","489601","0.0-697.0","4j7k5fa0","1366","768","","","","","","","","","","","null","+","Fixation - short","","null","","","","","","","","","","","","",""
"","html-keyboard-response","484","490550","0.0-698.0","4j7k5fa0","1366","768","","","","","","","","","","","947","drk","Diagnostic trial","","f","12","4","false","true","LEFT","f","1","","RIGHT","false","","",""
"","html-keyboard-response","485","491317","0.0-701.0","4j7k5fa0","1366","768","","","","","","","","","","","null","+","Fixation - short","","null","","","","","","","","","","","","",""
"","html-keyboard-response","486","492209","0.0-702.0","4j7k5fa0","1366","768","","","","","","","","","","","889","lff","Diagnostic trial","","j","12","5","false","false","RIGHT","j","1","","LEFT","false","","",""
"","html-keyboard-response","487","492968","0.0-705.0","4j7k5fa0","1366","768","","","","","","","","","","","null","+","Fixation - short","","null","","","","","","","","","","","","",""
"","html-keyboard-response","488","493729","0.0-706.0","4j7k5fa0","1366","768","","","","","","","","","","","758","drk","Diagnostic trial","","j","12","6","false","false","RIGHT","j","1","","RIGHT","true","","",""
"","html-keyboard-response","489","494485","0.0-709.0","4j7k5fa0","1366","768","","","","","","","","","","","null","+","Fixation - short","","null","","","","","","","","","","","","",""
"","html-keyboard-response","490","495045","0.0-710.0","4j7k5fa0","1366","768","","","","","","","","","","","558","drk","Diagnostic trial","","j","12","7","false","false","RIGHT","j","1","","RIGHT","true","","",""
"","html-keyboard-response","491","495801","0.0-713.0","4j7k5fa0","1366","768","","","","","","","","","","","null","+","Fixation - short","","null","","","","","","","","","","","","",""
"","html-keyboard-response","492","497182","0.0-714.0","4j7k5fa0","1366","768","","","","","","","","","","","1378","lff","Diagnostic trial","","j","12","8","false","false","RIGHT","j","1","","LEFT","false","","",""
"","html-keyboard-response","493","497935","0.0-717.0","4j7k5fa0","1366","768","","","","","","","","","","","null","+","Fixation - short","","null","","","","","","","","","","","","",""
"","html-keyboard-response","494","498527","0.0-718.0","4j7k5fa0","1366","768","","","","","","","","","","","589","lff","Diagnostic trial","","j","12","9","false","false","RIGHT","j","1","","LEFT","false","","",""
"","html-keyboard-response","495","499284","0.0-721.0","4j7k5fa0","1366","768","","","","","","","","","","","null","+","Fixation - short","","null","","","","","","","","","","","","",""
"","html-keyboard-response","496","499931","0.0-722.0","4j7k5fa0","1366","768","","","","","","","","","","","643","lff","Diagnostic trial","","f","12","10","false","true","LEFT","f","1","","LEFT","true","","",""
"","html-keyboard-response","497","500685","0.0-725.0","4j7k5fa0","1366","768","","","","","","","","","","","null","+","Fixation - short","","null","","","","","","","","","","","","",""
"","html-keyboard-response","498","501385","0.0-726.0","4j7k5fa0","1366","768","","","","","","","","","","","697","lff","Diagnostic trial","","j","12","11","false","false","RIGHT","j","1","","LEFT","false","","",""
"","html-keyboard-response","499","502139","0.0-729.0","4j7k5fa0","1366","768","","","","","","","","","","","null","+","Fixation - short","","null","","","","","","","","","","","","",""
"","html-keyboard-response","500","503498","0.0-730.0","4j7k5fa0","1366","768","","","","","","","","","","","1355","drk","Diagnostic trial","","f","12","12","false","true","LEFT","f","1","","RIGHT","false","","",""
"","html-keyboard-response","501","504251","0.0-733.0","4j7k5fa0","1366","768","","","","","","","","","","","null","+","Fixation - short","","null","","","","","","","","","","","","",""
"","html-keyboard-response","502","504900","0.0-734.0","4j7k5fa0","1366","768","","","","","","","","","","","647","drk","Diagnostic trial","","j","12","13","false","false","RIGHT","j","1","","RIGHT","true","","",""
"","html-keyboard-response","503","505667","0.0-737.0","4j7k5fa0","1366","768","","","","","","","","","","","null","+","Fixation - short","","null","","","","","","","","","","","","",""
"","html-keyboard-response","504","507088","0.0-738.0","4j7k5fa0","1366","768","","","","","","","","","","","1418","drk","Diagnostic trial","","f","12","14","false","true","LEFT","f","1","","RIGHT","false","","",""
"","html-keyboard-response","505","507850","0.0-741.0","4j7k5fa0","1366","768","","","","","","","","","","","null","+","Fixation - short","","null","","","","","","","","","","","","",""
"","html-keyboard-response","506","508916","0.0-742.0","4j7k5fa0","1366","768","","","","","","","","","","","1063","lff","Diagnostic trial","","j","12","15","false","false","RIGHT","j","1","","LEFT","false","","",""
"","html-keyboard-response","507","509683","0.0-745.0","4j7k5fa0","1366","768","","","","","","","","","","","null","+","Fixation - short","","null","","","","","","","","","","","","",""
"","html-keyboard-response","508","510932","0.0-746.0","4j7k5fa0","1366","768","","","","","","","","","","","1247","lff","Inducer trial","","j","12","","true","","","f","0","LEFT","","","","",""
"","call-function","509","510934","0.0-748.0-0.0","4j7k5fa0","","","","","","","","","","","","","","","","","","","","","","","","","","","","","",""
"","html-keyboard-response","510","511248","0.0-748.0-1.0","4j7k5fa0","1366","768","","","","","","","","","","","null","Wrong","Feedback","","null","","","","","","","","","","","","",""
"","call-function","511","511250","0.0-748.0-2.0","4j7k5fa0","","","","","","","","","","","","","","","","","","","","","","","","","","","","","",""
"","html-keyboard-response","512","512757","0.0-749.0","4j7k5fa0","1366","768","","","","","","","","","","","null","+","Fixation - long","","null","","","","","","","","","","","","",""
"","html-keyboard-response","513","515793","0.0-750.0","4j7k5fa0","1366","768","","","","","","","","","","","3033","If pbz press LEFT | If ebe press RIGHT","Inducer instructions",""," ","13","","","","","","","","","","","",""
"","html-keyboard-response","514","516550","0.0-751.0","4j7k5fa0","1366","768","","","","","","","","","","","null","+","Fixation - short","","null","","","","","","","","","","","","",""
"","html-keyboard-response","515","517334","0.0-752.0","4j7k5fa0","1366","768","","","","","","","","","","","781","pbz","Diagnostic trial","","f","13","0","false","false","RIGHT","j","0","","LEFT","false","","",""
