"value","trial_type","trial_index","time_elapsed","internal_node_id","id","width","height","webaudio","browser","browser_version","mobile","os","fullscreen","vsync_rate","webcam","microphone","view_history","rt","stimulus","trial_info","success","response","inducer_run","diagnostic_run","inducer_trial","italic","correct_diag_response_side","correct_response_key","correct_response","correct_indu_response_side","correct_inducer_response_side","congruent","accuracy","open_feedback","interactive"
"","call-function","0","2","0.0-0.0","pca52mry","","","","","","","","","","","","","","","","","","","","","","","","","","","","","",""
"","browser-check","1","995","0.0-1.0","pca52mry","1920","919","true","chrome","120.0.0","false","Windows 10","true","60.75","true","true","","","","","","","","","","","","","","","","","","",""
"","instructions","2","33876","0.0-2.0","pca52mry","","","","","","","","","","","","[{""page_index"":0,""viewing_time"":15861},{""page_index"":1,""viewing_time"":12303},{""page_index"":2,""viewing_time"":4715}]","32880","The experiment and consent","The experiment and consent","","","","","","","","","","","","","","",""
"","fullscreen","3","42565","0.0-3.0","pca52mry","1920","1080","","","","","","","","","","","7678","","Full screen","true","","","","","","","","","","","","","",""
"","instructions","4","68347","0.0-4.0","pca52mry","1920","1080","","","","","","","","","","[{""page_index"":0,""viewing_time"":17528},{""page_index"":1,""viewing_time"":8253}]","25781","Instructions","Basic overview explanation","","","","","","","","","","","","","","",""
"","html-keyboard-response","5","85887","0.0-5.0","pca52mry","1920","1080","","","","","","","","","","","16026","If italic press RIGHT | If upright press LEFT","Diagnostic instructions",""," ","","","","","","","","","","","","",""
"","html-keyboard-response","6","86641","0.0-6.0","pca52mry","1920","1080","","","","","","","","","","","null","+","Fixation - short","","null","","","","","","","","","","","","",""
"","html-keyboard-response","7","91832","0.0-7.0","pca52mry","1920","1080","","","","","","","","","","","5190","pph","Practice diganostic trial","","j","practice","0","false","0","LEFT","f","0","","","","","",""
"","call-function","8","91833","0.0-9.0-0.0","pca52mry","","","","","","","","","","","","","","","","","","","","","","","","","","","","","",""
"","html-keyboard-response","9","92147","0.0-9.0-1.0","pca52mry","1920","1080","","","","","","","","","","","null","Wrong","Feedback","","null","","","","","","","","","","","","",""
"","call-function","10","92148","0.0-9.0-2.0","pca52mry","","","","","","","","","","","","","","","","","","","","","","","","","","","","","",""
"","html-keyboard-response","11","92903","0.0-10.0","pca52mry","1920","1080","","","","","","","","","","","null","+","Fixation - short","","null","","","","","","","","","","","","",""
"","html-keyboard-response","12","94808","0.0-11.0","pca52mry","1920","1080","","","","","","","","","","","1904","guf","Practice diganostic trial","","f","practice","1","false","0","LEFT","f","1","","","","","",""
"","html-keyboard-response","13","95565","0.0-14.0","pca52mry","1920","1080","","","","","","","","","","","null","+","Fixation - short","","null","","","","","","","","","","","","",""
"","html-keyboard-response","14","96213","0.0-15.0","pca52mry","1920","1080","","","","","","","","","","","647","pph","Practice diganostic trial","","f","practice","2","false","0","LEFT","f","1","","","","","",""
"","html-keyboard-response","15","96965","0.0-18.0","pca52mry","1920","1080","","","","","","","","","","","null","+","Fixation - short","","null","","","","","","","","","","","","",""
"","html-keyboard-response","16","97469","0.0-19.0","pca52mry","1920","1080","","","","","","","","","","","503","guf","Practice diganostic trial","","f","practice","3","false","0","LEFT","f","1","","","","","",""
"","html-keyboard-response","17","98226","0.0-22.0","pca52mry","1920","1080","","","","","","","","","","","null","+","Fixation - short","","null","","","","","","","","","","","","",""
"","html-keyboard-response","18","98620","0.0-23.0","pca52mry","1920","1080","","","","","","","","","","","393","pph","Practice diganostic trial","","j","practice","4","false","1","RIGHT","j","1","","","","","",""
"","html-keyboard-response","19","99374","0.0-26.0","pca52mry","1920","1080","","","","","","","","","","","null","+","Fixation - short","","null","","","","","","","","","","","","",""
"","html-keyboard-response","20","99844","0.0-27.0","pca52mry","1920","1080","","","","","","","","","","","470","pph","Practice diganostic trial","","j","practice","5","false","1","RIGHT","j","1","","","","","",""
"","html-keyboard-response","21","100605","0.0-30.0","pca52mry","1920","1080","","","","","","","","","","","null","+","Fixation - short","","null","","","","","","","","","","","","",""
"","html-keyboard-response","22","101228","0.0-31.0","pca52mry","1920","1080","","","","","","","","","","","623","pph","Practice diganostic trial","","f","practice","6","false","0","LEFT","f","1","","","","","",""
"","html-keyboard-response","23","101981","0.0-34.0","pca52mry","1920","1080","","","","","","","","","","","null","+","Fixation - short","","null","","","","","","","","","","","","",""
"","html-keyboard-response","24","102381","0.0-35.0","pca52mry","1920","1080","","","","","","","","","","","399","pph","Practice diganostic trial","","f","practice","7","false","0","LEFT","f","1","","","","","",""
"","html-keyboard-response","25","103132","0.0-38.0","pca52mry","1920","1080","","","","","","","","","","","null","+","Fixation - short","","null","","","","","","","","","","","","",""
"","html-keyboard-response","26","103511","0.0-39.0","pca52mry","1920","1080","","","","","","","","","","","378","guf","Practice diganostic trial","","j","practice","8","false","1","RIGHT","j","1","","","","","",""
"","html-keyboard-response","27","104263","0.0-42.0","pca52mry","1920","1080","","","","","","","","","","","null","+","Fixation - short","","null","","","","","","","","","","","","",""
"","html-keyboard-response","28","104843","0.0-43.0","pca52mry","1920","1080","","","","","","","","","","","580","guf","Practice diganostic trial","","f","practice","9","false","0","LEFT","f","1","","","","","",""
"","html-keyboard-response","29","105599","0.0-46.0","pca52mry","1920","1080","","","","","","","","","","","null","+","Fixation - short","","null","","","","","","","","","","","","",""
"","html-keyboard-response","30","105982","0.0-47.0","pca52mry","1920","1080","","","","","","","","","","","383","pph","Practice diganostic trial","","j","practice","10","false","1","RIGHT","j","1","","","","","",""
"","html-keyboard-response","31","106738","0.0-50.0","pca52mry","1920","1080","","","","","","","","","","","null","+","Fixation - short","","null","","","","","","","","","","","","",""
"","html-keyboard-response","32","107216","0.0-51.0","pca52mry","1920","1080","","","","","","","","","","","477","guf","Practice diganostic trial","","f","practice","11","false","0","LEFT","f","1","","","","","",""
"","html-keyboard-response","33","107968","0.0-54.0","pca52mry","1920","1080","","","","","","","","","","","null","+","Fixation - short","","null","","","","","","","","","","","","",""
"","html-keyboard-response","34","108334","0.0-55.0","pca52mry","1920","1080","","","","","","","","","","","366","pph","Practice diganostic trial","","j","practice","12","false","1","RIGHT","j","1","","","","","",""
"","html-keyboard-response","35","109100","0.0-58.0","pca52mry","1920","1080","","","","","","","","","","","null","+","Fixation - short","","null","","","","","","","","","","","","",""
"","html-keyboard-response","36","109455","0.0-59.0","pca52mry","1920","1080","","","","","","","","","","","354","pph","Practice diganostic trial","","j","practice","13","false","1","RIGHT","j","1","","","","","",""
"","html-keyboard-response","37","110211","0.0-62.0","pca52mry","1920","1080","","","","","","","","","","","null","+","Fixation - short","","null","","","","","","","","","","","","",""
"","html-keyboard-response","38","110528","0.0-63.0","pca52mry","1920","1080","","","","","","","","","","","317","guf","Practice diganostic trial","","j","practice","14","false","1","RIGHT","j","1","","","","","",""
"","html-keyboard-response","39","111294","0.0-66.0","pca52mry","1920","1080","","","","","","","","","","","null","+","Fixation - short","","null","","","","","","","","","","","","",""
"","html-keyboard-response","40","111672","0.0-67.0","pca52mry","1920","1080","","","","","","","","","","","377","guf","Practice diganostic trial","","j","practice","15","false","1","RIGHT","j","1","","","","","",""
"","html-keyboard-response","41","112435","0.0-70.0","pca52mry","1920","1080","","","","","","","","","","","null","+","Fixation - short","","null","","","","","","","","","","","","",""
"","instructions","42","125560","0.0-71.0","pca52mry","1920","1080","","","","","","","","","","[{""page_index"":0,""viewing_time"":13124}]","13124","Instructions","Final experiment explanation","","","","","","","","","","","","","","",""
"","html-keyboard-response","43","135055","0.0-72.0","pca52mry","1920","1080","","","","","","","","","","","7992","If vle press RIGHT | If ori press LEFT","Practice inducer instructions",""," ","practice","","","","","","","","","","","",""
"","html-keyboard-response","44","135690","0.0-73.0","pca52mry","1920","1080","","","","","","","","","","","634","","Practice inducer trial","","j","practice","","true","","","j","1","RIGHT","","","","",""
"","html-keyboard-response","45","136453","0.0-76.0","pca52mry","1920","1080","","","","","","","","","","","null","+","Fixation - short","","null","","","","","","","","","","","","",""
"","html-keyboard-response","46","143313","0.0-77.0","pca52mry","1920","1080","","","","","","","","","","","6860","If frn press RIGHT | If rif press LEFT","Practice inducer instructions",""," ","practice","","","","","","","","","","","",""
"","html-keyboard-response","47","144073","0.0-78.0","pca52mry","1920","1080","","","","","","","","","","","759","","Practice inducer trial","","f","practice","","true","","","f","1","LEFT","","","","",""
"","html-keyboard-response","48","144836","0.0-81.0","pca52mry","1920","1080","","","","","","","","","","","null","+","Fixation - short","","null","","","","","","","","","","","","",""
"","html-keyboard-response","49","148189","0.0-82.0","pca52mry","1920","1080","","","","","","","","","","","3352","If ivr press RIGHT | If cpt press LEFT","Practice inducer instructions",""," ","practice","","","","","","","","","","","",""
"","html-keyboard-response","50","149004","0.0-83.0","pca52mry","1920","1080","","","","","","","","","","","814","","Practice inducer trial","","f","practice","","true","","","f","1","LEFT","","","","",""
"","html-keyboard-response","51","149769","0.0-86.0","pca52mry","1920","1080","","","","","","","","","","","null","+","Fixation - short","","null","","","","","","","","","","","","",""
"","html-keyboard-response","52","151415","0.0-87.0","pca52mry","1920","1080","","","","","","","","","","","1645","If lpn press RIGHT | If mda press LEFT","Practice inducer instructions",""," ","practice","","","","","","","","","","","",""
"","html-keyboard-response","53","152764","0.0-88.0","pca52mry","1920","1080","","","","","","","","","","","1349","","Practice inducer trial","","j","practice","","true","","","j","1","RIGHT","","","","",""
"","html-keyboard-response","54","153518","0.0-91.0","pca52mry","1920","1080","","","","","","","","","","","null","+","Fixation - short","","null","","","","","","","","","","","","",""
"","html-keyboard-response","55","154844","0.0-92.0","pca52mry","1920","1080","","","","","","","","","","","1325","If adj press RIGHT | If wrz press LEFT","Practice inducer instructions",""," ","practice","","","","","","","","","","","",""
"","html-keyboard-response","56","155837","0.0-93.0","pca52mry","1920","1080","","","","","","","","","","","992","","Practice inducer trial","","j","practice","","true","","","j","1","RIGHT","","","","",""
"","html-keyboard-response","57","156601","0.0-96.0","pca52mry","1920","1080","","","","","","","","","","","null","+","Fixation - short","","null","","","","","","","","","","","","",""
"","html-keyboard-response","58","158219","0.0-97.0","pca52mry","1920","1080","","","","","","","","","","","1617","If eht press RIGHT | If quy press LEFT","Practice inducer instructions",""," ","practice","","","","","","","","","","","",""
"","html-keyboard-response","59","159063","0.0-98.0","pca52mry","1920","1080","","","","","","","","","","","844","","Practice inducer trial","","f","practice","","true","","","f","1","LEFT","","","","",""
"","html-keyboard-response","60","159821","0.0-101.0","pca52mry","1920","1080","","","","","","","","","","","null","+","Fixation - short","","null","","","","","","","","","","","","",""
"","html-keyboard-response","61","176899","0.0-102.0","pca52mry","1920","1080","","","","","","","","","","","17078","End practice","End of practice",""," ","","","","","","","","","","","","",""
"","html-keyboard-response","62","178414","0.0-103.0","pca52mry","1920","1080","","","","","","","","","","","null","+","Fixation - long","","null","","","","","","","","","","","","",""
"","html-keyboard-response","63","182601","0.0-104.0","pca52mry","1920","1080","","","","","","","","","","","4186","If hlb press RIGHT | If ois press LEFT","Inducer instructions",""," ","0","","","","","","","","","","","",""
"","html-keyboard-response","64","183353","0.0-105.0","pca52mry","1920","1080","","","","","","","","","","","null","+","Fixation - short","","null","","","","","","","","","","","","",""
"","html-keyboard-response","65","185364","0.0-106.0","pca52mry","1920","1080","","","","","","","","","","","null","ois","Diagnostic trial","","null","0","0","false","false","LEFT","f","NaN","","RIGHT","false","","",""
"","call-function","66","185365","0.0-107.0-0.0","pca52mry","","","","","","","","","","","","","","","","","","","","","","","","","","","","","",""
"","html-keyboard-response","67","185669","0.0-107.0-1.0","pca52mry","1920","1080","","","","","","","","","","","null","Slow","Feedback","","null","","","","","","","","","","","","",""
"","call-function","68","185669","0.0-107.0-2.0","pca52mry","","","","","","","","","","","","","","","","","","","","","","","","","","","","","",""
"","html-keyboard-response","69","186428","0.0-109.0","pca52mry","1920","1080","","","","","","","","","","","null","+","Fixation - short","","null","","","","","","","","","","","","",""
"","html-keyboard-response","70","187064","0.0-110.0","pca52mry","1920","1080","","","","","","","","","","","635","hlb","Diagnostic trial","","j","0","1","false","true","RIGHT","j","1","","LEFT","false","","",""
"","html-keyboard-response","71","187822","0.0-113.0","pca52mry","1920","1080","","","","","","","","","","","null","+","Fixation - short","","null","","","","","","","","","","","","",""
"","html-keyboard-response","72","188646","0.0-114.0","pca52mry","1920","1080","","","","","","","","","","","823","ois","Diagnostic trial","","f","0","2","false","false","LEFT","f","1","","RIGHT","false","","",""
"","html-keyboard-response","73","189407","0.0-117.0","pca52mry","1920","1080","","","","","","","","","","","null","+","Fixation - short","","null","","","","","","","","","","","","",""
"","html-keyboard-response","74","190383","0.0-118.0","pca52mry","1920","1080","","","","","","","","","","","975","ois","Diagnostic trial","","j","0","3","false","true","RIGHT","j","1","","RIGHT","true","","",""
"","html-keyboard-response","75","191137","0.0-121.0","pca52mry","1920","1080","","","","","","","","","","","null","+","Fixation - short","","null","","","","","","","","","","","","",""
"","html-keyboard-response","76","191974","0.0-122.0","pca52mry","1920","1080","","","","","","","","","","","836","ois","Diagnostic trial","","f","0","4","false","false","LEFT","f","1","","RIGHT","false","","",""
"","html-keyboard-response","77","192732","0.0-125.0","pca52mry","1920","1080","","","","","","","","","","","null","+","Fixation - short","","null","","","","","","","","","","","","",""
"","html-keyboard-response","78","193437","0.0-126.0","pca52mry","1920","1080","","","","","","","","","","","704","hlb","Diagnostic trial","","j","0","5","false","true","RIGHT","j","1","","LEFT","false","","",""
"","html-keyboard-response","79","194202","0.0-129.0","pca52mry","1920","1080","","","","","","","","","","","null","+","Fixation - short","","null","","","","","","","","","","","","",""
"","html-keyboard-response","80","195211","0.0-130.0","pca52mry","1920","1080","","","","","","","","","","","1009","ois","Diagnostic trial","","j","0","6","false","true","RIGHT","j","1","","RIGHT","true","","",""
"","html-keyboard-response","81","195973","0.0-133.0","pca52mry","1920","1080","","","","","","","","","","","null","+","Fixation - short","","null","","","","","","","","","","","","",""
"","html-keyboard-response","82","196713","0.0-134.0","pca52mry","1920","1080","","","","","","","","","","","740","hlb","Diagnostic trial","","j","0","7","false","true","RIGHT","j","1","","LEFT","false","","",""
"","html-keyboard-response","83","197477","0.0-137.0","pca52mry","1920","1080","","","","","","","","","","","null","+","Fixation - short","","null","","","","","","","","","","","","",""
"","html-keyboard-response","84","198133","0.0-138.0","pca52mry","1920","1080","","","","","","","","","","","655","hlb","Diagnostic trial","","f","0","8","false","false","LEFT","f","1","","LEFT","true","","",""
"","html-keyboard-response","85","198895","0.0-141.0","pca52mry","1920","1080","","","","","","","","","","","null","+","Fixation - short","","null","","","","","","","","","","","","",""
"","html-keyboard-response","86","199825","0.0-142.0","pca52mry","1920","1080","","","","","","","","","","","929","hlb","Diagnostic trial","","j","0","9","false","true","RIGHT","j","1","","LEFT","false","","",""
"","html-keyboard-response","87","200584","0.0-145.0","pca52mry","1920","1080","","","","","","","","","","","null","+","Fixation - short","","null","","","","","","","","","","","","",""
"","html-keyboard-response","88","201712","0.0-146.0","pca52mry","1920","1080","","","","","","","","","","","1127","hlb","Diagnostic trial","","f","0","10","false","false","LEFT","f","1","","LEFT","true","","",""
"","html-keyboard-response","89","202479","0.0-149.0","pca52mry","1920","1080","","","","","","","","","","","null","+","Fixation - short","","null","","","","","","","","","","","","",""
"","html-keyboard-response","90","203198","0.0-150.0","pca52mry","1920","1080","","","","","","","","","","","718","hlb","Diagnostic trial","","j","0","11","false","true","RIGHT","j","1","","LEFT","false","","",""
"","html-keyboard-response","91","203949","0.0-153.0","pca52mry","1920","1080","","","","","","","","","","","null","+","Fixation - short","","null","","","","","","","","","","","","",""
"","html-keyboard-response","92","204671","0.0-154.0","pca52mry","1920","1080","","","","","","","","","","","721","ois","Diagnostic trial","","j","0","12","false","true","RIGHT","j","1","","RIGHT","true","","",""
"","html-keyboard-response","93","205431","0.0-157.0","pca52mry","1920","1080","","","","","","","","","","","null","+","Fixation - short","","null","","","","","","","","","","","","",""
"","html-keyboard-response","94","206054","0.0-158.0","pca52mry","1920","1080","","","","","","","","","","","622","hlb","Diagnostic trial","","f","0","13","false","false","LEFT","f","1","","LEFT","true","","",""
"","html-keyboard-response","95","206807","0.0-161.0","pca52mry","1920","1080","","","","","","","","","","","null","+","Fixation - short","","null","","","","","","","","","","","","",""
"","html-keyboard-response","96","208002","0.0-162.0","pca52mry","1920","1080","","","","","","","","","","","1194","ois","Diagnostic trial","","f","0","14","false","false","LEFT","f","1","","RIGHT","false","","",""
"","html-keyboard-response","97","208756","0.0-165.0","pca52mry","1920","1080","","","","","","","","","","","null","+","Fixation - short","","null","","","","","","","","","","","","",""
"","html-keyboard-response","98","210628","0.0-166.0","pca52mry","1920","1080","","","","","","","","","","","1871","hlb","Inducer trial","","j","0","","true","","","j","1","RIGHT","","","","",""
"","html-keyboard-response","99","212139","0.0-169.0","pca52mry","1920","1080","","","","","","","","","","","null","+","Fixation - long","","null","","","","","","","","","","","","",""
"","html-keyboard-response","100","215298","0.0-170.0","pca52mry","1920","1080","","","","","","","","","","","3158","If aor press RIGHT | If ndm press LEFT","Inducer instructions",""," ","1","","","","","","","","","","","",""
"","html-keyboard-response","101","216059","0.0-171.0","pca52mry","1920","1080","","","","","","","","","","","null","+","Fixation - short","","null","","","","","","","","","","","","",""
"","html-keyboard-response","102","217177","0.0-172.0","pca52mry","1920","1080","","","","","","","","","","","1118","aor","Diagnostic trial","","j","1","0","false","true","RIGHT","j","1","","LEFT","false","","",""
"","html-keyboard-response","103","217929","0.0-175.0","pca52mry","1920","1080","","","","","","","","","","","null","+","Fixation - short","","null","","","","","","","","","","","","",""
"","html-keyboard-response","104","218621","0.0-176.0","pca52mry","1920","1080","","","","","","","","","","","692","aor","Diagnostic trial","","f","1","1","false","false","LEFT","f","1","","LEFT","true","","",""
"","html-keyboard-response","105","219380","0.0-179.0","pca52mry","1920","1080","","","","","","","","","","","null","+","Fixation - short","","null","","","","","","","","","","","","",""
"","html-keyboard-response","106","220081","0.0-180.0","pca52mry","1920","1080","","","","","","","","","","","700","aor","Diagnostic trial","","j","1","2","false","true","RIGHT","j","1","","LEFT","false","","",""
"","html-keyboard-response","107","220839","0.0-183.0","pca52mry","1920","1080","","","","","","","","","","","null","+","Fixation - short","","null","","","","","","","","","","","","",""
"","html-keyboard-response","108","221518","0.0-184.0","pca52mry","1920","1080","","","","","","","","","","","679","aor","Diagnostic trial","","j","1","3","false","true","RIGHT","j","1","","LEFT","false","","",""
"","html-keyboard-response","109","222270","0.0-187.0","pca52mry","1920","1080","","","","","","","","","","","null","+","Fixation - short","","null","","","","","","","","","","","","",""
"","html-keyboard-response","110","222659","0.0-188.0","pca52mry","1920","1080","","","","","","","","","","","389","ndm","Diagnostic trial","","f","1","4","false","false","LEFT","f","1","","RIGHT","false","","",""
"","html-keyboard-response","111","223415","0.0-191.0","pca52mry","1920","1080","","","","","","","","","","","null","+","Fixation - short","","null","","","","","","","","","","","","",""
"","html-keyboard-response","112","224006","0.0-192.0","pca52mry","1920","1080","","","","","","","","","","","591","aor","Diagnostic trial","","j","1","5","false","true","RIGHT","j","1","","LEFT","false","","",""
"","html-keyboard-response","113","224773","0.0-195.0","pca52mry","1920","1080","","","","","","","","","","","null","+","Fixation - short","","null","","","","","","","","","","","","",""
"","html-keyboard-response","114","225885","0.0-196.0","pca52mry","1920","1080","","","","","","","","","","","1111","ndm","Diagnostic trial","","j","1","6","false","true","RIGHT","j","1","","RIGHT","true","","",""
"","html-keyboard-response","115","226638","0.0-199.0","pca52mry","1920","1080","","","","","","","","","","","null","+","Fixation - short","","null","","","","","","","","","","","","",""
"","html-keyboard-response","116","227388","0.0-200.0","pca52mry","1920","1080","","","","","","","","","","","749","aor","Diagnostic trial","","f","1","7","false","false","LEFT","f","1","","LEFT","true","","",""
"","html-keyboard-response","117","228139","0.0-203.0","pca52mry","1920","1080","","","","","","","","","","","null","+","Fixation - short","","null","","","","","","","","","","","","",""
"","html-keyboard-response","118","229234","0.0-204.0","pca52mry","1920","1080","","","","","","","","","","","1095","aor","Diagnostic trial","","f","1","8","false","false","LEFT","f","1","","LEFT","true","","",""
"","html-keyboard-response","119","229987","0.0-207.0","pca52mry","1920","1080","","","","","","","","","","","null","+","Fixation - short","","null","","","","","","","","","","","","",""
"","html-keyboard-response","120","230618","0.0-208.0","pca52mry","1920","1080","","","","","","","","","","","631","aor","Diagnostic trial","","f","1","9","false","false","LEFT","f","1","","LEFT","true","","",""
"","html-keyboard-response","121","231379","0.0-211.0","pca52mry","1920","1080","","","","","","","","","","","null","+","Fixation - short","","null","","","","","","","","","","","","",""
"","html-keyboard-response","122","231920","0.0-212.0","pca52mry","1920","1080","","","","","","","","","","","540","ndm","Diagnostic trial","","j","1","10","false","true","RIGHT","j","1","","RIGHT","true","","",""
"","html-keyboard-response","123","232685","0.0-215.0","pca52mry","1920","1080","","","","","","","","","","","null","+","Fixation - short","","null","","","","","","","","","","","","",""
"","html-keyboard-response","124","233424","0.0-216.0","pca52mry","1920","1080","","","","","","","","","","","738","ndm","Diagnostic trial","","j","1","11","false","true","RIGHT","j","1","","RIGHT","true","","",""
"","html-keyboard-response","125","234182","0.0-219.0","pca52mry","1920","1080","","","","","","","","","","","null","+","Fixation - short","","null","","","","","","","","","","","","",""
"","html-keyboard-response","126","234917","0.0-220.0","pca52mry","1920","1080","","","","","","","","","","","735","aor","Diagnostic trial","","j","1","12","false","true","RIGHT","j","1","","LEFT","false","","",""
"","html-keyboard-response","127","235676","0.0-223.0","pca52mry","1920","1080","","","","","","","","","","","null","+","Fixation - short","","null","","","","","","","","","","","","",""
"","html-keyboard-response","128","236476","0.0-224.0","pca52mry","1920","1080","","","","","","","","","","","799","ndm","Diagnostic trial","","f","1","13","false","false","LEFT","f","1","","RIGHT","false","","",""
"","html-keyboard-response","129","237234","0.0-227.0","pca52mry","1920","1080","","","","","","","","","","","null","+","Fixation - short","","null","","","","","","","","","","","","",""
"","html-keyboard-response","130","237771","0.0-228.0","pca52mry","1920","1080","","","","","","","","","","","536","ndm","Inducer trial","","f","1","","true","","","f","1","LEFT","","","","",""
"","html-keyboard-response","131","239274","0.0-231.0","pca52mry","1920","1080","","","","","","","","","","","null","+","Fixation - long","","null","","","","","","","","","","","","",""
"","html-keyboard-response","132","241129","0.0-232.0","pca52mry","1920","1080","","","","","","","","","","","1855","If fuc press RIGHT | If amb press LEFT","Inducer instructions",""," ","2","","","","","","","","","","","",""
"","html-keyboard-response","133","241891","0.0-233.0","pca52mry","1920","1080","","","","","","","","","","","null","+","Fixation - short","","null","","","","","","","","","","","","",""
"","html-keyboard-response","134","242709","0.0-234.0","pca52mry","1920","1080","","","","","","","","","","","818","fuc","Diagnostic trial","","j","2","0","false","true","RIGHT","j","1","","LEFT","false","","",""
"","html-keyboard-response","135","243472","0.0-237.0","pca52mry","1920","1080","","","","","","","","","","","null","+","Fixation - short","","null","","","","","","","","","","","","",""
"","html-keyboard-response","136","243948","0.0-238.0","pca52mry","1920","1080","","","","","","","","","","","475","fuc","Diagnostic trial","","j","2","1","false","true","RIGHT","j","1","","LEFT","false","","",""
"","html-keyboard-response","137","244704","0.0-241.0","pca52mry","1920","1080","","","","","","","","","","","null","+","Fixation - short","","null","","","","","","","","","","","","",""
"","html-keyboard-response","138","245131","0.0-242.0","pca52mry","1920","1080","","","","","","","","","","","426","fuc","Diagnostic trial","","j","2","2","false","true","RIGHT","j","1","","LEFT","false","","",""
"","html-keyboard-response","139","245897","0.0-245.0","pca52mry","1920","1080","","","","","","","","","","","null","+","Fixation - short","","null","","","","","","","","","","","","",""
"","html-keyboard-response","140","246628","0.0-246.0","pca52mry","1920","1080","","","","","","","","","","","730","amb","Diagnostic trial","","j","2","3","false","true","RIGHT","j","1","","RIGHT","true","","",""
"","html-keyboard-response","141","247385","0.0-249.0","pca52mry","1920","1080","","","","","","","","","","","null","+","Fixation - short","","null","","","","","","","","","","","","",""
"","html-keyboard-response","142","248325","0.0-250.0","pca52mry","1920","1080","","","","","","","","","","","940","fuc","Diagnostic trial","","j","2","4","false","true","RIGHT","j","1","","LEFT","false","","",""
"","html-keyboard-response","143","249085","0.0-253.0","pca52mry","1920","1080","","","","","","","","","","","null","+","Fixation - short","","null","","","","","","","","","","","","",""
"","html-keyboard-response","144","249773","0.0-254.0","pca52mry","1920","1080","","","","","","","","","","","688","amb","Diagnostic trial","","f","2","5","false","false","LEFT","f","1","","RIGHT","false","","",""
"","html-keyboard-response","145","250532","0.0-257.0","pca52mry","1920","1080","","","","","","","","","","","null","+","Fixation - short","","null","","","","","","","","","","","","",""
"","html-keyboard-response","146","251165","0.0-258.0","pca52mry","1920","1080","","","","","","","","","","","632","amb","Diagnostic trial","","f","2","6","false","false","LEFT","f","1","","RIGHT","false","","",""
"","html-keyboard-response","147","251922","0.0-261.0","pca52mry","1920","1080","","","","","","","","","","","null","+","Fixation - short","","null","","","","","","","","","","","","",""
"","html-keyboard-response","148","252493","0.0-262.0","pca52mry","1920","1080","","","","","","","","","","","571","fuc","Diagnostic trial","","j","2","7","false","true","RIGHT","j","1","","LEFT","false","","",""
"","html-keyboard-response","149","253244","0.0-265.0","pca52mry","1920","1080","","","","","","","","","","","null","+","Fixation - short","","null","","","","","","","","","","","","",""
"","html-keyboard-response","150","253964","0.0-266.0","pca52mry","1920","1080","","","","","","","","","","","719","amb","Diagnostic trial","","j","2","8","false","true","RIGHT","j","1","","RIGHT","true","","",""
"","html-keyboard-response","151","254715","0.0-269.0","pca52mry","1920","1080","","","","","","","","","","","null","+","Fixation - short","","null","","","","","","","","","","","","",""
"","html-keyboard-response","152","255218","0.0-270.0","pca52mry","1920","1080","","","","","","","","","","","502","fuc","Diagnostic trial","","j","2","9","false","true","RIGHT","j","1","","LEFT","false","","",""
"","html-keyboard-response","153","255982","0.0-273.0","pca52mry","1920","1080","","","","","","","","","","","null","+","Fixation - short","","null","","","","","","","","","","","","",""
"","html-keyboard-response","154","256481","0.0-274.0","pca52mry","1920","1080","","","","","","","","","","","499","fuc","Diagnostic trial","","j","2","10","false","true","RIGHT","j","1","","LEFT","false","","",""
"","html-keyboard-response","155","257244","0.0-277.0","pca52mry","1920","1080","","","","","","","","","","","null","+","Fixation - short","","null","","","","","","","","","","","","",""
"","html-keyboard-response","156","257943","0.0-278.0","pca52mry","1920","1080","","","","","","","","","","","698","fuc","Diagnostic trial","","f","2","11","false","false","LEFT","f","1","","LEFT","true","","",""
"","html-keyboard-response","157","258710","0.0-281.0","pca52mry","1920","1080","","","","","","","","","","","null","+","Fixation - short","","null","","","","","","","","","","","","",""
"","html-keyboard-response","158","260137","0.0-282.0","pca52mry","1920","1080","","","","","","","","","","","1427","fuc","Inducer trial","","j","2","","true","","","j","1","RIGHT","","","","",""
"","html-keyboard-response","159","261639","0.0-285.0","pca52mry","1920","1080","","","","","","","","","","","null","+","Fixation - long","","null","","","","","","","","","","","","",""
"","html-keyboard-response","160","263419","0.0-286.0","pca52mry","1920","1080","","","","","","","","","","","1779","If snx press RIGHT | If hrc press LEFT","Inducer instructions",""," ","3","","","","","","","","","","","",""
"","html-keyboard-response","161","264177","0.0-287.0","pca52mry","1920","1080","","","","","","","","","","","null","+","Fixation - short","","null","","","","","","","","","","","","",""
"","html-keyboard-response","162","265355","0.0-288.0","pca52mry","1920","1080","","","","","","","","","","","1177","hrc","Diagnostic trial","","f","3","0","false","false","LEFT","f","1","","RIGHT","false","","",""
"","html-keyboard-response","163","266108","0.0-291.0","pca52mry","1920","1080","","","","","","","","","","","null","+","Fixation - short","","null","","","","","","","","","","","","",""
"","html-keyboard-response","164","266902","0.0-292.0","pca52mry","1920","1080","","","","","","","","","","","794","hrc","Diagnostic trial","","f","3","1","false","false","LEFT","f","1","","RIGHT","false","","",""
"","html-keyboard-response","165","267662","0.0-295.0","pca52mry","1920","1080","","","","","","","","","","","null","+","Fixation - short","","null","","","","","","","","","","","","",""
"","html-keyboard-response","166","268098","0.0-296.0","pca52mry","1920","1080","","","","","","","","","","","436","hrc","Diagnostic trial","","f","3","2","false","false","LEFT","f","1","","RIGHT","false","","",""
"","html-keyboard-response","167","268851","0.0-299.0","pca52mry","1920","1080","","","","","","","","","","","null","+","Fixation - short","","null","","","","","","","","","","","","",""
"","html-keyboard-response","168","269482","0.0-300.0","pca52mry","1920","1080","","","","","","","","","","","630","hrc","Diagnostic trial","","j","3","3","false","true","RIGHT","j","1","","RIGHT","true","","",""
"","html-keyboard-response","169","270238","0.0-303.0","pca52mry","1920","1080","","","","","","","","","","","null","+","Fixation - short","","null","","","","","","","","","","","","",""
"","html-keyboard-response","170","270959","0.0-304.0","pca52mry","1920","1080","","","","","","","","","","","721","hrc","Diagnostic trial","","j","3","4","false","true","RIGHT","j","1","","RIGHT","true","","",""
"","html-keyboard-response","171","271719","0.0-307.0","pca52mry","1920","1080","","","","","","","","","","","null","+","Fixation - short","","null","","","","","","","","","","","","",""
"","html-keyboard-response","172","273149","0.0-308.0","pca52mry","1920","1080","","","","","","","","","","","1429","snx","Inducer trial","","j","3","","true","","","j","1","RIGHT","","","","",""
"","html-keyboard-response","173","274659","0.0-311.0","pca52mry","1920","1080","","","","","","","","","","","null","+","Fixation - long","","null","","","","","","","","","","","","",""
"","html-keyboard-response","174","276366","0.0-312.0","pca52mry","1920","1080","","","","","","","","","","","1706","If mik press RIGHT | If anz press LEFT","Inducer instructions",""," ","4","","","","","","","","","","","",""
"","html-keyboard-response","175","277130","0.0-313.0","pca52mry","1920","1080","","","","","","","","","","","null","+","Fixation - short","","null","","","","","","","","","","","","",""
"","html-keyboard-response","176","277655","0.0-314.0","pca52mry","1920","1080","","","","","","","","","","","525","anz","Diagnostic trial","","j","4","0","false","true","RIGHT","j","1","","RIGHT","true","","",""
"","html-keyboard-response","177","278420","0.0-317.0","pca52mry","1920","1080","","","","","","","","","","","null","+","Fixation - short","","null","","","","","","","","","","","","",""
"","html-keyboard-response","178","278957","0.0-318.0","pca52mry","1920","1080","","","","","","","","","","","536","anz","Diagnostic trial","","j","4","1","false","true","RIGHT","j","1","","RIGHT","true","","",""
"","html-keyboard-response","179","279723","0.0-321.0","pca52mry","1920","1080","","","","","","","","","","","null","+","Fixation - short","","null","","","","","","","","","","","","",""
"","html-keyboard-response","180","280283","0.0-322.0","pca52mry","1920","1080","","","","","","","","","","","559","anz","Diagnostic trial","","f","4","2","false","false","LEFT","f","1","","RIGHT","false","","",""
"","html-keyboard-response","181","281037","0.0-325.0","pca52mry","1920","1080","","","","","","","","","","","null","+","Fixation - short","","null","","","","","","","","","","","","",""
"","html-keyboard-response","182","281773","0.0-326.0","pca52mry","1920","1080","","","","","","","","","","","736","anz","Diagnostic trial","","j","4","3","false","true","RIGHT","j","1","","RIGHT","true","","",""
"","html-keyboard-response","183","282532","0.0-329.0","pca52mry","1920","1080","","","","","","","","","","","null","+","Fixation - short","","null","","","","","","","","","","","","",""
"","html-keyboard-response","184","283082","0.0-330.0","pca52mry","1920","1080","","","","","","","","","","","549","mik","Diagnostic trial","","j","4","4","false","false","LEFT","f","0","","LEFT","true","","",""
"","call-function","185","283082","0.0-332.0-0.0","pca52mry","","","","","","","","","","","","","","","","","","","","","","","","","","","","","",""
"","html-keyboard-response","186","283385","0.0-332.0-1.0","pca52mry","1920","1080","","","","","","","","","","","null","Wrong","Feedback","","null","","","","","","","","","","","","",""
"","call-function","187","283386","0.0-332.0-2.0","pca52mry","","","","","","","","","","","","","","","","","","","","","","","","","","","","","",""
"","html-keyboard-response","188","284137","0.0-333.0","pca52mry","1920","1080","","","","","","","","","","","null","+","Fixation - short","","null","","","","","","","","","","","","",""
"","html-keyboard-response","189","284990","0.0-334.0","pca52mry","1920","1080","","","","","","","","","","","853","mik","Diagnostic trial","","j","4","5","false","true","RIGHT","j","1","","LEFT","false","","",""
"","html-keyboard-response","190","285746","0.0-337.0","pca52mry","1920","1080","","","","","","","","","","","null","+","Fixation - short","","null","","","","","","","","","","","","",""
"","html-keyboard-response","191","286808","0.0-338.0","pca52mry","1920","1080","","","","","","","","","","","1062","anz","Diagnostic trial","","j","4","6","false","true","RIGHT","j","1","","RIGHT","true","","",""
"","html-keyboard-response","192","287563","0.0-341.0","pca52mry","1920","1080","","","","","","","","","","","null","+","Fixation - short","","null","","","","","","","","","","","","",""
"","html-keyboard-response","193","288224","0.0-342.0","pca52mry","1920","1080","","","","","","","","","","","660","anz","Diagnostic trial","","f","4","7","false","false","LEFT","f","1","","RIGHT","false","","",""
"","html-keyboard-response","194","288983","0.0-345.0","pca52mry","1920","1080","","","","","","","","","","","null","+","Fixation - short","","null","","","","","","","","","","","","",""
"","html-keyboard-response","195","290358","0.0-346.0","pca52mry","1920","1080","","","","","","","","","","","1375","mik","Inducer trial","","j","4","","true","","","j","1","RIGHT","","","","",""
"","html-keyboard-response","196","291870","0.0-349.0","pca52mry","1920","1080","","","","","","","","","","","null","+","Fixation - long","","null","","","","","","","","","","","","",""
"","html-keyboard-response","197","292513","0.0-350.0","pca52mry","1920","1080","","","","","","","","","","","643","If uen press RIGHT | If geb press LEFT","Inducer instructions",""," ","5","","","","","","","","","","","",""
"","html-keyboard-response","198","293279","0.0-351.0","pca52mry","1920","1080","","","","","","","","","","","null","+","Fixation - short","","null","","","","","","","","","","","","",""
"","html-keyboard-response","199","294386","0.0-352.0","pca52mry","1920","1080","","","","","","","","","","","1106","uen","Diagnostic trial","","f","5","0","false","false","LEFT","f","1","","LEFT","true","","",""
"","html-keyboard-response","200","295142","0.0-355.0","pca52mry","1920","1080","","","","","","","","","","","null","+","Fixation - short","","null","","","","","","","","","","","","",""
"","html-keyboard-response","201","296261","0.0-356.0","pca52mry","1920","1080","","","","","","","","","","","1119","geb","Diagnostic trial","","j","5","1","false","true","RIGHT","j","1","","RIGHT","true","","",""
"","html-keyboard-response","202","297024","0.0-359.0","pca52mry","1920","1080","","","","","","","","","","","null","+","Fixation - short","","null","","","","","","","","","","","","",""
"","html-keyboard-response","203","297525","0.0-360.0","pca52mry","1920","1080","","","","","","","","","","","501","uen","Diagnostic trial","","f","5","2","false","false","LEFT","f","1","","LEFT","true","","",""
"","html-keyboard-response","204","298283","0.0-363.0","pca52mry","1920","1080","","","","","","","","","","","null","+","Fixation - short","","null","","","","","","","","","","","","",""
"","html-keyboard-response","205","299227","0.0-364.0","pca52mry","1920","1080","","","","","","","","","","","944","uen","Diagnostic trial","","j","5","3","false","true","RIGHT","j","1","","LEFT","false","","",""
"","html-keyboard-response","206","299986","0.0-367.0","pca52mry","1920","1080","","","","","","","","","","","null","+","Fixation - short","","null","","","","","","","","","","","","",""
"","html-keyboard-response","207","300388","0.0-368.0","pca52mry","1920","1080","","","","","","","","","","","402","uen","Diagnostic trial","","j","5","4","false","true","RIGHT","j","1","","LEFT","false","","",""
"","html-keyboard-response","208","301148","0.0-371.0","pca52mry","1920","1080","","","","","","","","","","","null","+","Fixation - short","","null","","","","","","","","","","","","",""
"","html-keyboard-response","209","301598","0.0-372.0","pca52mry","1920","1080","","","","","","","","","","","449","geb","Diagnostic trial","","j","5","5","false","true","RIGHT","j","1","","RIGHT","true","","",""
"","html-keyboard-response","210","302357","0.0-375.0","pca52mry","1920","1080","","","","","","","","","","","null","+","Fixation - short","","null","","","","","","","","","","","","",""
"","html-keyboard-response","211","303164","0.0-376.0","pca52mry","1920","1080","","","","","","","","","","","807","uen","Diagnostic trial","","f","5","6","false","false","LEFT","f","1","","LEFT","true","","",""
"","html-keyboard-response","212","303928","0.0-379.0","pca52mry","1920","1080","","","","","","","","","","","null","+","Fixation - short","","null","","","","","","","","","","","","",""
"","html-keyboard-response","213","304497","0.0-380.0","pca52mry","1920","1080","","","","","","","","","","","569","uen","Diagnostic trial","","f","5","7","false","false","LEFT","f","1","","LEFT","true","","",""
"","html-keyboard-response","214","305257","0.0-383.0","pca52mry","1920","1080","","","","","","","","","","","null","+","Fixation - short","","null","","","","","","","","","","","","",""
"","html-keyboard-response","215","305887","0.0-384.0","pca52mry","1920","1080","","","","","","","","","","","630","uen","Diagnostic trial","","j","5","8","false","true","RIGHT","j","1","","LEFT","false","","",""
"","html-keyboard-response","216","306644","0.0-387.0","pca52mry","1920","1080","","","","","","","","","","","null","+","Fixation - short","","null","","","","","","","","","","","","",""
"","html-keyboard-response","217","307253","0.0-388.0","pca52mry","1920","1080","","","","","","","","","","","608","uen","Diagnostic trial","","f","5","9","false","false","LEFT","f","1","","LEFT","true","","",""
"","html-keyboard-response","218","308016","0.0-391.0","pca52mry","1920","1080","","","","","","","","","","","null","+","Fixation - short","","null","","","","","","","","","","","","",""
"","html-keyboard-response","219","309217","0.0-392.0","pca52mry","1920","1080","","","","","","","","","","","1201","geb","Diagnostic trial","","f","5","10","false","false","LEFT","f","1","","RIGHT","false","","",""
"","html-keyboard-response","220","309971","0.0-395.0","pca52mry","1920","1080","","","","","","","","","","","null","+","Fixation - short","","null","","","","","","","","","","","","",""
"","html-keyboard-response","221","310635","0.0-396.0","pca52mry","1920","1080","","","","","","","","","","","664","uen","Diagnostic trial","","f","5","11","false","false","LEFT","f","1","","LEFT","true","","",""
"","html-keyboard-response","222","311399","0.0-399.0","pca52mry","1920","1080","","","","","","","","","","","null","+","Fixation - short","","null","","","","","","","","","","","","",""
"","html-keyboard-response","223","312568","0.0-400.0","pca52mry","1920","1080","","","","","","","","","","","1168","uen","Inducer trial","","j","5","","true","","","j","1","RIGHT","","","","",""
"","html-keyboard-response","224","314075","0.0-403.0","pca52mry","1920","1080","","","","","","","","","","","null","+","Fixation - long","","null","","","","","","","","","","","","",""
"","html-keyboard-response","225","314942","0.0-404.0","pca52mry","1920","1080","","","","","","","","","","","866","If pcm press RIGHT | If psl press LEFT","Inducer instructions",""," ","6","","","","","","","","","","","",""
"","html-keyboard-response","226","315695","0.0-405.0","pca52mry","1920","1080","","","","","","","","","","","null","+","Fixation - short","","null","","","","","","","","","","","","",""
"","html-keyboard-response","227","316461","0.0-406.0","pca52mry","1920","1080","","","","","","","","","","","765","pcm","Diagnostic trial","","f","6","0","false","false","LEFT","f","1","","LEFT","true","","",""
"","html-keyboard-response","228","317227","0.0-409.0","pca52mry","1920","1080","","","","","","","","","","","null","+","Fixation - short","","null","","","","","","","","","","","","",""
"","html-keyboard-response","229","318269","0.0-410.0","pca52mry","1920","1080","","","","","","","","","","","1042","psl","Diagnostic trial","","f","6","1","false","false","LEFT","f","1","","RIGHT","false","","",""
"","html-keyboard-response","230","319033","0.0-413.0","pca52mry","1920","1080","","","","","","","","","","","null","+","Fixation - short","","null","","","","","","","","","","","","",""
"","html-keyboard-response","231","319402","0.0-414.0","pca52mry","1920","1080","","","","","","","","","","","369","pcm","Diagnostic trial","","j","6","2","false","true","RIGHT","j","1","","LEFT","false","","",""
"","html-keyboard-response","232","320158","0.0-417.0","pca52mry","1920","1080","","","","","","","","","","","null","+","Fixation - short","","null","","","","","","","","","","","","",""
"","html-keyboard-response","233","320817","0.0-418.0","pca52mry","1920","1080","","","","","","","","","","","659","psl","Diagnostic trial","","f","6","3","false","false","LEFT","f","1","","RIGHT","false","","",""
"","html-keyboard-response","234","321577","0.0-421.0","pca52mry","1920","1080","","","","","","","","","","","null","+","Fixation - short","","null","","","","","","","","","","","","",""
"","html-keyboard-response","235","322193","0.0-422.0","pca52mry","1920","1080","","","","","","","","","","","615","psl","Diagnostic trial","","j","6","4","false","true","RIGHT","j","1","","RIGHT","true","","",""
"","html-keyboard-response","236","322950","0.0-425.0","pca52mry","1920","1080","","","","","","","","","","","null","+","Fixation - short","","null","","","","","","","","","","","","",""
"","html-keyboard-response","237","323522","0.0-426.0","pca52mry","1920","1080","","","","","","","","","","","571","pcm","Diagnostic trial","","j","6","5","false","true","RIGHT","j","1","","LEFT","false","","",""
"","html-keyboard-response","238","324281","0.0-429.0","pca52mry","1920","1080","","","","","","","","","","","null","+","Fixation - short","","null","","","","","","","","","","","","",""
"","html-keyboard-response","239","324641","0.0-430.0","pca52mry","1920","1080","","","","","","","","","","","360","pcm","Diagnostic trial","","j","6","6","false","true","RIGHT","j","1","","LEFT","false","","",""
"","html-keyboard-response","240","325407","0.0-433.0","pca52mry","1920","1080","","","","","","","","","","","null","+","Fixation - short","","null","","","","","","","","","","","","",""
"","html-keyboard-response","241","325882","0.0-434.0","pca52mry","1920","1080","","","","","","","","","","","475","psl","Diagnostic trial","","f","6","7","false","false","LEFT","f","1","","RIGHT","false","","",""
"","html-keyboard-response","242","326635","0.0-437.0","pca52mry","1920","1080","","","","","","","","","","","null","+","Fixation - short","","null","","","","","","","","","","","","",""
"","html-keyboard-response","243","327319","0.0-438.0","pca52mry","1920","1080","","","","","","","","","","","683","pcm","Diagnostic trial","","f","6","8","false","false","LEFT","f","1","","LEFT","true","","",""
"","html-keyboard-response","244","328080","0.0-441.0","pca52mry","1920","1080","","","","","","","","","","","null","+","Fixation - short","","null","","","","","","","","","","","","",""
"","html-keyboard-response","245","328772","0.0-442.0","pca52mry","1920","1080","","","","","","","","","","","692","pcm","Diagnostic trial","","f","6","9","false","false","LEFT","f","1","","LEFT","true","","",""
"","html-keyboard-response","246","329524","0.0-445.0","pca52mry","1920","1080","","","","","","","","","","","null","+","Fixation - short","","null","","","","","","","","","","","","",""
"","html-keyboard-response","247","330500","0.0-446.0","pca52mry","1920","1080","","","","","","","","","","","976","psl","Inducer trial","","f","6","","true","","","f","1","LEFT","","","","",""
"","html-keyboard-response","248","332015","0.0-449.0","pca52mry","1920","1080","","","","","","","","","","","null","+","Fixation - long","","null","","","","","","","","","","","","",""
"","html-keyboard-response","249","332725","0.0-450.0","pca52mry","1920","1080","","","","","","","","","","","709","If rpw press RIGHT | If pbz press LEFT","Inducer instructions",""," ","7","","","","","","","","","","","",""
"","html-keyboard-response","250","333484","0.0-451.0","pca52mry","1920","1080","","","","","","","","","","","null","+","Fixation - short","","null","","","","","","","","","","","","",""
"","html-keyboard-response","251","334129","0.0-452.0","pca52mry","1920","1080","","","","","","","","","","","645","pbz","Diagnostic trial","","j","7","0","false","true","RIGHT","j","1","","RIGHT","true","","",""
"","html-keyboard-response","252","334885","0.0-455.0","pca52mry","1920","1080","","","","","","","","","","","null","+","Fixation - short","","null","","","","","","","","","","","","",""
"","html-keyboard-response","253","335343","0.0-456.0","pca52mry","1920","1080","","","","","","","","","","","458","rpw","Diagnostic trial","","j","7","1","false","true","RIGHT","j","1","","LEFT","false","","",""
"","html-keyboard-response","254","336108","0.0-459.0","pca52mry","1920","1080","","","","","","","","","","","null","+","Fixation - short","","null","","","","","","","","","","","","",""
"","html-keyboard-response","255","336573","0.0-460.0","pca52mry","1920","1080","","","","","","","","","","","464","rpw","Diagnostic trial","","f","7","2","false","false","LEFT","f","1","","LEFT","true","","",""
"","html-keyboard-response","256","337337","0.0-463.0","pca52mry","1920","1080","","","","","","","","","","","null","+","Fixation - short","","null","","","","","","","","","","","","",""
"","html-keyboard-response","257","337841","0.0-464.0","pca52mry","1920","1080","","","","","","","","","","","503","pbz","Diagnostic trial","","j","7","3","false","true","RIGHT","j","1","","RIGHT","true","","",""
"","html-keyboard-response","258","338604","0.0-467.0","pca52mry","1920","1080","","","","","","","","","","","null","+","Fixation - short","","null","","","","","","","","","","","","",""
"","html-keyboard-response","259","339011","0.0-468.0","pca52mry","1920","1080","","","","","","","","","","","406","pbz","Diagnostic trial","","j","7","4","false","true","RIGHT","j","1","","RIGHT","true","","",""
"","html-keyboard-response","260","339766","0.0-471.0","pca52mry","1920","1080","","","","","","","","","","","null","+","Fixation - short","","null","","","","","","","","","","","","",""
"","html-keyboard-response","261","340424","0.0-472.0","pca52mry","1920","1080","","","","","","","","","","","657","rpw","Diagnostic trial","","f","7","5","false","false","LEFT","f","1","","LEFT","true","","",""
"","html-keyboard-response","262","341186","0.0-475.0","pca52mry","1920","1080","","","","","","","","","","","null","+","Fixation - short","","null","","","","","","","","","","","","",""
"","html-keyboard-response","263","341733","0.0-476.0","pca52mry","1920","1080","","","","","","","","","","","547","rpw","Diagnostic trial","","f","7","6","false","false","LEFT","f","1","","LEFT","true","","",""
"","html-keyboard-response","264","342495","0.0-479.0","pca52mry","1920","1080","","","","","","","","","","","null","+","Fixation - short","","null","","","","","","","","","","","","",""
"","html-keyboard-response","265","343098","0.0-480.0","pca52mry","1920","1080","","","","","","","","","","","603","rpw","Diagnostic trial","","j","7","7","false","true","RIGHT","j","1","","LEFT","false","","",""
"","html-keyboard-response","266","343853","0.0-483.0","pca52mry","1920","1080","","","","","","","","","","","null","+","Fixation - short","","null","","","","","","","","","","","","",""
"","html-keyboard-response","267","344510","0.0-484.0","pca52mry","1920","1080","","","","","","","","","","","657","rpw","Diagnostic trial","","f","7","8","false","false","LEFT","f","1","","LEFT","true","","",""
"","html-keyboard-response","268","345266","0.0-487.0","pca52mry","1920","1080","","","","","","","","","","","null","+","Fixation - short","","null","","","","","","","","","","","","",""
"","html-keyboard-response","269","345807","0.0-488.0","pca52mry","1920","1080","","","","","","","","","","","541","rpw","Diagnostic trial","","j","7","9","false","true","RIGHT","j","1","","LEFT","false","","",""
"","html-keyboard-response","270","346558","0.0-491.0","pca52mry","1920","1080","","","","","","","","","","","null","+","Fixation - short","","null","","","","","","","","","","","","",""
"","html-keyboard-response","271","347297","0.0-492.0","pca52mry","1920","1080","","","","","","","","","","","739","rpw","Diagnostic trial","","f","7","10","false","false","LEFT","f","1","","LEFT","true","","",""
"","html-keyboard-response","272","348062","0.0-495.0","pca52mry","1920","1080","","","","","","","","","","","null","+","Fixation - short","","null","","","","","","","","","","","","",""
"","html-keyboard-response","273","348923","0.0-496.0","pca52mry","1920","1080","","","","","","","","","","","860","pbz","Diagnostic trial","","f","7","11","false","false","LEFT","f","1","","RIGHT","false","","",""
"","html-keyboard-response","274","349677","0.0-499.0","pca52mry","1920","1080","","","","","","","","","","","null","+","Fixation - short","","null","","","","","","","","","","","","",""
"","html-keyboard-response","275","350600","0.0-500.0","pca52mry","1920","1080","","","","","","","","","","","922","pbz","Diagnostic trial","","f","7","12","false","false","LEFT","f","1","","RIGHT","false","","",""
"","html-keyboard-response","276","351353","0.0-503.0","pca52mry","1920","1080","","","","","","","","","","","null","+","Fixation - short","","null","","","","","","","","","","","","",""
"","html-keyboard-response","277","351955","0.0-504.0","pca52mry","1920","1080","","","","","","","","","","","601","pbz","Inducer trial","","f","7","","true","","","f","1","LEFT","","","","",""
"","html-keyboard-response","278","353457","0.0-507.0","pca52mry","1920","1080","","","","","","","","","","","null","+","Fixation - long","","null","","","","","","","","","","","","",""
"","html-keyboard-response","279","354235","0.0-508.0","pca52mry","1920","1080","","","","","","","","","","","777","If imm press RIGHT | If ofa press LEFT","Inducer instructions",""," ","8","","","","","","","","","","","",""
"","html-keyboard-response","280","354994","0.0-509.0","pca52mry","1920","1080","","","","","","","","","","","null","+","Fixation - short","","null","","","","","","","","","","","","",""
"","html-keyboard-response","281","355756","0.0-510.0","pca52mry","1920","1080","","","","","","","","","","","761","ofa","Diagnostic trial","","f","8","0","false","false","LEFT","f","1","","RIGHT","false","","",""
"","html-keyboard-response","282","356521","0.0-513.0","pca52mry","1920","1080","","","","","","","","","","","null","+","Fixation - short","","null","","","","","","","","","","","","",""
"","html-keyboard-response","283","357147","0.0-514.0","pca52mry","1920","1080","","","","","","","","","","","625","imm","Diagnostic trial","","f","8","1","false","false","LEFT","f","1","","LEFT","true","","",""
"","html-keyboard-response","284","357909","0.0-517.0","pca52mry","1920","1080","","","","","","","","","","","null","+","Fixation - short","","null","","","","","","","","","","","","",""
"","html-keyboard-response","285","358320","0.0-518.0","pca52mry","1920","1080","","","","","","","","","","","411","ofa","Diagnostic trial","","f","8","2","false","false","LEFT","f","1","","RIGHT","false","","",""
"","html-keyboard-response","286","359074","0.0-521.0","pca52mry","1920","1080","","","","","","","","","","","null","+","Fixation - short","","null","","","","","","","","","","","","",""
"","html-keyboard-response","287","359540","0.0-522.0","pca52mry","1920","1080","","","","","","","","","","","465","imm","Diagnostic trial","","f","8","3","false","false","LEFT","f","1","","LEFT","true","","",""
"","html-keyboard-response","288","360293","0.0-525.0","pca52mry","1920","1080","","","","","","","","","","","null","+","Fixation - short","","null","","","","","","","","","","","","",""
"","html-keyboard-response","289","361315","0.0-526.0","pca52mry","1920","1080","","","","","","","","","","","1022","imm","Inducer trial","","j","8","","true","","","j","1","RIGHT","","","","",""
"","html-keyboard-response","290","362817","0.0-529.0","pca52mry","1920","1080","","","","","","","","","","","null","+","Fixation - long","","null","","","","","","","","","","","","",""
"","html-keyboard-response","291","363964","0.0-530.0","pca52mry","1920","1080","","","","","","","","","","","1146","If xlv press RIGHT | If gfm press LEFT","Inducer instructions",""," ","9","","","","","","","","","","","",""
"","html-keyboard-response","292","364722","0.0-531.0","pca52mry","1920","1080","","","","","","","","","","","null","+","Fixation - short","","null","","","","","","","","","","","","",""
"","html-keyboard-response","293","365345","0.0-532.0","pca52mry","1920","1080","","","","","","","","","","","622","gfm","Diagnostic trial","","f","9","0","false","false","LEFT","f","1","","RIGHT","false","","",""
"","html-keyboard-response","294","366106","0.0-535.0","pca52mry","1920","1080","","","","","","","","","","","null","+","Fixation - short","","null","","","","","","","","","","","","",""
"","html-keyboard-response","295","366554","0.0-536.0","pca52mry","1920","1080","","","","","","","","","","","447","xlv","Diagnostic trial","","f","9","1","false","false","LEFT","f","1","","LEFT","true","","",""
"","html-keyboard-response","296","367307","0.0-539.0","pca52mry","1920","1080","","","","","","","","","","","null","+","Fixation - short","","null","","","","","","","","","","","","",""
"","html-keyboard-response","297","368051","0.0-540.0","pca52mry","1920","1080","","","","","","","","","","","744","xlv","Diagnostic trial","","f","9","2","false","false","LEFT","f","1","","LEFT","true","","",""
"","html-keyboard-response","298","368807","0.0-543.0","pca52mry","1920","1080","","","","","","","","","","","null","+","Fixation - short","","null","","","","","","","","","","","","",""
"","html-keyboard-response","299","369418","0.0-544.0","pca52mry","1920","1080","","","","","","","","","","","610","gfm","Diagnostic trial","","f","9","3","false","false","LEFT","f","1","","RIGHT","false","","",""
"","html-keyboard-response","300","370180","0.0-547.0","pca52mry","1920","1080","","","","","","","","","","","null","+","Fixation - short","","null","","","","","","","","","","","","",""
"","html-keyboard-response","301","370509","0.0-548.0","pca52mry","1920","1080","","","","","","","","","","","328","gfm","Diagnostic trial","","f","9","4","false","false","LEFT","f","1","","RIGHT","false","","",""
"","html-keyboard-response","302","371266","0.0-551.0","pca52mry","1920","1080","","","","","","","","","","","null","+","Fixation - short","","null","","","","","","","","","","","","",""
"","html-keyboard-response","303","371668","0.0-552.0","pca52mry","1920","1080","","","","","","","","","","","402","gfm","Diagnostic trial","","f","9","5","false","false","LEFT","f","1","","RIGHT","false","","",""
"","html-keyboard-response","304","372430","0.0-555.0","pca52mry","1920","1080","","","","","","","","","","","null","+","Fixation - short","","null","","","","","","","","","","","","",""
"","html-keyboard-response","305","373269","0.0-556.0","pca52mry","1920","1080","","","","","","","","","","","838","xlv","Diagnostic trial","","f","9","6","false","true","RIGHT","j","0","","LEFT","false","","",""
"","call-function","306","373269","0.0-558.0-0.0","pca52mry","","","","","","","","","","","","","","","","","","","","","","","","","","","","","",""
"","html-keyboard-response","307","373585","0.0-558.0-1.0","pca52mry","1920","1080","","","","","","","","","","","null","Wrong","Feedback","","null","","","","","","","","","","","","",""
"","call-function","308","373585","0.0-558.0-2.0","pca52mry","","","","","","","","","","","","","","","","","","","","","","","","","","","","","",""
"","html-keyboard-response","309","374345","0.0-559.0","pca52mry","1920","1080","","","","","","","","","","","null","+","Fixation - short","","null","","","","","","","","","","","","",""
"","html-keyboard-response","310","375014","0.0-560.0","pca52mry","1920","1080","","","","","","","","","","","668","xlv","Diagnostic trial","","f","9","7","false","false","LEFT","f","1","","LEFT","true","","",""
"","html-keyboard-response","311","375770","0.0-563.0","pca52mry","1920","1080","","","","","","","","","","","null","+","Fixation - short","","null","","","","","","","","","","","","",""
"","html-keyboard-response","312","376184","0.0-564.0","pca52mry","1920","1080","","","","","","","","","","","413","xlv","Diagnostic trial","","f","9","8","false","false","LEFT","f","1","","LEFT","true","","",""
"","html-keyboard-response","313","376941","0.0-567.0","pca52mry","1920","1080","","","","","","","","","","","null","+","Fixation - short","","null","","","","","","","","","","","","",""
"","html-keyboard-response","314","377428","0.0-568.0","pca52mry","1920","1080","","","","","","","","","","","486","gfm","Diagnostic trial","","f","9","9","false","false","LEFT","f","1","","RIGHT","false","","",""
"","html-keyboard-response","315","378186","0.0-571.0","pca52mry","1920","1080","","","","","","","","","","","null","+","Fixation - short","","null","","","","","","","","","","","","",""
"","html-keyboard-response","316","378878","0.0-572.0","pca52mry","1920","1080","","","","","","","","","","","692","gfm","Diagnostic trial","","j","9","10","false","true","RIGHT","j","1","","RIGHT","true","","",""
"","html-keyboard-response","317","379635","0.0-575.0","pca52mry","1920","1080","","","","","","","","","","","null","+","Fixation - short","","null","","","","","","","","","","","","",""
"","html-keyboard-response","318","380311","0.0-576.0","pca52mry","1920","1080","","","","","","","","","","","675","xlv","Diagnostic trial","","f","9","11","false","false","LEFT","f","1","","LEFT","true","","",""
"","html-keyboard-response","319","381062","0.0-579.0","pca52mry","1920","1080","","","","","","","","","","","null","+","Fixation - short","","null","","","","","","","","","","","","",""
"","html-keyboard-response","320","381901","0.0-580.0","pca52mry","1920","1080","","","","","","","","","","","838","gfm","Diagnostic trial","","f","9","12","false","false","LEFT","f","1","","RIGHT","false","","",""
"","html-keyboard-response","321","382667","0.0-583.0","pca52mry","1920","1080","","","","","","","","","","","null","+","Fixation - short","","null","","","","","","","","","","","","",""
"","html-keyboard-response","322","383108","0.0-584.0","pca52mry","1920","1080","","","","","","","","","","","440","gfm","Diagnostic trial","","f","9","13","false","false","LEFT","f","1","","RIGHT","false","","",""
"","html-keyboard-response","323","383865","0.0-587.0","pca52mry","1920","1080","","","","","","","","","","","null","+","Fixation - short","","null","","","","","","","","","","","","",""
"","html-keyboard-response","324","384553","0.0-588.0","pca52mry","1920","1080","","","","","","","","","","","687","xlv","Diagnostic trial","","j","9","14","false","true","RIGHT","j","1","","LEFT","false","","",""
"","html-keyboard-response","325","385305","0.0-591.0","pca52mry","1920","1080","","","","","","","","","","","null","+","Fixation - short","","null","","","","","","","","","","","","",""
"","html-keyboard-response","326","386214","0.0-592.0","pca52mry","1920","1080","","","","","","","","","","","908","gfm","Inducer trial","","f","9","","true","","","f","1","LEFT","","","","",""
"","html-keyboard-response","327","387719","0.0-595.0","pca52mry","1920","1080","","","","","","","","","","","null","+","Fixation - long","","null","","","","","","","","","","","","",""
"","html-keyboard-response","328","390671","0.0-596.0","pca52mry","1920","1080","","","","","","","","","","","2952","If mts press RIGHT | If ume press LEFT","Inducer instructions",""," ","10","","","","","","","","","","","",""
"","html-keyboard-response","329","391431","0.0-597.0","pca52mry","1920","1080","","","","","","","","","","","null","+","Fixation - short","","null","","","","","","","","","","","","",""
"","html-keyboard-response","330","391931","0.0-598.0","pca52mry","1920","1080","","","","","","","","","","","500","mts","Diagnostic trial","","j","10","0","false","true","RIGHT","j","1","","LEFT","false","","",""
"","html-keyboard-response","331","392683","0.0-601.0","pca52mry","1920","1080","","","","","","","","","","","null","+","Fixation - short","","null","","","","","","","","","","","","",""
"","html-keyboard-response","332","393134","0.0-602.0","pca52mry","1920","1080","","","","","","","","","","","450","ume","Diagnostic trial","","j","10","1","false","true","RIGHT","j","1","","RIGHT","true","","",""
"","html-keyboard-response","333","393897","0.0-605.0","pca52mry","1920","1080","","","","","","","","","","","null","+","Fixation - short","","null","","","","","","","","","","","","",""
"","html-keyboard-response","334","394294","0.0-606.0","pca52mry","1920","1080","","","","","","","","","","","396","ume","Diagnostic trial","","j","10","2","false","true","RIGHT","j","1","","RIGHT","true","","",""
"","html-keyboard-response","335","395058","0.0-609.0","pca52mry","1920","1080","","","","","","","","","","","null","+","Fixation - short","","null","","","","","","","","","","","","",""
"","html-keyboard-response","336","395627","0.0-610.0","pca52mry","1920","1080","","","","","","","","","","","569","mts","Diagnostic trial","","f","10","3","false","false","LEFT","f","1","","LEFT","true","","",""
"","html-keyboard-response","337","396393","0.0-613.0","pca52mry","1920","1080","","","","","","","","","","","null","+","Fixation - short","","null","","","","","","","","","","","","",""
"","html-keyboard-response","338","397227","0.0-614.0","pca52mry","1920","1080","","","","","","","","","","","834","ume","Diagnostic trial","","f","10","4","false","false","LEFT","f","1","","RIGHT","false","","",""
"","html-keyboard-response","339","397979","0.0-617.0","pca52mry","1920","1080","","","","","","","","","","","null","+","Fixation - short","","null","","","","","","","","","","","","",""
"","html-keyboard-response","340","398379","0.0-618.0","pca52mry","1920","1080","","","","","","","","","","","400","ume","Diagnostic trial","","j","10","5","false","true","RIGHT","j","1","","RIGHT","true","","",""
"","html-keyboard-response","341","399145","0.0-621.0","pca52mry","1920","1080","","","","","","","","","","","null","+","Fixation - short","","null","","","","","","","","","","","","",""
"","html-keyboard-response","342","399665","0.0-622.0","pca52mry","1920","1080","","","","","","","","","","","519","mts","Diagnostic trial","","j","10","6","false","true","RIGHT","j","1","","LEFT","false","","",""
"","html-keyboard-response","343","400423","0.0-625.0","pca52mry","1920","1080","","","","","","","","","","","null","+","Fixation - short","","null","","","","","","","","","","","","",""
"","html-keyboard-response","344","400914","0.0-626.0","pca52mry","1920","1080","","","","","","","","","","","491","ume","Diagnostic trial","","j","10","7","false","true","RIGHT","j","1","","RIGHT","true","","",""
"","html-keyboard-response","345","401674","0.0-629.0","pca52mry","1920","1080","","","","","","","","","","","null","+","Fixation - short","","null","","","","","","","","","","","","",""
"","html-keyboard-response","346","402176","0.0-630.0","pca52mry","1920","1080","","","","","","","","","","","501","ume","Diagnostic trial","","f","10","8","false","false","LEFT","f","1","","RIGHT","false","","",""
"","html-keyboard-response","347","402933","0.0-633.0","pca52mry","1920","1080","","","","","","","","","","","null","+","Fixation - short","","null","","","","","","","","","","","","",""
"","html-keyboard-response","348","403984","0.0-634.0","pca52mry","1920","1080","","","","","","","","","","","1051","ume","Inducer trial","","f","10","","true","","","f","1","LEFT","","","","",""
"","html-keyboard-response","349","405492","0.0-637.0","pca52mry","1920","1080","","","","","","","","","","","null","+","Fixation - long","","null","","","","","","","","","","","","",""
"","html-keyboard-response","350","406266","0.0-638.0","pca52mry","1920","1080","","","","","","","","","","","773","If cer press RIGHT | If vnn press LEFT","Inducer instructions",""," ","11","","","","","","","","","","","",""
"","html-keyboard-response","351","407018","0.0-639.0","pca52mry","1920","1080","","","","","","","","","","","null","+","Fixation - short","","null","","","","","","","","","","","","",""
"","html-keyboard-response","352","407687","0.0-640.0","pca52mry","1920","1080","","","","","","","","","","","668","vnn","Diagnostic trial","","j","11","0","false","true","RIGHT","j","1","","RIGHT","true","","",""
"","html-keyboard-response","353","408448","0.0-643.0","pca52mry","1920","1080","","","","","","","","","","","null","+","Fixation - short","","null","","","","","","","","","","","","",""
"","html-keyboard-response","354","408939","0.0-644.0","pca52mry","1920","1080","","","","","","","","","","","490","cer","Diagnostic trial","","f","11","1","false","false","LEFT","f","1","","LEFT","true","","",""
"","html-keyboard-response","355","409692","0.0-647.0","pca52mry","1920","1080","","","","","","","","","","","null","+","Fixation - short","","null","","","","","","","","","","","","",""
"","html-keyboard-response","356","410366","0.0-648.0","pca52mry","1920","1080","","","","","","","","","","","674","cer","Diagnostic trial","","f","11","2","false","false","LEFT","f","1","","LEFT","true","","",""
"","html-keyboard-response","357","411125","0.0-651.0","pca52mry","1920","1080","","","","","","","","","","","null","+","Fixation - short","","null","","","","","","","","","","","","",""
"","html-keyboard-response","358","411609","0.0-652.0","pca52mry","1920","1080","","","","","","","","","","","484","vnn","Diagnostic trial","","f","11","3","false","false","LEFT","f","1","","RIGHT","false","","",""
"","html-keyboard-response","359","412365","0.0-655.0","pca52mry","1920","1080","","","","","","","","","","","null","+","Fixation - short","","null","","","","","","","","","","","","",""
"","html-keyboard-response","360","413110","0.0-656.0","pca52mry","1920","1080","","","","","","","","","","","744","vnn","Diagnostic trial","","j","11","4","false","true","RIGHT","j","1","","RIGHT","true","","",""
"","html-keyboard-response","361","413875","0.0-659.0","pca52mry","1920","1080","","","","","","","","","","","null","+","Fixation - short","","null","","","","","","","","","","","","",""
"","html-keyboard-response","362","414377","0.0-660.0","pca52mry","1920","1080","","","","","","","","","","","501","cer","Diagnostic trial","","j","11","5","false","true","RIGHT","j","1","","LEFT","false","","",""
"","html-keyboard-response","363","415140","0.0-663.0","pca52mry","1920","1080","","","","","","","","","","","null","+","Fixation - short","","null","","","","","","","","","","","","",""
"","html-keyboard-response","364","415561","0.0-664.0","pca52mry","1920","1080","","","","","","","","","","","421","cer","Diagnostic trial","","j","11","6","false","true","RIGHT","j","1","","LEFT","false","","",""
"","html-keyboard-response","365","416317","0.0-667.0","pca52mry","1920","1080","","","","","","","","","","","null","+","Fixation - short","","null","","","","","","","","","","","","",""
"","html-keyboard-response","366","416779","0.0-668.0","pca52mry","1920","1080","","","","","","","","","","","462","vnn","Diagnostic trial","","f","11","7","false","false","LEFT","f","1","","RIGHT","false","","",""
"","html-keyboard-response","367","417531","0.0-671.0","pca52mry","1920","1080","","","","","","","","","","","null","+","Fixation - short","","null","","","","","","","","","","","","",""
"","html-keyboard-response","368","418012","0.0-672.0","pca52mry","1920","1080","","","","","","","","","","","481","cer","Diagnostic trial","","f","11","8","false","false","LEFT","f","1","","LEFT","true","","",""
"","html-keyboard-response","369","418767","0.0-675.0","pca52mry","1920","1080","","","","","","","","","","","null","+","Fixation - short","","null","","","","","","","","","","","","",""
"","html-keyboard-response","370","419171","0.0-676.0","pca52mry","1920","1080","","","","","","","","","","","404","cer","Diagnostic trial","","f","11","9","false","false","LEFT","f","1","","LEFT","true","","",""
"","html-keyboard-response","371","419929","0.0-679.0","pca52mry","1920","1080","","","","","","","","","","","null","+","Fixation - short","","null","","","","","","","","","","","","",""
"","html-keyboard-response","372","420369","0.0-680.0","pca52mry","1920","1080","","","","","","","","","","","440","vnn","Diagnostic trial","","j","11","10","false","true","RIGHT","j","1","","RIGHT","true","","",""
"","html-keyboard-response","373","421136","0.0-683.0","pca52mry","1920","1080","","","","","","","","","","","null","+","Fixation - short","","null","","","","","","","","","","","","",""
"","html-keyboard-response","374","421814","0.0-684.0","pca52mry","1920","1080","","","","","","","","","","","678","vnn","Diagnostic trial","","f","11","11","false","false","LEFT","f","1","","RIGHT","false","","",""
"","html-keyboard-response","375","422571","0.0-687.0","pca52mry","1920","1080","","","","","","","","","","","null","+","Fixation - short","","null","","","","","","","","","","","","",""
"","html-keyboard-response","376","423149","0.0-688.0","pca52mry","1920","1080","","","","","","","","","","","578","cer","Diagnostic trial","","f","11","12","false","false","LEFT","f","1","","LEFT","true","","",""
"","html-keyboard-response","377","423907","0.0-691.0","pca52mry","1920","1080","","","","","","","","","","","null","+","Fixation - short","","null","","","","","","","","","","","","",""
"","html-keyboard-response","378","424283","0.0-692.0","pca52mry","1920","1080","","","","","","","","","","","375","vnn","Diagnostic trial","","f","11","13","false","false","LEFT","f","1","","RIGHT","false","","",""
"","html-keyboard-response","379","425036","0.0-695.0","pca52mry","1920","1080","","","","","","","","","","","null","+","Fixation - short","","null","","","","","","","","","","","","",""
"","html-keyboard-response","380","425525","0.0-696.0","pca52mry","1920","1080","","","","","","","","","","","488","vnn","Diagnostic trial","","j","11","14","false","true","RIGHT","j","1","","RIGHT","true","","",""
"","html-keyboard-response","381","426277","0.0-699.0","pca52mry","1920","1080","","","","","","","","","","","null","+","Fixation - short","","null","","","","","","","","","","","","",""
"","html-keyboard-response","382","426733","0.0-700.0","pca52mry","1920","1080","","","","","","","","","","","456","vnn","Inducer trial","","f","11","","true","","","f","1","LEFT","","","","",""
"","html-keyboard-response","383","428246","0.0-703.0","pca52mry","1920","1080","","","","","","","","","","","null","+","Fixation - long","","null","","","","","","","","","","","","",""
"","html-keyboard-response","384","429911","0.0-704.0","pca52mry","1920","1080","","","","","","","","","","","1664","If vib press RIGHT | If ttm press LEFT","Inducer instructions",""," ","12","","","","","","","","","","","",""
"","html-keyboard-response","385","430672","0.0-705.0","pca52mry","1920","1080","","","","","","","","","","","null","+","Fixation - short","","null","","","","","","","","","","","","",""
"","html-keyboard-response","386","431287","0.0-706.0","pca52mry","1920","1080","","","","","","","","","","","614","ttm","Diagnostic trial","","f","12","0","false","false","LEFT","f","1","","RIGHT","false","","",""
"","html-keyboard-response","387","432038","0.0-709.0","pca52mry","1920","1080","","","","","","","","","","","null","+","Fixation - short","","null","","","","","","","","","","","","",""
"","html-keyboard-response","388","432438","0.0-710.0","pca52mry","1920","1080","","","","","","","","","","","400","ttm","Diagnostic trial","","j","12","1","false","true","RIGHT","j","1","","RIGHT","true","","",""
"","html-keyboard-response","389","433193","0.0-713.0","pca52mry","1920","1080","","","","","","","","","","","null","+","Fixation - short","","null","","","","","","","","","","","","",""
"","html-keyboard-response","390","433616","0.0-714.0","pca52mry","1920","1080","","","","","","","","","","","422","ttm","Diagnostic trial","","j","12","2","false","true","RIGHT","j","1","","RIGHT","true","","",""
"","html-keyboard-response","391","434378","0.0-717.0","pca52mry","1920","1080","","","","","","","","","","","null","+","Fixation - short","","null","","","","","","","","","","","","",""
"","html-keyboard-response","392","434748","0.0-718.0","pca52mry","1920","1080","","","","","","","","","","","370","ttm","Diagnostic trial","","j","12","3","false","true","RIGHT","j","1","","RIGHT","true","","",""
"","html-keyboard-response","393","435511","0.0-721.0","pca52mry","1920","1080","","","","","","","","","","","null","+","Fixation - short","","null","","","","","","","","","","","","",""
"","html-keyboard-response","394","436004","0.0-722.0","pca52mry","1920","1080","","","","","","","","","","","492","vib","Diagnostic trial","","j","12","4","false","true","RIGHT","j","1","","LEFT","false","","",""
"","html-keyboard-response","395","436767","0.0-725.0","pca52mry","1920","1080","","","","","","","","","","","null","+","Fixation - short","","null","","","","","","","","","","","","",""
"","html-keyboard-response","396","437187","0.0-726.0","pca52mry","1920","1080","","","","","","","","","","","419","ttm","Diagnostic trial","","j","12","5","false","true","RIGHT","j","1","","RIGHT","true","","",""
"","html-keyboard-response","397","437938","0.0-729.0","pca52mry","1920","1080","","","","","","","","","","","null","+","Fixation - short","","null","","","","","","","","","","","","",""
"","html-keyboard-response","398","438657","0.0-730.0","pca52mry","1920","1080","","","","","","","","","","","718","vib","Diagnostic trial","","f","12","6","false","false","LEFT","f","1","","LEFT","true","","",""
"","html-keyboard-response","399","439413","0.0-733.0","pca52mry","1920","1080","","","","","","","","","","","null","+","Fixation - short","","null","","","","","","","","","","","","",""
"","html-keyboard-response","400","440098","0.0-734.0","pca52mry","1920","1080","","","","","","","","","","","685","vib","Diagnostic trial","","j","12","7","false","true","RIGHT","j","1","","LEFT","false","","",""
"","html-keyboard-response","401","440864","0.0-737.0","pca52mry","1920","1080","","","","","","","","","","","null","+","Fixation - short","","null","","","","","","","","","","","","",""
"","html-keyboard-response","402","441871","0.0-738.0","pca52mry","1920","1080","","","","","","","","","","","1006","ttm","Diagnostic trial","","j","12","8","false","true","RIGHT","j","1","","RIGHT","true","","",""
"","html-keyboard-response","403","442633","0.0-741.0","pca52mry","1920","1080","","","","","","","","","","","null","+","Fixation - short","","null","","","","","","","","","","","","",""
"","html-keyboard-response","404","443145","0.0-742.0","pca52mry","1920","1080","","","","","","","","","","","511","ttm","Diagnostic trial","","j","12","9","false","true","RIGHT","j","1","","RIGHT","true","","",""
"","html-keyboard-response","405","443910","0.0-745.0","pca52mry","1920","1080","","","","","","","","","","","null","+","Fixation - short","","null","","","","","","","","","","","","",""
"","html-keyboard-response","406","444498","0.0-746.0","pca52mry","1920","1080","","","","","","","","","","","587","vib","Diagnostic trial","","f","12","10","false","false","LEFT","f","1","","LEFT","true","","",""
"","html-keyboard-response","407","445263","0.0-749.0","pca52mry","1920","1080","","","","","","","","","","","null","+","Fixation - short","","null","","","","","","","","","","","","",""
"","html-keyboard-response","408","445762","0.0-750.0","pca52mry","1920","1080","","","","","","","","","","","499","ttm","Diagnostic trial","","f","12","11","false","false","LEFT","f","1","","RIGHT","false","","",""
"","html-keyboard-response","409","446520","0.0-753.0","pca52mry","1920","1080","","","","","","","","","","","null","+","Fixation - short","","null","","","","","","","","","","","","",""
"","html-keyboard-response","410","447475","0.0-754.0","pca52mry","1920","1080","","","","","","","","","","","955","vib","Diagnostic trial","","j","12","12","false","false","LEFT","f","0","","LEFT","true","","",""
"","call-function","411","447476","0.0-756.0-0.0","pca52mry","","","","","","","","","","","","","","","","","","","","","","","","","","","","","",""
"","html-keyboard-response","412","447779","0.0-756.0-1.0","pca52mry","1920","1080","","","","","","","","","","","null","Wrong","Feedback","","null","","","","","","","","","","","","",""
"","call-function","413","447779","0.0-756.0-2.0","pca52mry","","","","","","","","","","","","","","","","","","","","","","","","","","","","","",""
"","html-keyboard-response","414","448543","0.0-757.0","pca52mry","1920","1080","","","","","","","","","","","null","+","Fixation - short","","null","","","","","","","","","","","","",""
"","html-keyboard-response","415","449182","0.0-758.0","pca52mry","1920","1080","","","","","","","","","","","638","ttm","Diagnostic trial","","f","12","13","false","false","LEFT","f","1","","RIGHT","false","","",""
"","html-keyboard-response","416","449933","0.0-761.0","pca52mry","1920","1080","","","","","","","","","","","null","+","Fixation - short","","null","","","","","","","","","","","","",""
"","html-keyboard-response","417","450354","0.0-762.0","pca52mry","1920","1080","","","","","","","","","","","420","ttm","Diagnostic trial","","f","12","14","false","false","LEFT","f","1","","RIGHT","false","","",""
"","html-keyboard-response","418","451112","0.0-765.0","pca52mry","1920","1080","","","","","","","","","","","null","+","Fixation - short","","null","","","","","","","","","","","","",""
"","html-keyboard-response","419","451845","0.0-766.0","pca52mry","1920","1080","","","","","","","","","","","732","ttm","Inducer trial","","f","12","","true","","","f","1","LEFT","","","","",""
"","html-keyboard-response","420","453353","0.0-769.0","pca52mry","1920","1080","","","","","","","","","","","null","+","Fixation - long","","null","","","","","","","","","","","","",""
"","html-keyboard-response","421","454086","0.0-770.0","pca52mry","1920","1080","","","","","","","","","","","733","If jil press RIGHT | If pmf press LEFT","Inducer instructions",""," ","13","","","","","","","","","","","",""
"","html-keyboard-response","422","454846","0.0-771.0","pca52mry","1920","1080","","","","","","","","","","","null","+","Fixation - short","","null","","","","","","","","","","","","",""
"","html-keyboard-response","423","455421","0.0-772.0","pca52mry","1920","1080","","","","","","","","","","","574","pmf","Diagnostic trial","","j","13","0","false","true","RIGHT","j","1","","RIGHT","true","","",""
"","html-keyboard-response","424","456173","0.0-775.0","pca52mry","1920","1080","","","","","","","","","","","null","+","Fixation - short","","null","","","","","","","","","","","","",""
"","html-keyboard-response","425","456844","0.0-776.0","pca52mry","1920","1080","","","","","","","","","","","670","jil","Diagnostic trial","","j","13","1","false","true","RIGHT","j","1","","LEFT","false","","",""
"","html-keyboard-response","426","457597","0.0-779.0","pca52mry","1920","1080","","","","","","","","","","","null","+","Fixation - short","","null","","","","","","","","","","","","",""
"","html-keyboard-response","427","458103","0.0-780.0","pca52mry","1920","1080","","","","","","","","","","","505","jil","Diagnostic trial","","j","13","2","false","true","RIGHT","j","1","","LEFT","false","","",""
"","html-keyboard-response","428","458858","0.0-783.0","pca52mry","1920","1080","","","","","","","","","","","null","+","Fixation - short","","null","","","","","","","","","","","","",""
"","html-keyboard-response","429","459398","0.0-784.0","pca52mry","1920","1080","","","","","","","","","","","539","jil","Diagnostic trial","","f","13","3","false","false","LEFT","f","1","","LEFT","true","","",""
"","html-keyboard-response","430","460164","0.0-787.0","pca52mry","1920","1080","","","","","","","","","","","null","+","Fixation - short","","null","","","","","","","","","","","","",""
"","html-keyboard-response","431","461189","0.0-788.0","pca52mry","1920","1080","","","","","","","","","","","1025","pmf","Diagnostic trial","","f","13","4","false","false","LEFT","f","1","","RIGHT","false","","",""
"","html-keyboard-response","432","461955","0.0-791.0","pca52mry","1920","1080","","","","","","","","","","","null","+","Fixation - short","","null","","","","","","","","","","","","",""
"","html-keyboard-response","433","462423","0.0-792.0","pca52mry","1920","1080","","","","","","","","","","","467","pmf","Diagnostic trial","","j","13","5","false","true","RIGHT","j","1","","RIGHT","true","","",""
"","html-keyboard-response","434","463174","0.0-795.0","pca52mry","1920","1080","","","","","","","","","","","null","+","Fixation - short","","null","","","","","","","","","","","","",""
"","html-keyboard-response","435","463637","0.0-796.0","pca52mry","1920","1080","","","","","","","","","","","463","pmf","Diagnostic trial","","f","13","6","false","false","LEFT","f","1","","RIGHT","false","","",""
"","html-keyboard-response","436","464402","0.0-799.0","pca52mry","1920","1080","","","","","","","","","","","null","+","Fixation - short","","null","","","","","","","","","","","","",""
"","html-keyboard-response","437","465063","0.0-800.0","pca52mry","1920","1080","","","","","","","","","","","661","pmf","Diagnostic trial","","f","13","7","false","false","LEFT","f","1","","RIGHT","false","","",""
"","html-keyboard-response","438","465815","0.0-803.0","pca52mry","1920","1080","","","","","","","","","","","null","+","Fixation - short","","null","","","","","","","","","","","","",""
"","html-keyboard-response","439","466451","0.0-804.0","pca52mry","1920","1080","","","","","","","","","","","636","jil","Diagnostic trial","","j","13","8","false","true","RIGHT","j","1","","LEFT","false","","",""
"","html-keyboard-response","440","467213","0.0-807.0","pca52mry","1920","1080","","","","","","","","","","","null","+","Fixation - short","","null","","","","","","","","","","","","",""
"","html-keyboard-response","441","467752","0.0-808.0","pca52mry","1920","1080","","","","","","","","","","","539","pmf","Diagnostic trial","","f","13","9","false","false","LEFT","f","1","","RIGHT","false","","",""
"","html-keyboard-response","442","468518","0.0-811.0","pca52mry","1920","1080","","","","","","","","","","","null","+","Fixation - short","","null","","","","","","","","","","","","",""
"","html-keyboard-response","443","469039","0.0-812.0","pca52mry","1920","1080","","","","","","","","","","","520","jil","Diagnostic trial","","f","13","10","false","false","LEFT","f","1","","LEFT","true","","",""
"","html-keyboard-response","444","469804","0.0-815.0","pca52mry","1920","1080","","","","","","","","","","","null","+","Fixation - short","","null","","","","","","","","","","","","",""
"","html-keyboard-response","445","470165","0.0-816.0","pca52mry","1920","1080","","","","","","","","","","","360","jil","Diagnostic trial","","f","13","11","false","false","LEFT","f","1","","LEFT","true","","",""
"","html-keyboard-response","446","470927","0.0-819.0","pca52mry","1920","1080","","","","","","","","","","","null","+","Fixation - short","","null","","","","","","","","","","","","",""
"","html-keyboard-response","447","472078","0.0-820.0","pca52mry","1920","1080","","","","","","","","","","","1151","jil","Inducer trial","","j","13","","true","","","j","1","RIGHT","","","","",""
"","html-keyboard-response","448","473583","0.0-823.0","pca52mry","1920","1080","","","","","","","","","","","null","+","Fixation - long","","null","","","","","","","","","","","","",""
"","html-keyboard-response","449","475058","0.0-824.0","pca52mry","1920","1080","","","","","","","","","","","1475","If rbc press RIGHT | If dof press LEFT","Inducer instructions",""," ","14","","","","","","","","","","","",""
"","html-keyboard-response","450","475819","0.0-825.0","pca52mry","1920","1080","","","","","","","","","","","null","+","Fixation - short","","null","","","","","","","","","","","","",""
"","html-keyboard-response","451","476598","0.0-826.0","pca52mry","1920","1080","","","","","","","","","","","778","rbc","Diagnostic trial","","f","14","0","false","false","LEFT","f","1","","LEFT","true","","",""
"","html-keyboard-response","452","477354","0.0-829.0","pca52mry","1920","1080","","","","","","","","","","","null","+","Fixation - short","","null","","","","","","","","","","","","",""
"","html-keyboard-response","453","477711","0.0-830.0","pca52mry","1920","1080","","","","","","","","","","","357","dof","Diagnostic trial","","f","14","1","false","false","LEFT","f","1","","RIGHT","false","","",""
"","html-keyboard-response","454","478478","0.0-833.0","pca52mry","1920","1080","","","","","","","","","","","null","+","Fixation - short","","null","","","","","","","","","","","","",""
"","html-keyboard-response","455","478868","0.0-834.0","pca52mry","1920","1080","","","","","","","","","","","389","rbc","Diagnostic trial","","j","14","2","false","true","RIGHT","j","1","","LEFT","false","","",""
"","html-keyboard-response","456","479623","0.0-837.0","pca52mry","1920","1080","","","","","","","","","","","null","+","Fixation - short","","null","","","","","","","","","","","","",""
"","html-keyboard-response","457","480349","0.0-838.0","pca52mry","1920","1080","","","","","","","","","","","725","rbc","Diagnostic trial","","f","14","3","false","false","LEFT","f","1","","LEFT","true","","",""
"","html-keyboard-response","458","481102","0.0-841.0","pca52mry","1920","1080","","","","","","","","","","","null","+","Fixation - short","","null","","","","","","","","","","","","",""
"","html-keyboard-response","459","481726","0.0-842.0","pca52mry","1920","1080","","","","","","","","","","","624","rbc","Diagnostic trial","","j","14","4","false","true","RIGHT","j","1","","LEFT","false","","",""
"","html-keyboard-response","460","482488","0.0-845.0","pca52mry","1920","1080","","","","","","","","","","","null","+","Fixation - short","","null","","","","","","","","","","","","",""
"","html-keyboard-response","461","482931","0.0-846.0","pca52mry","1920","1080","","","","","","","","","","","443","rbc","Diagnostic trial","","f","14","5","false","false","LEFT","f","1","","LEFT","true","","",""
"","html-keyboard-response","462","483690","0.0-849.0","pca52mry","1920","1080","","","","","","","","","","","null","+","Fixation - short","","null","","","","","","","","","","","","",""
"","html-keyboard-response","463","484425","0.0-850.0","pca52mry","1920","1080","","","","","","","","","","","735","dof","Inducer trial","","f","14","","true","","","f","1","LEFT","","","","",""
"","html-keyboard-response","464","485939","0.0-853.0","pca52mry","1920","1080","","","","","","","","","","","null","+","Fixation - long","","null","","","","","","","","","","","","",""
"","html-keyboard-response","465","486789","0.0-854.0","pca52mry","1920","1080","","","","","","","","","","","850","If prg press RIGHT | If ila press LEFT","Inducer instructions",""," ","15","","","","","","","","","","","",""
"","html-keyboard-response","466","487541","0.0-855.0","pca52mry","1920","1080","","","","","","","","","","","null","+","Fixation - short","","null","","","","","","","","","","","","",""
"","html-keyboard-response","467","488113","0.0-856.0","pca52mry","1920","1080","","","","","","","","","","","572","prg","Diagnostic trial","","j","15","0","false","true","RIGHT","j","1","","LEFT","false","","",""
"","html-keyboard-response","468","488879","0.0-859.0","pca52mry","1920","1080","","","","","","","","","","","null","+","Fixation - short","","null","","","","","","","","","","","","",""
"","html-keyboard-response","469","489266","0.0-860.0","pca52mry","1920","1080","","","","","","","","","","","386","ila","Diagnostic trial","","j","15","1","false","true","RIGHT","j","1","","RIGHT","true","","",""
"","html-keyboard-response","470","490031","0.0-863.0","pca52mry","1920","1080","","","","","","","","","","","null","+","Fixation - short","","null","","","","","","","","","","","","",""
"","html-keyboard-response","471","490395","0.0-864.0","pca52mry","1920","1080","","","","","","","","","","","363","ila","Diagnostic trial","","j","15","2","false","true","RIGHT","j","1","","RIGHT","true","","",""
"","html-keyboard-response","472","491147","0.0-867.0","pca52mry","1920","1080","","","","","","","","","","","null","+","Fixation - short","","null","","","","","","","","","","","","",""
"","html-keyboard-response","473","491593","0.0-868.0","pca52mry","1920","1080","","","","","","","","","","","445","prg","Diagnostic trial","","f","15","3","false","false","LEFT","f","1","","LEFT","true","","",""
"","html-keyboard-response","474","492357","0.0-871.0","pca52mry","1920","1080","","","","","","","","","","","null","+","Fixation - short","","null","","","","","","","","","","","","",""
"","html-keyboard-response","475","493159","0.0-872.0","pca52mry","1920","1080","","","","","","","","","","","802","prg","Diagnostic trial","","f","15","4","false","false","LEFT","f","1","","LEFT","true","","",""
"","html-keyboard-response","476","493915","0.0-875.0","pca52mry","1920","1080","","","","","","","","","","","null","+","Fixation - short","","null","","","","","","","","","","","","",""
"","html-keyboard-response","477","494523","0.0-876.0","pca52mry","1920","1080","","","","","","","","","","","607","ila","Diagnostic trial","","j","15","5","false","true","RIGHT","j","1","","RIGHT","true","","",""
"","html-keyboard-response","478","495282","0.0-879.0","pca52mry","1920","1080","","","","","","","","","","","null","+","Fixation - short","","null","","","","","","","","","","","","",""
"","html-keyboard-response","479","496010","0.0-880.0","pca52mry","1920","1080","","","","","","","","","","","727","prg","Diagnostic trial","","f","15","6","false","false","LEFT","f","1","","LEFT","true","","",""
"","html-keyboard-response","480","496776","0.0-883.0","pca52mry","1920","1080","","","","","","","","","","","null","+","Fixation - short","","null","","","","","","","","","","","","",""
"","html-keyboard-response","481","497323","0.0-884.0","pca52mry","1920","1080","","","","","","","","","","","547","ila","Diagnostic trial","","j","15","7","false","true","RIGHT","j","1","","RIGHT","true","","",""
"","html-keyboard-response","482","498085","0.0-887.0","pca52mry","1920","1080","","","","","","","","","","","null","+","Fixation - short","","null","","","","","","","","","","","","",""
"","html-keyboard-response","483","498618","0.0-888.0","pca52mry","1920","1080","","","","","","","","","","","533","ila","Inducer trial","","f","15","","true","","","f","1","LEFT","","","","",""
"","html-keyboard-response","484","500122","0.0-891.0","pca52mry","1920","1080","","","","","","","","","","","null","+","Fixation - long","","null","","","","","","","","","","","","",""
"","html-keyboard-response","485","503790","0.0-892.0","pca52mry","1920","1080","","","","","","","","","","","3668","If fja press RIGHT | If chy press LEFT","Inducer instructions",""," ","16","","","","","","","","","","","",""
"","html-keyboard-response","486","504544","0.0-893.0","pca52mry","1920","1080","","","","","","","","","","","null","+","Fixation - short","","null","","","","","","","","","","","","",""
"","html-keyboard-response","487","505333","0.0-894.0","pca52mry","1920","1080","","","","","","","","","","","789","chy","Diagnostic trial","","f","16","0","false","false","LEFT","f","1","","RIGHT","false","","",""
"","html-keyboard-response","488","506092","0.0-897.0","pca52mry","1920","1080","","","","","","","","","","","null","+","Fixation - short","","null","","","","","","","","","","","","",""
"","html-keyboard-response","489","506442","0.0-898.0","pca52mry","1920","1080","","","","","","","","","","","350","fja","Diagnostic trial","","j","16","1","false","true","RIGHT","j","1","","LEFT","false","","",""
"","html-keyboard-response","490","507208","0.0-901.0","pca52mry","1920","1080","","","","","","","","","","","null","+","Fixation - short","","null","","","","","","","","","","","","",""
"","html-keyboard-response","491","508173","0.0-902.0","pca52mry","1920","1080","","","","","","","","","","","965","chy","Diagnostic trial","","j","16","2","false","true","RIGHT","j","1","","RIGHT","true","","",""
"","html-keyboard-response","492","508934","0.0-905.0","pca52mry","1920","1080","","","","","","","","","","","null","+","Fixation - short","","null","","","","","","","","","","","","",""
"","html-keyboard-response","493","509432","0.0-906.0","pca52mry","1920","1080","","","","","","","","","","","497","chy","Diagnostic trial","","f","16","3","false","false","LEFT","f","1","","RIGHT","false","","",""
"","html-keyboard-response","494","510191","0.0-909.0","pca52mry","1920","1080","","","","","","","","","","","null","+","Fixation - short","","null","","","","","","","","","","","","",""
