"value","trial_type","trial_index","time_elapsed","internal_node_id","id","width","height","webaudio","browser","browser_version","mobile","os","fullscreen","vsync_rate","webcam","microphone","view_history","rt","stimulus","trial_info","success","response","inducer_run","diagnostic_run","inducer_trial","italic","correct_diag_response_side","correct_response_key","correct_response","correct_indu_response_side","correct_inducer_response_side","congruent","accuracy","open_feedback","interactive"
"","call-function","0","2","0.0-0.0","971ous1l","","","","","","","","","","","","","","","","","","","","","","","","","","","","","",""
"","browser-check","1","999","0.0-1.0","971ous1l","935","510","true","chrome","121.0.0","false","Windows 10","true","60.52","true","true","","","","","","","","","","","","","","","","","","",""
"","instructions","2","1310871","0.0-2.0","971ous1l","","","","","","","","","","","","[{""page_index"":0,""viewing_time"":1304571},{""page_index"":1,""viewing_time"":1316},{""page_index"":2,""viewing_time"":3984}]","1309871","The experiment and consent","The experiment and consent","","","","","","","","","","","","","","",""
"","fullscreen","3","1313874","0.0-3.0","971ous1l","1366","768","","","","","","","","","","","1994","","Full screen","true","","","","","","","","","","","","","",""
"","instructions","4","1322668","0.0-4.0","971ous1l","935","510","","","","","","","","","","[{""page_index"":0,""viewing_time"":2663},{""page_index"":1,""viewing_time"":1374},{""page_index"":0,""viewing_time"":2084},{""page_index"":1,""viewing_time"":2672}]","8793","Instructions","Basic overview explanation","","","","","","","","","","","","","","",""
"","html-keyboard-response","5","1328596","0.0-5.0","971ous1l","935","510","","","","","","","","","","","4416","If italic press RIGHT | If upright press LEFT","Diagnostic instructions",""," ","","","","","","","","","","","","",""
"","html-keyboard-response","6","1329362","0.0-6.0","971ous1l","935","510","","","","","","","","","","","null","+","Fixation - short","","null","","","","","","","","","","","","",""
"","html-keyboard-response","7","1330163","0.0-7.0","971ous1l","935","510","","","","","","","","","","","801","ois","Practice diganostic trial","","f","practice","0","false","0","LEFT","f","1","","","","","",""
"","html-keyboard-response","8","1330923","0.0-10.0","971ous1l","935","510","","","","","","","","","","","null","+","Fixation - short","","null","","","","","","","","","","","","",""
"","html-keyboard-response","9","1331625","0.0-11.0","971ous1l","935","510","","","","","","","","","","","702","rrd","Practice diganostic trial","","f","practice","1","false","1","RIGHT","j","0","","","","","",""
"","call-function","10","1331626","0.0-13.0-0.0","971ous1l","","","","","","","","","","","","","","","","","","","","","","","","","","","","","",""
"","html-keyboard-response","11","1331930","0.0-13.0-1.0","971ous1l","935","510","","","","","","","","","","","null","Wrong","Feedback","","null","","","","","","","","","","","","",""
"","call-function","12","1331930","0.0-13.0-2.0","971ous1l","","","","","","","","","","","","","","","","","","","","","","","","","","","","","",""
"","html-keyboard-response","13","1332684","0.0-14.0","971ous1l","935","510","","","","","","","","","","","null","+","Fixation - short","","null","","","","","","","","","","","","",""
"","html-keyboard-response","14","1333635","0.0-15.0","971ous1l","935","510","","","","","","","","","","","951","ois","Practice diganostic trial","","j","practice","2","false","1","RIGHT","j","1","","","","","",""
"","html-keyboard-response","15","1334393","0.0-18.0","971ous1l","935","510","","","","","","","","","","","null","+","Fixation - short","","null","","","","","","","","","","","","",""
"","html-keyboard-response","16","1335375","0.0-19.0","971ous1l","935","510","","","","","","","","","","","982","ois","Practice diganostic trial","","j","practice","3","false","1","RIGHT","j","1","","","","","",""
"","html-keyboard-response","17","1336140","0.0-22.0","971ous1l","935","510","","","","","","","","","","","null","+","Fixation - short","","null","","","","","","","","","","","","",""
"","html-keyboard-response","18","1336768","0.0-23.0","971ous1l","935","510","","","","","","","","","","","628","rrd","Practice diganostic trial","","j","practice","4","false","1","RIGHT","j","1","","","","","",""
"","html-keyboard-response","19","1337525","0.0-26.0","971ous1l","935","510","","","","","","","","","","","null","+","Fixation - short","","null","","","","","","","","","","","","",""
"","html-keyboard-response","20","1338104","0.0-27.0","971ous1l","935","510","","","","","","","","","","","578","rrd","Practice diganostic trial","","j","practice","5","false","1","RIGHT","j","1","","","","","",""
"","html-keyboard-response","21","1338862","0.0-30.0","971ous1l","935","510","","","","","","","","","","","null","+","Fixation - short","","null","","","","","","","","","","","","",""
"","html-keyboard-response","22","1339880","0.0-31.0","971ous1l","935","510","","","","","","","","","","","1017","ois","Practice diganostic trial","","f","practice","6","false","0","LEFT","f","1","","","","","",""
"","html-keyboard-response","23","1340635","0.0-34.0","971ous1l","935","510","","","","","","","","","","","null","+","Fixation - short","","null","","","","","","","","","","","","",""
"","html-keyboard-response","24","1341864","0.0-35.0","971ous1l","935","510","","","","","","","","","","","1229","ois","Practice diganostic trial","","f","practice","7","false","0","LEFT","f","1","","","","","",""
"","html-keyboard-response","25","1342620","0.0-38.0","971ous1l","935","510","","","","","","","","","","","null","+","Fixation - short","","null","","","","","","","","","","","","",""
"","html-keyboard-response","26","1343325","0.0-39.0","971ous1l","935","510","","","","","","","","","","","704","ois","Practice diganostic trial","","f","practice","8","false","0","LEFT","f","1","","","","","",""
"","html-keyboard-response","27","1344085","0.0-42.0","971ous1l","935","510","","","","","","","","","","","null","+","Fixation - short","","null","","","","","","","","","","","","",""
"","html-keyboard-response","28","1344641","0.0-43.0","971ous1l","935","510","","","","","","","","","","","555","rrd","Practice diganostic trial","","j","practice","9","false","0","LEFT","f","0","","","","","",""
"","call-function","29","1344642","0.0-45.0-0.0","971ous1l","","","","","","","","","","","","","","","","","","","","","","","","","","","","","",""
"","html-keyboard-response","30","1344947","0.0-45.0-1.0","971ous1l","935","510","","","","","","","","","","","null","Wrong","Feedback","","null","","","","","","","","","","","","",""
"","call-function","31","1344947","0.0-45.0-2.0","971ous1l","","","","","","","","","","","","","","","","","","","","","","","","","","","","","",""
"","html-keyboard-response","32","1345703","0.0-46.0","971ous1l","935","510","","","","","","","","","","","null","+","Fixation - short","","null","","","","","","","","","","","","",""
"","html-keyboard-response","33","1346471","0.0-47.0","971ous1l","935","510","","","","","","","","","","","768","rrd","Practice diganostic trial","","f","practice","10","false","1","RIGHT","j","0","","","","","",""
"","call-function","34","1346471","0.0-49.0-0.0","971ous1l","","","","","","","","","","","","","","","","","","","","","","","","","","","","","",""
"","html-keyboard-response","35","1346777","0.0-49.0-1.0","971ous1l","935","510","","","","","","","","","","","null","Wrong","Feedback","","null","","","","","","","","","","","","",""
"","call-function","36","1346777","0.0-49.0-2.0","971ous1l","","","","","","","","","","","","","","","","","","","","","","","","","","","","","",""
"","html-keyboard-response","37","1347532","0.0-50.0","971ous1l","935","510","","","","","","","","","","","null","+","Fixation - short","","null","","","","","","","","","","","","",""
"","html-keyboard-response","38","1348741","0.0-51.0","971ous1l","935","510","","","","","","","","","","","1208","rrd","Practice diganostic trial","","f","practice","11","false","0","LEFT","f","1","","","","","",""
"","html-keyboard-response","39","1349500","0.0-54.0","971ous1l","935","510","","","","","","","","","","","null","+","Fixation - short","","null","","","","","","","","","","","","",""
"","html-keyboard-response","40","1350113","0.0-55.0","971ous1l","935","510","","","","","","","","","","","612","ois","Practice diganostic trial","","f","practice","12","false","0","LEFT","f","1","","","","","",""
"","html-keyboard-response","41","1350870","0.0-58.0","971ous1l","935","510","","","","","","","","","","","null","+","Fixation - short","","null","","","","","","","","","","","","",""
"","html-keyboard-response","42","1351632","0.0-59.0","971ous1l","935","510","","","","","","","","","","","762","ois","Practice diganostic trial","","j","practice","13","false","0","LEFT","f","0","","","","","",""
"","call-function","43","1351632","0.0-61.0-0.0","971ous1l","","","","","","","","","","","","","","","","","","","","","","","","","","","","","",""
"","html-keyboard-response","44","1351937","0.0-61.0-1.0","971ous1l","935","510","","","","","","","","","","","null","Wrong","Feedback","","null","","","","","","","","","","","","",""
"","call-function","45","1351937","0.0-61.0-2.0","971ous1l","","","","","","","","","","","","","","","","","","","","","","","","","","","","","",""
"","html-keyboard-response","46","1352699","0.0-62.0","971ous1l","935","510","","","","","","","","","","","null","+","Fixation - short","","null","","","","","","","","","","","","",""
"","html-keyboard-response","47","1353887","0.0-63.0","971ous1l","935","510","","","","","","","","","","","1188","rrd","Practice diganostic trial","","j","practice","14","false","1","RIGHT","j","1","","","","","",""
"","html-keyboard-response","48","1354650","0.0-66.0","971ous1l","935","510","","","","","","","","","","","null","+","Fixation - short","","null","","","","","","","","","","","","",""
"","html-keyboard-response","49","1356074","0.0-67.0","971ous1l","935","510","","","","","","","","","","","1423","ois","Practice diganostic trial","","j","practice","15","false","1","RIGHT","j","1","","","","","",""
"","html-keyboard-response","50","1356835","0.0-70.0","971ous1l","935","510","","","","","","","","","","","null","+","Fixation - short","","null","","","","","","","","","","","","",""
"","instructions","51","1375190","0.0-71.0","971ous1l","935","510","","","","","","","","","","[{""page_index"":0,""viewing_time"":18354}]","18354","Instructions","Final experiment explanation","","","","","","","","","","","","","","",""
"","html-keyboard-response","52","1383999","0.0-72.0","971ous1l","935","510","","","","","","","","","","","7296","If epy press RIGHT | If goj press LEFT","Practice inducer instructions",""," ","practice","","","","","","","","","","","",""
"","html-keyboard-response","53","1384969","0.0-73.0","971ous1l","935","510","","","","","","","","","","","970","","Practice inducer trial","","j","practice","","true","","","j","1","RIGHT","","","","",""
"","html-keyboard-response","54","1385729","0.0-76.0","971ous1l","935","510","","","","","","","","","","","null","+","Fixation - short","","null","","","","","","","","","","","","",""
"","html-keyboard-response","55","1388017","0.0-77.0","971ous1l","935","510","","","","","","","","","","","2288","If eht press RIGHT | If gso press LEFT","Practice inducer instructions",""," ","practice","","","","","","","","","","","",""
"","html-keyboard-response","56","1389469","0.0-78.0","971ous1l","935","510","","","","","","","","","","","1451","","Practice inducer trial","","j","practice","","true","","","j","1","RIGHT","","","","",""
"","html-keyboard-response","57","1390226","0.0-81.0","971ous1l","935","510","","","","","","","","","","","null","+","Fixation - short","","null","","","","","","","","","","","","",""
"","html-keyboard-response","58","1392657","0.0-82.0","971ous1l","935","510","","","","","","","","","","","2430","If ibg press RIGHT | If jsf press LEFT","Practice inducer instructions",""," ","practice","","","","","","","","","","","",""
"","html-keyboard-response","59","1393592","0.0-83.0","971ous1l","935","510","","","","","","","","","","","934","","Practice inducer trial","","f","practice","","true","","","f","1","LEFT","","","","",""
"","html-keyboard-response","60","1394343","0.0-86.0","971ous1l","935","510","","","","","","","","","","","null","+","Fixation - short","","null","","","","","","","","","","","","",""
"","html-keyboard-response","61","1395741","0.0-87.0","971ous1l","935","510","","","","","","","","","","","1397","If bwe press RIGHT | If oez press LEFT","Practice inducer instructions",""," ","practice","","","","","","","","","","","",""
"","html-keyboard-response","62","1396845","0.0-88.0","971ous1l","935","510","","","","","","","","","","","1104","","Practice inducer trial","","f","practice","","true","","","f","1","LEFT","","","","",""
"","html-keyboard-response","63","1397608","0.0-91.0","971ous1l","935","510","","","","","","","","","","","null","+","Fixation - short","","null","","","","","","","","","","","","",""
"","html-keyboard-response","64","1399921","0.0-92.0","971ous1l","935","510","","","","","","","","","","","2313","If pmf press RIGHT | If ume press LEFT","Practice inducer instructions",""," ","practice","","","","","","","","","","","",""
"","html-keyboard-response","65","1400776","0.0-93.0","971ous1l","935","510","","","","","","","","","","","854","","Practice inducer trial","","j","practice","","true","","","j","1","RIGHT","","","","",""
"","html-keyboard-response","66","1401536","0.0-96.0","971ous1l","935","510","","","","","","","","","","","null","+","Fixation - short","","null","","","","","","","","","","","","",""
"","html-keyboard-response","67","1403494","0.0-97.0","971ous1l","935","510","","","","","","","","","","","1957","If ccx press RIGHT | If pbz press LEFT","Practice inducer instructions",""," ","practice","","","","","","","","","","","",""
"","html-keyboard-response","68","1404288","0.0-98.0","971ous1l","935","510","","","","","","","","","","","794","","Practice inducer trial","","f","practice","","true","","","f","1","LEFT","","","","",""
"","html-keyboard-response","69","1405054","0.0-101.0","971ous1l","935","510","","","","","","","","","","","null","+","Fixation - short","","null","","","","","","","","","","","","",""
"","html-keyboard-response","70","1415840","0.0-102.0","971ous1l","935","510","","","","","","","","","","","10785","End practice","End of practice",""," ","","","","","","","","","","","","",""
"","html-keyboard-response","71","1417346","0.0-103.0","971ous1l","935","510","","","","","","","","","","","null","+","Fixation - long","","null","","","","","","","","","","","","",""
"","html-keyboard-response","72","1422032","0.0-104.0","971ous1l","935","510","","","","","","","","","","","4685","If tkb press RIGHT | If ivr press LEFT","Inducer instructions",""," ","0","","","","","","","","","","","",""
"","html-keyboard-response","73","1422788","0.0-105.0","971ous1l","935","510","","","","","","","","","","","null","+","Fixation - short","","null","","","","","","","","","","","","",""
"","html-keyboard-response","74","1423924","0.0-106.0","971ous1l","935","510","","","","","","","","","","","1135","ivr","Diagnostic trial","","j","0","0","false","true","RIGHT","j","1","","RIGHT","true","","",""
"","html-keyboard-response","75","1424678","0.0-109.0","971ous1l","935","510","","","","","","","","","","","null","+","Fixation - short","","null","","","","","","","","","","","","",""
"","html-keyboard-response","76","1425525","0.0-110.0","971ous1l","935","510","","","","","","","","","","","846","ivr","Diagnostic trial","","j","0","1","false","false","LEFT","f","0","","RIGHT","false","","",""
"","call-function","77","1425526","0.0-112.0-0.0","971ous1l","","","","","","","","","","","","","","","","","","","","","","","","","","","","","",""
"","html-keyboard-response","78","1425831","0.0-112.0-1.0","971ous1l","935","510","","","","","","","","","","","null","Wrong","Feedback","","null","","","","","","","","","","","","",""
"","call-function","79","1425832","0.0-112.0-2.0","971ous1l","","","","","","","","","","","","","","","","","","","","","","","","","","","","","",""
"","html-keyboard-response","80","1426583","0.0-113.0","971ous1l","935","510","","","","","","","","","","","null","+","Fixation - short","","null","","","","","","","","","","","","",""
"","html-keyboard-response","81","1427698","0.0-114.0","971ous1l","935","510","","","","","","","","","","","1114","ivr","Diagnostic trial","","f","0","2","false","false","LEFT","f","1","","RIGHT","false","","",""
"","html-keyboard-response","82","1428451","0.0-117.0","971ous1l","935","510","","","","","","","","","","","null","+","Fixation - short","","null","","","","","","","","","","","","",""
"","html-keyboard-response","83","1429241","0.0-118.0","971ous1l","935","510","","","","","","","","","","","790","ivr","Diagnostic trial","","f","0","3","false","false","LEFT","f","1","","RIGHT","false","","",""
"","html-keyboard-response","84","1429994","0.0-121.0","971ous1l","935","510","","","","","","","","","","","null","+","Fixation - short","","null","","","","","","","","","","","","",""
"","html-keyboard-response","85","1431881","0.0-122.0","971ous1l","935","510","","","","","","","","","","","1887","tkb","Diagnostic trial","","f","0","4","false","false","LEFT","f","1","","LEFT","true","","",""
"","html-keyboard-response","86","1432634","0.0-125.0","971ous1l","935","510","","","","","","","","","","","null","+","Fixation - short","","null","","","","","","","","","","","","",""
"","html-keyboard-response","87","1433369","0.0-126.0","971ous1l","935","510","","","","","","","","","","","734","tkb","Diagnostic trial","","f","0","5","false","false","LEFT","f","1","","LEFT","true","","",""
"","html-keyboard-response","88","1434128","0.0-129.0","971ous1l","935","510","","","","","","","","","","","null","+","Fixation - short","","null","","","","","","","","","","","","",""
"","html-keyboard-response","89","1434798","0.0-130.0","971ous1l","935","510","","","","","","","","","","","670","tkb","Diagnostic trial","","j","0","6","false","true","RIGHT","j","1","","LEFT","false","","",""
"","html-keyboard-response","90","1435560","0.0-133.0","971ous1l","935","510","","","","","","","","","","","null","+","Fixation - short","","null","","","","","","","","","","","","",""
"","html-keyboard-response","91","1437245","0.0-134.0","971ous1l","935","510","","","","","","","","","","","1685","tkb","Diagnostic trial","","f","0","7","false","false","LEFT","f","1","","LEFT","true","","",""
"","html-keyboard-response","92","1438005","0.0-137.0","971ous1l","935","510","","","","","","","","","","","null","+","Fixation - short","","null","","","","","","","","","","","","",""
"","html-keyboard-response","93","1439196","0.0-138.0","971ous1l","935","510","","","","","","","","","","","1190","tkb","Diagnostic trial","","f","0","8","false","false","LEFT","f","1","","LEFT","true","","",""
"","html-keyboard-response","94","1439951","0.0-141.0","971ous1l","935","510","","","","","","","","","","","null","+","Fixation - short","","null","","","","","","","","","","","","",""
"","html-keyboard-response","95","1441153","0.0-142.0","971ous1l","935","510","","","","","","","","","","","1201","tkb","Diagnostic trial","","f","0","9","false","false","LEFT","f","1","","LEFT","true","","",""
"","html-keyboard-response","96","1441916","0.0-145.0","971ous1l","935","510","","","","","","","","","","","null","+","Fixation - short","","null","","","","","","","","","","","","",""
"","html-keyboard-response","97","1443127","0.0-146.0","971ous1l","935","510","","","","","","","","","","","1210","ivr","Diagnostic trial","","j","0","10","false","true","RIGHT","j","1","","RIGHT","true","","",""
"","html-keyboard-response","98","1443883","0.0-149.0","971ous1l","935","510","","","","","","","","","","","null","+","Fixation - short","","null","","","","","","","","","","","","",""
"","html-keyboard-response","99","1444449","0.0-150.0","971ous1l","935","510","","","","","","","","","","","566","ivr","Diagnostic trial","","j","0","11","false","true","RIGHT","j","1","","RIGHT","true","","",""
"","html-keyboard-response","100","1445202","0.0-153.0","971ous1l","935","510","","","","","","","","","","","null","+","Fixation - short","","null","","","","","","","","","","","","",""
"","html-keyboard-response","101","1446245","0.0-154.0","971ous1l","935","510","","","","","","","","","","","1042","tkb","Diagnostic trial","","f","0","12","false","false","LEFT","f","1","","LEFT","true","","",""
"","html-keyboard-response","102","1447005","0.0-157.0","971ous1l","935","510","","","","","","","","","","","null","+","Fixation - short","","null","","","","","","","","","","","","",""
"","html-keyboard-response","103","1448431","0.0-158.0","971ous1l","935","510","","","","","","","","","","","1425","ivr","Diagnostic trial","","f","0","13","false","false","LEFT","f","1","","RIGHT","false","","",""
"","html-keyboard-response","104","1449192","0.0-161.0","971ous1l","935","510","","","","","","","","","","","null","+","Fixation - short","","null","","","","","","","","","","","","",""
"","html-keyboard-response","105","1449805","0.0-162.0","971ous1l","935","510","","","","","","","","","","","613","tkb","Diagnostic trial","","f","0","14","false","false","LEFT","f","1","","LEFT","true","","",""
"","html-keyboard-response","106","1450567","0.0-165.0","971ous1l","935","510","","","","","","","","","","","null","+","Fixation - short","","null","","","","","","","","","","","","",""
"","html-keyboard-response","107","1451965","0.0-166.0","971ous1l","935","510","","","","","","","","","","","1397","tkb","Inducer trial","","j","0","","true","","","j","1","RIGHT","","","","",""
"","html-keyboard-response","108","1453472","0.0-169.0","971ous1l","935","510","","","","","","","","","","","null","+","Fixation - long","","null","","","","","","","","","","","","",""
"","html-keyboard-response","109","1461121","0.0-170.0","971ous1l","935","510","","","","","","","","","","","7648","If tgf press RIGHT | If hrc press LEFT","Inducer instructions",""," ","1","","","","","","","","","","","",""
"","html-keyboard-response","110","1461879","0.0-171.0","971ous1l","935","510","","","","","","","","","","","null","+","Fixation - short","","null","","","","","","","","","","","","",""
"","html-keyboard-response","111","1463894","0.0-172.0","971ous1l","935","510","","","","","","","","","","","null","hrc","Diagnostic trial","","null","1","0","false","false","LEFT","f","NaN","","RIGHT","false","","",""
"","call-function","112","1463894","0.0-173.0-0.0","971ous1l","","","","","","","","","","","","","","","","","","","","","","","","","","","","","",""
"","html-keyboard-response","113","1464208","0.0-173.0-1.0","971ous1l","935","510","","","","","","","","","","","null","Slow","Feedback","","null","","","","","","","","","","","","",""
"","call-function","114","1464208","0.0-173.0-2.0","971ous1l","","","","","","","","","","","","","","","","","","","","","","","","","","","","","",""
"","html-keyboard-response","115","1464962","0.0-175.0","971ous1l","935","510","","","","","","","","","","","null","+","Fixation - short","","null","","","","","","","","","","","","",""
"","html-keyboard-response","116","1465693","0.0-176.0","971ous1l","935","510","","","","","","","","","","","731","hrc","Diagnostic trial","","f","1","1","false","true","RIGHT","j","0","","RIGHT","true","","",""
"","call-function","117","1465693","0.0-178.0-0.0","971ous1l","","","","","","","","","","","","","","","","","","","","","","","","","","","","","",""
"","html-keyboard-response","118","1466000","0.0-178.0-1.0","971ous1l","935","510","","","","","","","","","","","null","Wrong","Feedback","","null","","","","","","","","","","","","",""
"","call-function","119","1466001","0.0-178.0-2.0","971ous1l","","","","","","","","","","","","","","","","","","","","","","","","","","","","","",""
"","html-keyboard-response","120","1466755","0.0-179.0","971ous1l","935","510","","","","","","","","","","","null","+","Fixation - short","","null","","","","","","","","","","","","",""
"","html-keyboard-response","121","1467653","0.0-180.0","971ous1l","935","510","","","","","","","","","","","897","hrc","Diagnostic trial","","f","1","2","false","false","LEFT","f","1","","RIGHT","false","","",""
"","html-keyboard-response","122","1468404","0.0-183.0","971ous1l","935","510","","","","","","","","","","","null","+","Fixation - short","","null","","","","","","","","","","","","",""
"","html-keyboard-response","123","1469258","0.0-184.0","971ous1l","935","510","","","","","","","","","","","853","tgf","Diagnostic trial","","j","1","3","false","true","RIGHT","j","1","","LEFT","false","","",""
"","html-keyboard-response","124","1470023","0.0-187.0","971ous1l","935","510","","","","","","","","","","","null","+","Fixation - short","","null","","","","","","","","","","","","",""
"","html-keyboard-response","125","1470768","0.0-188.0","971ous1l","935","510","","","","","","","","","","","745","tgf","Diagnostic trial","","j","1","4","false","true","RIGHT","j","1","","LEFT","false","","",""
"","html-keyboard-response","126","1471529","0.0-191.0","971ous1l","935","510","","","","","","","","","","","null","+","Fixation - short","","null","","","","","","","","","","","","",""
"","html-keyboard-response","127","1472715","0.0-192.0","971ous1l","935","510","","","","","","","","","","","1185","tgf","Diagnostic trial","","f","1","5","false","false","LEFT","f","1","","LEFT","true","","",""
"","html-keyboard-response","128","1473478","0.0-195.0","971ous1l","935","510","","","","","","","","","","","null","+","Fixation - short","","null","","","","","","","","","","","","",""
"","html-keyboard-response","129","1474144","0.0-196.0","971ous1l","935","510","","","","","","","","","","","665","hrc","Diagnostic trial","","f","1","6","false","false","LEFT","f","1","","RIGHT","false","","",""
"","html-keyboard-response","130","1474906","0.0-199.0","971ous1l","935","510","","","","","","","","","","","null","+","Fixation - short","","null","","","","","","","","","","","","",""
"","html-keyboard-response","131","1475811","0.0-200.0","971ous1l","935","510","","","","","","","","","","","904","tgf","Diagnostic trial","","f","1","7","false","false","LEFT","f","1","","LEFT","true","","",""
"","html-keyboard-response","132","1476576","0.0-203.0","971ous1l","935","510","","","","","","","","","","","null","+","Fixation - short","","null","","","","","","","","","","","","",""
"","html-keyboard-response","133","1477287","0.0-204.0","971ous1l","935","510","","","","","","","","","","","711","hrc","Diagnostic trial","","f","1","8","false","false","LEFT","f","1","","RIGHT","false","","",""
"","html-keyboard-response","134","1478046","0.0-207.0","971ous1l","935","510","","","","","","","","","","","null","+","Fixation - short","","null","","","","","","","","","","","","",""
"","html-keyboard-response","135","1479128","0.0-208.0","971ous1l","935","510","","","","","","","","","","","1081","tgf","Diagnostic trial","","f","1","9","false","true","RIGHT","j","0","","LEFT","false","","",""
"","call-function","136","1479128","0.0-210.0-0.0","971ous1l","","","","","","","","","","","","","","","","","","","","","","","","","","","","","",""
"","html-keyboard-response","137","1479435","0.0-210.0-1.0","971ous1l","935","510","","","","","","","","","","","null","Wrong","Feedback","","null","","","","","","","","","","","","",""
"","call-function","138","1479435","0.0-210.0-2.0","971ous1l","","","","","","","","","","","","","","","","","","","","","","","","","","","","","",""
"","html-keyboard-response","139","1480193","0.0-211.0","971ous1l","935","510","","","","","","","","","","","null","+","Fixation - short","","null","","","","","","","","","","","","",""
"","html-keyboard-response","140","1481113","0.0-212.0","971ous1l","935","510","","","","","","","","","","","920","hrc","Diagnostic trial","","f","1","10","false","false","LEFT","f","1","","RIGHT","false","","",""
"","html-keyboard-response","141","1481878","0.0-215.0","971ous1l","935","510","","","","","","","","","","","null","+","Fixation - short","","null","","","","","","","","","","","","",""
"","html-keyboard-response","142","1482442","0.0-216.0","971ous1l","935","510","","","","","","","","","","","564","hrc","Diagnostic trial","","j","1","11","false","true","RIGHT","j","1","","RIGHT","true","","",""
"","html-keyboard-response","143","1483199","0.0-219.0","971ous1l","935","510","","","","","","","","","","","null","+","Fixation - short","","null","","","","","","","","","","","","",""
"","html-keyboard-response","144","1484172","0.0-220.0","971ous1l","935","510","","","","","","","","","","","972","hrc","Diagnostic trial","","j","1","12","false","true","RIGHT","j","1","","RIGHT","true","","",""
"","html-keyboard-response","145","1484933","0.0-223.0","971ous1l","935","510","","","","","","","","","","","null","+","Fixation - short","","null","","","","","","","","","","","","",""
"","html-keyboard-response","146","1485598","0.0-224.0","971ous1l","935","510","","","","","","","","","","","664","tgf","Diagnostic trial","","f","1","13","false","false","LEFT","f","1","","LEFT","true","","",""
"","html-keyboard-response","147","1486362","0.0-227.0","971ous1l","935","510","","","","","","","","","","","null","+","Fixation - short","","null","","","","","","","","","","","","",""
"","html-keyboard-response","148","1486847","0.0-228.0","971ous1l","935","510","","","","","","","","","","","485","hrc","Diagnostic trial","","j","1","14","false","true","RIGHT","j","1","","RIGHT","true","","",""
"","html-keyboard-response","149","1487609","0.0-231.0","971ous1l","935","510","","","","","","","","","","","null","+","Fixation - short","","null","","","","","","","","","","","","",""
"","html-keyboard-response","150","1488199","0.0-232.0","971ous1l","935","510","","","","","","","","","","","589","tgf","Diagnostic trial","","j","1","15","false","true","RIGHT","j","1","","LEFT","false","","",""
"","html-keyboard-response","151","1488960","0.0-235.0","971ous1l","935","510","","","","","","","","","","","null","+","Fixation - short","","null","","","","","","","","","","","","",""
"","html-keyboard-response","152","1489812","0.0-236.0","971ous1l","935","510","","","","","","","","","","","852","hrc","Inducer trial","","j","1","","true","","","f","0","LEFT","","","","",""
"","call-function","153","1489812","0.0-238.0-0.0","971ous1l","","","","","","","","","","","","","","","","","","","","","","","","","","","","","",""
"","html-keyboard-response","154","1490121","0.0-238.0-1.0","971ous1l","935","510","","","","","","","","","","","null","Wrong","Feedback","","null","","","","","","","","","","","","",""
"","call-function","155","1490121","0.0-238.0-2.0","971ous1l","","","","","","","","","","","","","","","","","","","","","","","","","","","","","",""
"","html-keyboard-response","156","1491630","0.0-239.0","971ous1l","935","510","","","","","","","","","","","null","+","Fixation - long","","null","","","","","","","","","","","","",""
"","html-keyboard-response","157","1494514","0.0-240.0","971ous1l","935","510","","","","","","","","","","","2883","If vib press RIGHT | If uus press LEFT","Inducer instructions",""," ","2","","","","","","","","","","","",""
"","html-keyboard-response","158","1495276","0.0-241.0","971ous1l","935","510","","","","","","","","","","","null","+","Fixation - short","","null","","","","","","","","","","","","",""
"","html-keyboard-response","159","1496999","0.0-242.0","971ous1l","935","510","","","","","","","","","","","1723","uus","Diagnostic trial","","f","2","0","false","true","RIGHT","j","0","","RIGHT","true","","",""
"","call-function","160","1496999","0.0-244.0-0.0","971ous1l","","","","","","","","","","","","","","","","","","","","","","","","","","","","","",""
"","html-keyboard-response","161","1497302","0.0-244.0-1.0","971ous1l","935","510","","","","","","","","","","","null","Wrong","Feedback","","null","","","","","","","","","","","","",""
"","call-function","162","1497302","0.0-244.0-2.0","971ous1l","","","","","","","","","","","","","","","","","","","","","","","","","","","","","",""
"","html-keyboard-response","163","1498054","0.0-245.0","971ous1l","935","510","","","","","","","","","","","null","+","Fixation - short","","null","","","","","","","","","","","","",""
"","html-keyboard-response","164","1498931","0.0-246.0","971ous1l","935","510","","","","","","","","","","","877","vib","Diagnostic trial","","j","2","1","false","true","RIGHT","j","1","","LEFT","false","","",""
"","html-keyboard-response","165","1499688","0.0-249.0","971ous1l","935","510","","","","","","","","","","","null","+","Fixation - short","","null","","","","","","","","","","","","",""
"","html-keyboard-response","166","1500273","0.0-250.0","971ous1l","935","510","","","","","","","","","","","584","uus","Diagnostic trial","","f","2","2","false","false","LEFT","f","1","","RIGHT","false","","",""
"","html-keyboard-response","167","1501025","0.0-253.0","971ous1l","935","510","","","","","","","","","","","null","+","Fixation - short","","null","","","","","","","","","","","","",""
"","html-keyboard-response","168","1501911","0.0-254.0","971ous1l","935","510","","","","","","","","","","","885","uus","Diagnostic trial","","j","2","3","false","true","RIGHT","j","1","","RIGHT","true","","",""
"","html-keyboard-response","169","1502666","0.0-257.0","971ous1l","935","510","","","","","","","","","","","null","+","Fixation - short","","null","","","","","","","","","","","","",""
"","html-keyboard-response","170","1503235","0.0-258.0","971ous1l","935","510","","","","","","","","","","","569","vib","Diagnostic trial","","j","2","4","false","true","RIGHT","j","1","","LEFT","false","","",""
"","html-keyboard-response","171","1504000","0.0-261.0","971ous1l","935","510","","","","","","","","","","","null","+","Fixation - short","","null","","","","","","","","","","","","",""
"","html-keyboard-response","172","1504735","0.0-262.0","971ous1l","935","510","","","","","","","","","","","734","uus","Diagnostic trial","","f","2","5","false","false","LEFT","f","1","","RIGHT","false","","",""
"","html-keyboard-response","173","1505495","0.0-265.0","971ous1l","935","510","","","","","","","","","","","null","+","Fixation - short","","null","","","","","","","","","","","","",""
"","html-keyboard-response","174","1506043","0.0-266.0","971ous1l","935","510","","","","","","","","","","","548","uus","Diagnostic trial","","j","2","6","false","true","RIGHT","j","1","","RIGHT","true","","",""
"","html-keyboard-response","175","1506799","0.0-269.0","971ous1l","935","510","","","","","","","","","","","null","+","Fixation - short","","null","","","","","","","","","","","","",""
"","html-keyboard-response","176","1508181","0.0-270.0","971ous1l","935","510","","","","","","","","","","","1381","uus","Inducer trial","","j","2","","true","","","f","0","LEFT","","","","",""
"","call-function","177","1508181","0.0-272.0-0.0","971ous1l","","","","","","","","","","","","","","","","","","","","","","","","","","","","","",""
"","html-keyboard-response","178","1508493","0.0-272.0-1.0","971ous1l","935","510","","","","","","","","","","","null","Wrong","Feedback","","null","","","","","","","","","","","","",""
"","call-function","179","1508493","0.0-272.0-2.0","971ous1l","","","","","","","","","","","","","","","","","","","","","","","","","","","","","",""
"","html-keyboard-response","180","1509998","0.0-273.0","971ous1l","935","510","","","","","","","","","","","null","+","Fixation - long","","null","","","","","","","","","","","","",""
"","html-keyboard-response","181","1513921","0.0-274.0","971ous1l","935","510","","","","","","","","","","","3922","If upf press RIGHT | If gdn press LEFT","Inducer instructions",""," ","3","","","","","","","","","","","",""
"","html-keyboard-response","182","1514683","0.0-275.0","971ous1l","935","510","","","","","","","","","","","null","+","Fixation - short","","null","","","","","","","","","","","","",""
"","html-keyboard-response","183","1515891","0.0-276.0","971ous1l","935","510","","","","","","","","","","","1208","upf","Diagnostic trial","","j","3","0","false","false","LEFT","f","0","","LEFT","true","","",""
"","call-function","184","1515892","0.0-278.0-0.0","971ous1l","","","","","","","","","","","","","","","","","","","","","","","","","","","","","",""
"","html-keyboard-response","185","1516193","0.0-278.0-1.0","971ous1l","935","510","","","","","","","","","","","null","Wrong","Feedback","","null","","","","","","","","","","","","",""
"","call-function","186","1516193","0.0-278.0-2.0","971ous1l","","","","","","","","","","","","","","","","","","","","","","","","","","","","","",""
"","html-keyboard-response","187","1516946","0.0-279.0","971ous1l","935","510","","","","","","","","","","","null","+","Fixation - short","","null","","","","","","","","","","","","",""
"","html-keyboard-response","188","1517713","0.0-280.0","971ous1l","935","510","","","","","","","","","","","766","upf","Diagnostic trial","","f","3","1","false","false","LEFT","f","1","","LEFT","true","","",""
"","html-keyboard-response","189","1518474","0.0-283.0","971ous1l","935","510","","","","","","","","","","","null","+","Fixation - short","","null","","","","","","","","","","","","",""
"","html-keyboard-response","190","1519606","0.0-284.0","971ous1l","935","510","","","","","","","","","","","1131","gdn","Diagnostic trial","","j","3","2","false","true","RIGHT","j","1","","RIGHT","true","","",""
"","html-keyboard-response","191","1520357","0.0-287.0","971ous1l","935","510","","","","","","","","","","","null","+","Fixation - short","","null","","","","","","","","","","","","",""
"","html-keyboard-response","192","1520929","0.0-288.0","971ous1l","935","510","","","","","","","","","","","571","gdn","Diagnostic trial","","j","3","3","false","true","RIGHT","j","1","","RIGHT","true","","",""
"","html-keyboard-response","193","1521693","0.0-291.0","971ous1l","935","510","","","","","","","","","","","null","+","Fixation - short","","null","","","","","","","","","","","","",""
"","html-keyboard-response","194","1522846","0.0-292.0","971ous1l","935","510","","","","","","","","","","","1153","gdn","Inducer trial","","f","3","","true","","","f","1","LEFT","","","","",""
"","html-keyboard-response","195","1524352","0.0-295.0","971ous1l","935","510","","","","","","","","","","","null","+","Fixation - long","","null","","","","","","","","","","","","",""
"","html-keyboard-response","196","1527789","0.0-296.0","971ous1l","935","510","","","","","","","","","","","3436","If snx press RIGHT | If efg press LEFT","Inducer instructions",""," ","4","","","","","","","","","","","",""
"","html-keyboard-response","197","1528571","0.0-297.0","971ous1l","935","510","","","","","","","","","","","null","+","Fixation - short","","null","","","","","","","","","","","","",""
"","html-keyboard-response","198","1529714","0.0-298.0","971ous1l","935","510","","","","","","","","","","","1142","efg","Diagnostic trial","","j","4","0","false","false","LEFT","f","0","","RIGHT","false","","",""
"","call-function","199","1529714","0.0-300.0-0.0","971ous1l","","","","","","","","","","","","","","","","","","","","","","","","","","","","","",""
"","html-keyboard-response","200","1530019","0.0-300.0-1.0","971ous1l","935","510","","","","","","","","","","","null","Wrong","Feedback","","null","","","","","","","","","","","","",""
"","call-function","201","1530019","0.0-300.0-2.0","971ous1l","","","","","","","","","","","","","","","","","","","","","","","","","","","","","",""
"","html-keyboard-response","202","1530771","0.0-301.0","971ous1l","935","510","","","","","","","","","","","null","+","Fixation - short","","null","","","","","","","","","","","","",""
"","html-keyboard-response","203","1531758","0.0-302.0","971ous1l","935","510","","","","","","","","","","","987","snx","Diagnostic trial","","j","4","1","false","true","RIGHT","j","1","","LEFT","false","","",""
"","html-keyboard-response","204","1532519","0.0-305.0","971ous1l","935","510","","","","","","","","","","","null","+","Fixation - short","","null","","","","","","","","","","","","",""
"","html-keyboard-response","205","1533215","0.0-306.0","971ous1l","935","510","","","","","","","","","","","696","efg","Diagnostic trial","","f","4","2","false","false","LEFT","f","1","","RIGHT","false","","",""
"","html-keyboard-response","206","1533979","0.0-309.0","971ous1l","935","510","","","","","","","","","","","null","+","Fixation - short","","null","","","","","","","","","","","","",""
"","html-keyboard-response","207","1534700","0.0-310.0","971ous1l","935","510","","","","","","","","","","","720","efg","Diagnostic trial","","f","4","3","false","false","LEFT","f","1","","RIGHT","false","","",""
"","html-keyboard-response","208","1535462","0.0-313.0","971ous1l","935","510","","","","","","","","","","","null","+","Fixation - short","","null","","","","","","","","","","","","",""
"","html-keyboard-response","209","1536489","0.0-314.0","971ous1l","935","510","","","","","","","","","","","1027","efg","Diagnostic trial","","j","4","4","false","true","RIGHT","j","1","","RIGHT","true","","",""
"","html-keyboard-response","210","1537240","0.0-317.0","971ous1l","935","510","","","","","","","","","","","null","+","Fixation - short","","null","","","","","","","","","","","","",""
"","html-keyboard-response","211","1538181","0.0-318.0","971ous1l","935","510","","","","","","","","","","","940","snx","Inducer trial","","j","4","","true","","","j","1","RIGHT","","","","",""
"","html-keyboard-response","212","1539692","0.0-321.0","971ous1l","935","510","","","","","","","","","","","null","+","Fixation - long","","null","","","","","","","","","","","","",""
"","html-keyboard-response","213","1541550","0.0-322.0","971ous1l","935","510","","","","","","","","","","","1858","If mmo press RIGHT | If dij press LEFT","Inducer instructions",""," ","5","","","","","","","","","","","",""
"","html-keyboard-response","214","1542304","0.0-323.0","971ous1l","935","510","","","","","","","","","","","null","+","Fixation - short","","null","","","","","","","","","","","","",""
"","html-keyboard-response","215","1543698","0.0-324.0","971ous1l","935","510","","","","","","","","","","","1394","dij","Diagnostic trial","","f","5","0","false","false","LEFT","f","1","","RIGHT","false","","",""
"","html-keyboard-response","216","1544455","0.0-327.0","971ous1l","935","510","","","","","","","","","","","null","+","Fixation - short","","null","","","","","","","","","","","","",""
"","html-keyboard-response","217","1545072","0.0-328.0","971ous1l","935","510","","","","","","","","","","","617","mmo","Diagnostic trial","","j","5","1","false","true","RIGHT","j","1","","LEFT","false","","",""
"","html-keyboard-response","218","1545836","0.0-331.0","971ous1l","935","510","","","","","","","","","","","null","+","Fixation - short","","null","","","","","","","","","","","","",""
"","html-keyboard-response","219","1546759","0.0-332.0","971ous1l","935","510","","","","","","","","","","","922","dij","Diagnostic trial","","f","5","2","false","true","RIGHT","j","0","","RIGHT","true","","",""
"","call-function","220","1546759","0.0-334.0-0.0","971ous1l","","","","","","","","","","","","","","","","","","","","","","","","","","","","","",""
"","html-keyboard-response","221","1547063","0.0-334.0-1.0","971ous1l","935","510","","","","","","","","","","","null","Wrong","Feedback","","null","","","","","","","","","","","","",""
"","call-function","222","1547064","0.0-334.0-2.0","971ous1l","","","","","","","","","","","","","","","","","","","","","","","","","","","","","",""
"","html-keyboard-response","223","1547816","0.0-335.0","971ous1l","935","510","","","","","","","","","","","null","+","Fixation - short","","null","","","","","","","","","","","","",""
"","html-keyboard-response","224","1549106","0.0-336.0","971ous1l","935","510","","","","","","","","","","","1289","mmo","Diagnostic trial","","j","5","3","false","true","RIGHT","j","1","","LEFT","false","","",""
"","html-keyboard-response","225","1549864","0.0-339.0","971ous1l","935","510","","","","","","","","","","","null","+","Fixation - short","","null","","","","","","","","","","","","",""
"","html-keyboard-response","226","1550588","0.0-340.0","971ous1l","935","510","","","","","","","","","","","723","dij","Diagnostic trial","","f","5","4","false","false","LEFT","f","1","","RIGHT","false","","",""
"","html-keyboard-response","227","1551341","0.0-343.0","971ous1l","935","510","","","","","","","","","","","null","+","Fixation - short","","null","","","","","","","","","","","","",""
"","html-keyboard-response","228","1551966","0.0-344.0","971ous1l","935","510","","","","","","","","","","","625","mmo","Diagnostic trial","","j","5","5","false","true","RIGHT","j","1","","LEFT","false","","",""
"","html-keyboard-response","229","1552725","0.0-347.0","971ous1l","935","510","","","","","","","","","","","null","+","Fixation - short","","null","","","","","","","","","","","","",""
"","html-keyboard-response","230","1553440","0.0-348.0","971ous1l","935","510","","","","","","","","","","","715","dij","Diagnostic trial","","j","5","6","false","true","RIGHT","j","1","","RIGHT","true","","",""
"","html-keyboard-response","231","1554202","0.0-351.0","971ous1l","935","510","","","","","","","","","","","null","+","Fixation - short","","null","","","","","","","","","","","","",""
"","html-keyboard-response","232","1554909","0.0-352.0","971ous1l","935","510","","","","","","","","","","","707","mmo","Diagnostic trial","","j","5","7","false","true","RIGHT","j","1","","LEFT","false","","",""
"","html-keyboard-response","233","1555661","0.0-355.0","971ous1l","935","510","","","","","","","","","","","null","+","Fixation - short","","null","","","","","","","","","","","","",""
"","html-keyboard-response","234","1556317","0.0-356.0","971ous1l","935","510","","","","","","","","","","","656","mmo","Diagnostic trial","","f","5","8","false","false","LEFT","f","1","","LEFT","true","","",""
"","html-keyboard-response","235","1557075","0.0-359.0","971ous1l","935","510","","","","","","","","","","","null","+","Fixation - short","","null","","","","","","","","","","","","",""
"","html-keyboard-response","236","1558119","0.0-360.0","971ous1l","935","510","","","","","","","","","","","1043","dij","Diagnostic trial","","j","5","9","false","true","RIGHT","j","1","","RIGHT","true","","",""
"","html-keyboard-response","237","1558879","0.0-363.0","971ous1l","935","510","","","","","","","","","","","null","+","Fixation - short","","null","","","","","","","","","","","","",""
"","html-keyboard-response","238","1559575","0.0-364.0","971ous1l","935","510","","","","","","","","","","","696","mmo","Inducer trial","","j","5","","true","","","j","1","RIGHT","","","","",""
"","html-keyboard-response","239","1561078","0.0-367.0","971ous1l","935","510","","","","","","","","","","","null","+","Fixation - long","","null","","","","","","","","","","","","",""
"","html-keyboard-response","240","1565982","0.0-368.0","971ous1l","935","510","","","","","","","","","","","4904","If yna press RIGHT | If jcr press LEFT","Inducer instructions",""," ","6","","","","","","","","","","","",""
"","html-keyboard-response","241","1566737","0.0-369.0","971ous1l","935","510","","","","","","","","","","","null","+","Fixation - short","","null","","","","","","","","","","","","",""
"","html-keyboard-response","242","1567857","0.0-370.0","971ous1l","935","510","","","","","","","","","","","1120","yna","Diagnostic trial","","j","6","0","false","true","RIGHT","j","1","","LEFT","false","","",""
"","html-keyboard-response","243","1568621","0.0-373.0","971ous1l","935","510","","","","","","","","","","","null","+","Fixation - short","","null","","","","","","","","","","","","",""
"","html-keyboard-response","244","1569740","0.0-374.0","971ous1l","935","510","","","","","","","","","","","1118","jcr","Diagnostic trial","","f","6","1","false","false","LEFT","f","1","","RIGHT","false","","",""
"","html-keyboard-response","245","1570505","0.0-377.0","971ous1l","935","510","","","","","","","","","","","null","+","Fixation - short","","null","","","","","","","","","","","","",""
"","html-keyboard-response","246","1571734","0.0-378.0","971ous1l","935","510","","","","","","","","","","","1228","yna","Diagnostic trial","","f","6","2","false","false","LEFT","f","1","","LEFT","true","","",""
"","html-keyboard-response","247","1572498","0.0-381.0","971ous1l","935","510","","","","","","","","","","","null","+","Fixation - short","","null","","","","","","","","","","","","",""
"","html-keyboard-response","248","1573492","0.0-382.0","971ous1l","935","510","","","","","","","","","","","994","jcr","Diagnostic trial","","j","6","3","false","false","LEFT","f","0","","RIGHT","false","","",""
"","call-function","249","1573492","0.0-384.0-0.0","971ous1l","","","","","","","","","","","","","","","","","","","","","","","","","","","","","",""
"","html-keyboard-response","250","1573803","0.0-384.0-1.0","971ous1l","935","510","","","","","","","","","","","null","Wrong","Feedback","","null","","","","","","","","","","","","",""
"","call-function","251","1573803","0.0-384.0-2.0","971ous1l","","","","","","","","","","","","","","","","","","","","","","","","","","","","","",""
"","html-keyboard-response","252","1574560","0.0-385.0","971ous1l","935","510","","","","","","","","","","","null","+","Fixation - short","","null","","","","","","","","","","","","",""
"","html-keyboard-response","253","1575716","0.0-386.0","971ous1l","935","510","","","","","","","","","","","1156","jcr","Inducer trial","","j","6","","true","","","f","0","LEFT","","","","",""
"","call-function","254","1575717","0.0-388.0-0.0","971ous1l","","","","","","","","","","","","","","","","","","","","","","","","","","","","","",""
"","html-keyboard-response","255","1576024","0.0-388.0-1.0","971ous1l","935","510","","","","","","","","","","","null","Wrong","Feedback","","null","","","","","","","","","","","","",""
"","call-function","256","1576024","0.0-388.0-2.0","971ous1l","","","","","","","","","","","","","","","","","","","","","","","","","","","","","",""
"","html-keyboard-response","257","1577534","0.0-389.0","971ous1l","935","510","","","","","","","","","","","null","+","Fixation - long","","null","","","","","","","","","","","","",""
"","html-keyboard-response","258","1580245","0.0-390.0","971ous1l","935","510","","","","","","","","","","","2711","If amb press RIGHT | If jup press LEFT","Inducer instructions",""," ","7","","","","","","","","","","","",""
"","html-keyboard-response","259","1580996","0.0-391.0","971ous1l","935","510","","","","","","","","","","","null","+","Fixation - short","","null","","","","","","","","","","","","",""
"","html-keyboard-response","260","1582181","0.0-392.0","971ous1l","935","510","","","","","","","","","","","1184","jup","Diagnostic trial","","j","7","0","false","false","LEFT","f","0","","RIGHT","false","","",""
"","call-function","261","1582181","0.0-394.0-0.0","971ous1l","","","","","","","","","","","","","","","","","","","","","","","","","","","","","",""
"","html-keyboard-response","262","1582489","0.0-394.0-1.0","971ous1l","935","510","","","","","","","","","","","null","Wrong","Feedback","","null","","","","","","","","","","","","",""
"","call-function","263","1582489","0.0-394.0-2.0","971ous1l","","","","","","","","","","","","","","","","","","","","","","","","","","","","","",""
"","html-keyboard-response","264","1583245","0.0-395.0","971ous1l","935","510","","","","","","","","","","","null","+","Fixation - short","","null","","","","","","","","","","","","",""
"","html-keyboard-response","265","1583932","0.0-396.0","971ous1l","935","510","","","","","","","","","","","687","amb","Diagnostic trial","","f","7","1","false","false","LEFT","f","1","","LEFT","true","","",""
"","html-keyboard-response","266","1584690","0.0-399.0","971ous1l","935","510","","","","","","","","","","","null","+","Fixation - short","","null","","","","","","","","","","","","",""
"","html-keyboard-response","267","1585236","0.0-400.0","971ous1l","935","510","","","","","","","","","","","545","amb","Diagnostic trial","","j","7","2","false","true","RIGHT","j","1","","LEFT","false","","",""
"","html-keyboard-response","268","1585992","0.0-403.0","971ous1l","935","510","","","","","","","","","","","null","+","Fixation - short","","null","","","","","","","","","","","","",""
"","html-keyboard-response","269","1586720","0.0-404.0","971ous1l","935","510","","","","","","","","","","","727","amb","Diagnostic trial","","j","7","3","false","true","RIGHT","j","1","","LEFT","false","","",""
"","html-keyboard-response","270","1587483","0.0-407.0","971ous1l","935","510","","","","","","","","","","","null","+","Fixation - short","","null","","","","","","","","","","","","",""
"","html-keyboard-response","271","1588396","0.0-408.0","971ous1l","935","510","","","","","","","","","","","913","jup","Diagnostic trial","","j","7","4","false","true","RIGHT","j","1","","RIGHT","true","","",""
"","html-keyboard-response","272","1589161","0.0-411.0","971ous1l","935","510","","","","","","","","","","","null","+","Fixation - short","","null","","","","","","","","","","","","",""
"","html-keyboard-response","273","1590058","0.0-412.0","971ous1l","935","510","","","","","","","","","","","896","amb","Diagnostic trial","","j","7","5","false","true","RIGHT","j","1","","LEFT","false","","",""
"","html-keyboard-response","274","1590809","0.0-415.0","971ous1l","935","510","","","","","","","","","","","null","+","Fixation - short","","null","","","","","","","","","","","","",""
"","html-keyboard-response","275","1591664","0.0-416.0","971ous1l","935","510","","","","","","","","","","","854","jup","Diagnostic trial","","j","7","6","false","true","RIGHT","j","1","","RIGHT","true","","",""
"","html-keyboard-response","276","1592428","0.0-419.0","971ous1l","935","510","","","","","","","","","","","null","+","Fixation - short","","null","","","","","","","","","","","","",""
"","html-keyboard-response","277","1593037","0.0-420.0","971ous1l","935","510","","","","","","","","","","","608","jup","Diagnostic trial","","j","7","7","false","true","RIGHT","j","1","","RIGHT","true","","",""
"","html-keyboard-response","278","1593795","0.0-423.0","971ous1l","935","510","","","","","","","","","","","null","+","Fixation - short","","null","","","","","","","","","","","","",""
"","html-keyboard-response","279","1594454","0.0-424.0","971ous1l","935","510","","","","","","","","","","","658","amb","Diagnostic trial","","f","7","8","false","false","LEFT","f","1","","LEFT","true","","",""
"","html-keyboard-response","280","1595209","0.0-427.0","971ous1l","935","510","","","","","","","","","","","null","+","Fixation - short","","null","","","","","","","","","","","","",""
"","html-keyboard-response","281","1596331","0.0-428.0","971ous1l","935","510","","","","","","","","","","","1121","amb","Diagnostic trial","","j","7","9","false","true","RIGHT","j","1","","LEFT","false","","",""
"","html-keyboard-response","282","1597095","0.0-431.0","971ous1l","935","510","","","","","","","","","","","null","+","Fixation - short","","null","","","","","","","","","","","","",""
"","html-keyboard-response","283","1597815","0.0-432.0","971ous1l","935","510","","","","","","","","","","","720","jup","Diagnostic trial","","f","7","10","false","false","LEFT","f","1","","RIGHT","false","","",""
"","html-keyboard-response","284","1598579","0.0-435.0","971ous1l","935","510","","","","","","","","","","","null","+","Fixation - short","","null","","","","","","","","","","","","",""
"","html-keyboard-response","285","1599404","0.0-436.0","971ous1l","935","510","","","","","","","","","","","825","amb","Diagnostic trial","","f","7","11","false","false","LEFT","f","1","","LEFT","true","","",""
"","html-keyboard-response","286","1600168","0.0-439.0","971ous1l","935","510","","","","","","","","","","","null","+","Fixation - short","","null","","","","","","","","","","","","",""
"","html-keyboard-response","287","1600817","0.0-440.0","971ous1l","935","510","","","","","","","","","","","648","amb","Diagnostic trial","","f","7","12","false","false","LEFT","f","1","","LEFT","true","","",""
"","html-keyboard-response","288","1601580","0.0-443.0","971ous1l","935","510","","","","","","","","","","","null","+","Fixation - short","","null","","","","","","","","","","","","",""
"","html-keyboard-response","289","1602318","0.0-444.0","971ous1l","935","510","","","","","","","","","","","737","amb","Diagnostic trial","","j","7","13","false","true","RIGHT","j","1","","LEFT","false","","",""
"","html-keyboard-response","290","1603084","0.0-447.0","971ous1l","935","510","","","","","","","","","","","null","+","Fixation - short","","null","","","","","","","","","","","","",""
"","html-keyboard-response","291","1603827","0.0-448.0","971ous1l","935","510","","","","","","","","","","","743","amb","Diagnostic trial","","f","7","14","false","false","LEFT","f","1","","LEFT","true","","",""
"","html-keyboard-response","292","1604589","0.0-451.0","971ous1l","935","510","","","","","","","","","","","null","+","Fixation - short","","null","","","","","","","","","","","","",""
"","html-keyboard-response","293","1605374","0.0-452.0","971ous1l","935","510","","","","","","","","","","","784","amb","Diagnostic trial","","f","7","15","false","false","LEFT","f","1","","LEFT","true","","",""
"","html-keyboard-response","294","1606127","0.0-455.0","971ous1l","935","510","","","","","","","","","","","null","+","Fixation - short","","null","","","","","","","","","","","","",""
"","html-keyboard-response","295","1606859","0.0-456.0","971ous1l","935","510","","","","","","","","","","","731","amb","Inducer trial","","j","7","","true","","","j","1","RIGHT","","","","",""
"","html-keyboard-response","296","1608366","0.0-459.0","971ous1l","935","510","","","","","","","","","","","null","+","Fixation - long","","null","","","","","","","","","","","","",""
"","html-keyboard-response","297","1611900","0.0-460.0","971ous1l","935","510","","","","","","","","","","","3533","If hlb press RIGHT | If ori press LEFT","Inducer instructions",""," ","8","","","","","","","","","","","",""
"","html-keyboard-response","298","1612658","0.0-461.0","971ous1l","935","510","","","","","","","","","","","null","+","Fixation - short","","null","","","","","","","","","","","","",""
"","html-keyboard-response","299","1613377","0.0-462.0","971ous1l","935","510","","","","","","","","","","","718","hlb","Diagnostic trial","","j","8","0","false","true","RIGHT","j","1","","LEFT","false","","",""
"","html-keyboard-response","300","1614133","0.0-465.0","971ous1l","935","510","","","","","","","","","","","null","+","Fixation - short","","null","","","","","","","","","","","","",""
"","html-keyboard-response","301","1614997","0.0-466.0","971ous1l","935","510","","","","","","","","","","","863","ori","Diagnostic trial","","f","8","1","false","true","RIGHT","j","0","","RIGHT","true","","",""
"","call-function","302","1614997","0.0-468.0-0.0","971ous1l","","","","","","","","","","","","","","","","","","","","","","","","","","","","","",""
"","html-keyboard-response","303","1615309","0.0-468.0-1.0","971ous1l","935","510","","","","","","","","","","","null","Wrong","Feedback","","null","","","","","","","","","","","","",""
"","call-function","304","1615309","0.0-468.0-2.0","971ous1l","","","","","","","","","","","","","","","","","","","","","","","","","","","","","",""
"","html-keyboard-response","305","1616063","0.0-469.0","971ous1l","935","510","","","","","","","","","","","null","+","Fixation - short","","null","","","","","","","","","","","","",""
"","html-keyboard-response","306","1616844","0.0-470.0","971ous1l","935","510","","","","","","","","","","","780","hlb","Diagnostic trial","","f","8","2","false","false","LEFT","f","1","","LEFT","true","","",""
"","html-keyboard-response","307","1617605","0.0-473.0","971ous1l","935","510","","","","","","","","","","","null","+","Fixation - short","","null","","","","","","","","","","","","",""
"","html-keyboard-response","308","1618191","0.0-474.0","971ous1l","935","510","","","","","","","","","","","586","hlb","Diagnostic trial","","f","8","3","false","false","LEFT","f","1","","LEFT","true","","",""
"","html-keyboard-response","309","1618955","0.0-477.0","971ous1l","935","510","","","","","","","","","","","null","+","Fixation - short","","null","","","","","","","","","","","","",""
"","html-keyboard-response","310","1619826","0.0-478.0","971ous1l","935","510","","","","","","","","","","","870","ori","Diagnostic trial","","f","8","4","false","false","LEFT","f","1","","RIGHT","false","","",""
"","html-keyboard-response","311","1620585","0.0-481.0","971ous1l","935","510","","","","","","","","","","","null","+","Fixation - short","","null","","","","","","","","","","","","",""
"","html-keyboard-response","312","1621083","0.0-482.0","971ous1l","935","510","","","","","","","","","","","497","hlb","Diagnostic trial","","j","8","5","false","true","RIGHT","j","1","","LEFT","false","","",""
"","html-keyboard-response","313","1621845","0.0-485.0","971ous1l","935","510","","","","","","","","","","","null","+","Fixation - short","","null","","","","","","","","","","","","",""
"","html-keyboard-response","314","1622450","0.0-486.0","971ous1l","935","510","","","","","","","","","","","604","ori","Diagnostic trial","","j","8","6","false","false","LEFT","f","0","","RIGHT","false","","",""
"","call-function","315","1622450","0.0-488.0-0.0","971ous1l","","","","","","","","","","","","","","","","","","","","","","","","","","","","","",""
"","html-keyboard-response","316","1622766","0.0-488.0-1.0","971ous1l","935","510","","","","","","","","","","","null","Wrong","Feedback","","null","","","","","","","","","","","","",""
"","call-function","317","1622767","0.0-488.0-2.0","971ous1l","","","","","","","","","","","","","","","","","","","","","","","","","","","","","",""
"","html-keyboard-response","318","1623520","0.0-489.0","971ous1l","935","510","","","","","","","","","","","null","+","Fixation - short","","null","","","","","","","","","","","","",""
"","html-keyboard-response","319","1624092","0.0-490.0","971ous1l","935","510","","","","","","","","","","","571","ori","Diagnostic trial","","j","8","7","false","false","LEFT","f","0","","RIGHT","false","","",""
"","call-function","320","1624092","0.0-492.0-0.0","971ous1l","","","","","","","","","","","","","","","","","","","","","","","","","","","","","",""
"","html-keyboard-response","321","1624398","0.0-492.0-1.0","971ous1l","935","510","","","","","","","","","","","null","Wrong","Feedback","","null","","","","","","","","","","","","",""
"","call-function","322","1624398","0.0-492.0-2.0","971ous1l","","","","","","","","","","","","","","","","","","","","","","","","","","","","","",""
"","html-keyboard-response","323","1625164","0.0-493.0","971ous1l","935","510","","","","","","","","","","","null","+","Fixation - short","","null","","","","","","","","","","","","",""
"","html-keyboard-response","324","1625936","0.0-494.0","971ous1l","935","510","","","","","","","","","","","772","hlb","Diagnostic trial","","j","8","8","false","true","RIGHT","j","1","","LEFT","false","","",""
"","html-keyboard-response","325","1626691","0.0-497.0","971ous1l","935","510","","","","","","","","","","","null","+","Fixation - short","","null","","","","","","","","","","","","",""
"","html-keyboard-response","326","1627448","0.0-498.0","971ous1l","935","510","","","","","","","","","","","756","hlb","Diagnostic trial","","f","8","9","false","false","LEFT","f","1","","LEFT","true","","",""
"","html-keyboard-response","327","1628202","0.0-501.0","971ous1l","935","510","","","","","","","","","","","null","+","Fixation - short","","null","","","","","","","","","","","","",""
"","html-keyboard-response","328","1628892","0.0-502.0","971ous1l","935","510","","","","","","","","","","","689","hlb","Diagnostic trial","","j","8","10","false","true","RIGHT","j","1","","LEFT","false","","",""
"","html-keyboard-response","329","1629658","0.0-505.0","971ous1l","935","510","","","","","","","","","","","null","+","Fixation - short","","null","","","","","","","","","","","","",""
"","html-keyboard-response","330","1630135","0.0-506.0","971ous1l","935","510","","","","","","","","","","","476","hlb","Diagnostic trial","","j","8","11","false","true","RIGHT","j","1","","LEFT","false","","",""
"","html-keyboard-response","331","1630900","0.0-509.0","971ous1l","935","510","","","","","","","","","","","null","+","Fixation - short","","null","","","","","","","","","","","","",""
"","html-keyboard-response","332","1631650","0.0-510.0","971ous1l","935","510","","","","","","","","","","","750","ori","Diagnostic trial","","f","8","12","false","false","LEFT","f","1","","RIGHT","false","","",""
"","html-keyboard-response","333","1632402","0.0-513.0","971ous1l","935","510","","","","","","","","","","","null","+","Fixation - short","","null","","","","","","","","","","","","",""
"","html-keyboard-response","334","1633078","0.0-514.0","971ous1l","935","510","","","","","","","","","","","676","ori","Diagnostic trial","","j","8","13","false","true","RIGHT","j","1","","RIGHT","true","","",""
"","html-keyboard-response","335","1633842","0.0-517.0","971ous1l","935","510","","","","","","","","","","","null","+","Fixation - short","","null","","","","","","","","","","","","",""
"","html-keyboard-response","336","1634805","0.0-518.0","971ous1l","935","510","","","","","","","","","","","963","ori","Diagnostic trial","","f","8","14","false","false","LEFT","f","1","","RIGHT","false","","",""
"","html-keyboard-response","337","1635567","0.0-521.0","971ous1l","935","510","","","","","","","","","","","null","+","Fixation - short","","null","","","","","","","","","","","","",""
"","html-keyboard-response","338","1636154","0.0-522.0","971ous1l","935","510","","","","","","","","","","","587","hlb","Diagnostic trial","","f","8","15","false","false","LEFT","f","1","","LEFT","true","","",""
"","html-keyboard-response","339","1636917","0.0-525.0","971ous1l","935","510","","","","","","","","","","","null","+","Fixation - short","","null","","","","","","","","","","","","",""
"","html-keyboard-response","340","1637902","0.0-526.0","971ous1l","935","510","","","","","","","","","","","984","hlb","Inducer trial","","j","8","","true","","","j","1","RIGHT","","","","",""
"","html-keyboard-response","341","1639416","0.0-529.0","971ous1l","935","510","","","","","","","","","","","null","+","Fixation - long","","null","","","","","","","","","","","","",""
"","html-keyboard-response","342","1645068","0.0-530.0","971ous1l","935","510","","","","","","","","","","","5651","If chy press RIGHT | If rpw press LEFT","Inducer instructions",""," ","9","","","","","","","","","","","",""
"","html-keyboard-response","343","1645832","0.0-531.0","971ous1l","935","510","","","","","","","","","","","null","+","Fixation - short","","null","","","","","","","","","","","","",""
"","html-keyboard-response","344","1646614","0.0-532.0","971ous1l","935","510","","","","","","","","","","","781","chy","Diagnostic trial","","f","9","0","false","false","LEFT","f","1","","LEFT","true","","",""
"","html-keyboard-response","345","1647370","0.0-535.0","971ous1l","935","510","","","","","","","","","","","null","+","Fixation - short","","null","","","","","","","","","","","","",""
"","html-keyboard-response","346","1648048","0.0-536.0","971ous1l","935","510","","","","","","","","","","","677","rpw","Diagnostic trial","","f","9","1","false","false","LEFT","f","1","","RIGHT","false","","",""
"","html-keyboard-response","347","1648814","0.0-539.0","971ous1l","935","510","","","","","","","","","","","null","+","Fixation - short","","null","","","","","","","","","","","","",""
"","html-keyboard-response","348","1649455","0.0-540.0","971ous1l","935","510","","","","","","","","","","","641","chy","Diagnostic trial","","j","9","2","false","true","RIGHT","j","1","","LEFT","false","","",""
"","html-keyboard-response","349","1650206","0.0-543.0","971ous1l","935","510","","","","","","","","","","","null","+","Fixation - short","","null","","","","","","","","","","","","",""
"","html-keyboard-response","350","1650912","0.0-544.0","971ous1l","935","510","","","","","","","","","","","705","chy","Diagnostic trial","","f","9","3","false","false","LEFT","f","1","","LEFT","true","","",""
"","html-keyboard-response","351","1651666","0.0-547.0","971ous1l","935","510","","","","","","","","","","","null","+","Fixation - short","","null","","","","","","","","","","","","",""
"","html-keyboard-response","352","1652511","0.0-548.0","971ous1l","935","510","","","","","","","","","","","845","rpw","Diagnostic trial","","f","9","4","false","false","LEFT","f","1","","RIGHT","false","","",""
"","html-keyboard-response","353","1653267","0.0-551.0","971ous1l","935","510","","","","","","","","","","","null","+","Fixation - short","","null","","","","","","","","","","","","",""
"","html-keyboard-response","354","1653791","0.0-552.0","971ous1l","935","510","","","","","","","","","","","524","rpw","Diagnostic trial","","j","9","5","false","true","RIGHT","j","1","","RIGHT","true","","",""
"","html-keyboard-response","355","1654549","0.0-555.0","971ous1l","935","510","","","","","","","","","","","null","+","Fixation - short","","null","","","","","","","","","","","","",""
"","html-keyboard-response","356","1655202","0.0-556.0","971ous1l","935","510","","","","","","","","","","","652","rpw","Diagnostic trial","","f","9","6","false","false","LEFT","f","1","","RIGHT","false","","",""
"","html-keyboard-response","357","1655956","0.0-559.0","971ous1l","935","510","","","","","","","","","","","null","+","Fixation - short","","null","","","","","","","","","","","","",""
"","html-keyboard-response","358","1657190","0.0-560.0","971ous1l","935","510","","","","","","","","","","","1233","chy","Diagnostic trial","","f","9","7","false","false","LEFT","f","1","","LEFT","true","","",""
"","html-keyboard-response","359","1657949","0.0-563.0","971ous1l","935","510","","","","","","","","","","","null","+","Fixation - short","","null","","","","","","","","","","","","",""
"","html-keyboard-response","360","1658828","0.0-564.0","971ous1l","935","510","","","","","","","","","","","878","rpw","Diagnostic trial","","j","9","8","false","true","RIGHT","j","1","","RIGHT","true","","",""
"","html-keyboard-response","361","1659579","0.0-567.0","971ous1l","935","510","","","","","","","","","","","null","+","Fixation - short","","null","","","","","","","","","","","","",""
"","html-keyboard-response","362","1660310","0.0-568.0","971ous1l","935","510","","","","","","","","","","","731","chy","Diagnostic trial","","f","9","9","false","false","LEFT","f","1","","LEFT","true","","",""
"","html-keyboard-response","363","1661070","0.0-571.0","971ous1l","935","510","","","","","","","","","","","null","+","Fixation - short","","null","","","","","","","","","","","","",""
"","html-keyboard-response","364","1662222","0.0-572.0","971ous1l","935","510","","","","","","","","","","","1152","rpw","Diagnostic trial","","j","9","10","false","true","RIGHT","j","1","","RIGHT","true","","",""
"","html-keyboard-response","365","1662985","0.0-575.0","971ous1l","935","510","","","","","","","","","","","null","+","Fixation - short","","null","","","","","","","","","","","","",""
"","html-keyboard-response","366","1663584","0.0-576.0","971ous1l","935","510","","","","","","","","","","","599","rpw","Diagnostic trial","","j","9","11","false","true","RIGHT","j","1","","RIGHT","true","","",""
"","html-keyboard-response","367","1664344","0.0-579.0","971ous1l","935","510","","","","","","","","","","","null","+","Fixation - short","","null","","","","","","","","","","","","",""
"","html-keyboard-response","368","1665163","0.0-580.0","971ous1l","935","510","","","","","","","","","","","819","rpw","Diagnostic trial","","f","9","12","false","false","LEFT","f","1","","RIGHT","false","","",""
"","html-keyboard-response","369","1665915","0.0-583.0","971ous1l","935","510","","","","","","","","","","","null","+","Fixation - short","","null","","","","","","","","","","","","",""
"","html-keyboard-response","370","1666725","0.0-584.0","971ous1l","935","510","","","","","","","","","","","810","chy","Inducer trial","","j","9","","true","","","j","1","RIGHT","","","","",""
"","html-keyboard-response","371","1668242","0.0-587.0","971ous1l","935","510","","","","","","","","","","","null","+","Fixation - long","","null","","","","","","","","","","","","",""
"","html-keyboard-response","372","1672250","0.0-588.0","971ous1l","935","510","","","","","","","","","","","4008","If quy press RIGHT | If adj press LEFT","Inducer instructions",""," ","10","","","","","","","","","","","",""
"","html-keyboard-response","373","1673015","0.0-589.0","971ous1l","935","510","","","","","","","","","","","null","+","Fixation - short","","null","","","","","","","","","","","","",""
"","html-keyboard-response","374","1674037","0.0-590.0","971ous1l","935","510","","","","","","","","","","","1022","quy","Diagnostic trial","","f","10","0","false","true","RIGHT","j","0","","LEFT","false","","",""
"","call-function","375","1674037","0.0-592.0-0.0","971ous1l","","","","","","","","","","","","","","","","","","","","","","","","","","","","","",""
"","html-keyboard-response","376","1674351","0.0-592.0-1.0","971ous1l","935","510","","","","","","","","","","","null","Wrong","Feedback","","null","","","","","","","","","","","","",""
"","call-function","377","1674351","0.0-592.0-2.0","971ous1l","","","","","","","","","","","","","","","","","","","","","","","","","","","","","",""
"","html-keyboard-response","378","1675118","0.0-593.0","971ous1l","935","510","","","","","","","","","","","null","+","Fixation - short","","null","","","","","","","","","","","","",""
"","html-keyboard-response","379","1676784","0.0-594.0","971ous1l","935","510","","","","","","","","","","","1666","adj","Diagnostic trial","","f","10","1","false","false","LEFT","f","1","","RIGHT","false","","",""
"","html-keyboard-response","380","1677538","0.0-597.0","971ous1l","935","510","","","","","","","","","","","null","+","Fixation - short","","null","","","","","","","","","","","","",""
"","html-keyboard-response","381","1678387","0.0-598.0","971ous1l","935","510","","","","","","","","","","","848","adj","Diagnostic trial","","f","10","2","false","false","LEFT","f","1","","RIGHT","false","","",""
"","html-keyboard-response","382","1679152","0.0-601.0","971ous1l","935","510","","","","","","","","","","","null","+","Fixation - short","","null","","","","","","","","","","","","",""
"","html-keyboard-response","383","1679651","0.0-602.0","971ous1l","935","510","","","","","","","","","","","498","adj","Diagnostic trial","","j","10","3","false","true","RIGHT","j","1","","RIGHT","true","","",""
"","html-keyboard-response","384","1680416","0.0-605.0","971ous1l","935","510","","","","","","","","","","","null","+","Fixation - short","","null","","","","","","","","","","","","",""
"","html-keyboard-response","385","1681095","0.0-606.0","971ous1l","935","510","","","","","","","","","","","678","adj","Diagnostic trial","","j","10","4","false","false","LEFT","f","0","","RIGHT","false","","",""
"","call-function","386","1681095","0.0-608.0-0.0","971ous1l","","","","","","","","","","","","","","","","","","","","","","","","","","","","","",""
"","html-keyboard-response","387","1681404","0.0-608.0-1.0","971ous1l","935","510","","","","","","","","","","","null","Wrong","Feedback","","null","","","","","","","","","","","","",""
"","call-function","388","1681404","0.0-608.0-2.0","971ous1l","","","","","","","","","","","","","","","","","","","","","","","","","","","","","",""
"","html-keyboard-response","389","1682157","0.0-609.0","971ous1l","935","510","","","","","","","","","","","null","+","Fixation - short","","null","","","","","","","","","","","","",""
"","html-keyboard-response","390","1683412","0.0-610.0","971ous1l","935","510","","","","","","","","","","","1255","quy","Diagnostic trial","","j","10","5","false","true","RIGHT","j","1","","LEFT","false","","",""
"","html-keyboard-response","391","1684169","0.0-613.0","971ous1l","935","510","","","","","","","","","","","null","+","Fixation - short","","null","","","","","","","","","","","","",""
"","html-keyboard-response","392","1686079","0.0-614.0","971ous1l","935","510","","","","","","","","","","","1910","quy","Inducer trial","","j","10","","true","","","j","1","RIGHT","","","","",""
"","html-keyboard-response","393","1687582","0.0-617.0","971ous1l","935","510","","","","","","","","","","","null","+","Fixation - long","","null","","","","","","","","","","","","",""
"","html-keyboard-response","394","1689985","0.0-618.0","971ous1l","935","510","","","","","","","","","","","2402","If dnc press RIGHT | If lff press LEFT","Inducer instructions",""," ","11","","","","","","","","","","","",""
"","html-keyboard-response","395","1690739","0.0-619.0","971ous1l","935","510","","","","","","","","","","","null","+","Fixation - short","","null","","","","","","","","","","","","",""
"","html-keyboard-response","396","1691481","0.0-620.0","971ous1l","935","510","","","","","","","","","","","742","dnc","Diagnostic trial","","j","11","0","false","true","RIGHT","j","1","","LEFT","false","","",""
"","html-keyboard-response","397","1692234","0.0-623.0","971ous1l","935","510","","","","","","","","","","","null","+","Fixation - short","","null","","","","","","","","","","","","",""
"","html-keyboard-response","398","1693307","0.0-624.0","971ous1l","935","510","","","","","","","","","","","1073","lff","Diagnostic trial","","f","11","1","false","false","LEFT","f","1","","RIGHT","false","","",""
"","html-keyboard-response","399","1694060","0.0-627.0","971ous1l","935","510","","","","","","","","","","","null","+","Fixation - short","","null","","","","","","","","","","","","",""
"","html-keyboard-response","400","1694861","0.0-628.0","971ous1l","935","510","","","","","","","","","","","800","lff","Diagnostic trial","","j","11","2","false","true","RIGHT","j","1","","RIGHT","true","","",""
"","html-keyboard-response","401","1695614","0.0-631.0","971ous1l","935","510","","","","","","","","","","","null","+","Fixation - short","","null","","","","","","","","","","","","",""
"","html-keyboard-response","402","1696667","0.0-632.0","971ous1l","935","510","","","","","","","","","","","1052","dnc","Diagnostic trial","","f","11","3","false","true","RIGHT","j","0","","LEFT","false","","",""
"","call-function","403","1696667","0.0-634.0-0.0","971ous1l","","","","","","","","","","","","","","","","","","","","","","","","","","","","","",""
"","html-keyboard-response","404","1696977","0.0-634.0-1.0","971ous1l","935","510","","","","","","","","","","","null","Wrong","Feedback","","null","","","","","","","","","","","","",""
"","call-function","405","1696978","0.0-634.0-2.0","971ous1l","","","","","","","","","","","","","","","","","","","","","","","","","","","","","",""
"","html-keyboard-response","406","1697743","0.0-635.0","971ous1l","935","510","","","","","","","","","","","null","+","Fixation - short","","null","","","","","","","","","","","","",""
"","html-keyboard-response","407","1698099","0.0-636.0","971ous1l","935","510","","","","","","","","","","","355","lff","Diagnostic trial","","j","11","4","false","true","RIGHT","j","1","","RIGHT","true","","",""
"","html-keyboard-response","408","1698857","0.0-639.0","971ous1l","935","510","","","","","","","","","","","null","+","Fixation - short","","null","","","","","","","","","","","","",""
"","html-keyboard-response","409","1699442","0.0-640.0","971ous1l","935","510","","","","","","","","","","","585","dnc","Diagnostic trial","","j","11","5","false","true","RIGHT","j","1","","LEFT","false","","",""
"","html-keyboard-response","410","1700194","0.0-643.0","971ous1l","935","510","","","","","","","","","","","null","+","Fixation - short","","null","","","","","","","","","","","","",""
"","html-keyboard-response","411","1700822","0.0-644.0","971ous1l","935","510","","","","","","","","","","","628","lff","Diagnostic trial","","j","11","6","false","true","RIGHT","j","1","","RIGHT","true","","",""
"","html-keyboard-response","412","1701576","0.0-647.0","971ous1l","935","510","","","","","","","","","","","null","+","Fixation - short","","null","","","","","","","","","","","","",""
"","html-keyboard-response","413","1703226","0.0-648.0","971ous1l","935","510","","","","","","","","","","","1650","lff","Inducer trial","","j","11","","true","","","f","0","LEFT","","","","",""
"","call-function","414","1703226","0.0-650.0-0.0","971ous1l","","","","","","","","","","","","","","","","","","","","","","","","","","","","","",""
"","html-keyboard-response","415","1703538","0.0-650.0-1.0","971ous1l","935","510","","","","","","","","","","","null","Wrong","Feedback","","null","","","","","","","","","","","","",""
"","call-function","416","1703539","0.0-650.0-2.0","971ous1l","","","","","","","","","","","","","","","","","","","","","","","","","","","","","",""
"","html-keyboard-response","417","1705045","0.0-651.0","971ous1l","935","510","","","","","","","","","","","null","+","Fixation - long","","null","","","","","","","","","","","","",""
"","html-keyboard-response","418","1706739","0.0-652.0","971ous1l","935","510","","","","","","","","","","","1694","If sdw press RIGHT | If faq press LEFT","Inducer instructions",""," ","12","","","","","","","","","","","",""
"","html-keyboard-response","419","1707497","0.0-653.0","971ous1l","935","510","","","","","","","","","","","null","+","Fixation - short","","null","","","","","","","","","","","","",""
"","html-keyboard-response","420","1708487","0.0-654.0","971ous1l","935","510","","","","","","","","","","","989","sdw","Diagnostic trial","","j","12","0","false","true","RIGHT","j","1","","LEFT","false","","",""
"","html-keyboard-response","421","1709245","0.0-657.0","971ous1l","935","510","","","","","","","","","","","null","+","Fixation - short","","null","","","","","","","","","","","","",""
"","html-keyboard-response","422","1709813","0.0-658.0","971ous1l","935","510","","","","","","","","","","","567","sdw","Diagnostic trial","","f","12","1","false","false","LEFT","f","1","","LEFT","true","","",""
"","html-keyboard-response","423","1710568","0.0-661.0","971ous1l","935","510","","","","","","","","","","","null","+","Fixation - short","","null","","","","","","","","","","","","",""
"","html-keyboard-response","424","1711077","0.0-662.0","971ous1l","935","510","","","","","","","","","","","508","faq","Diagnostic trial","","j","12","2","false","true","RIGHT","j","1","","RIGHT","true","","",""
"","html-keyboard-response","425","1711831","0.0-665.0","971ous1l","935","510","","","","","","","","","","","null","+","Fixation - short","","null","","","","","","","","","","","","",""
"","html-keyboard-response","426","1713269","0.0-666.0","971ous1l","935","510","","","","","","","","","","","1438","faq","Diagnostic trial","","f","12","3","false","false","LEFT","f","1","","RIGHT","false","","",""
"","html-keyboard-response","427","1714030","0.0-669.0","971ous1l","935","510","","","","","","","","","","","null","+","Fixation - short","","null","","","","","","","","","","","","",""
"","html-keyboard-response","428","1714676","0.0-670.0","971ous1l","935","510","","","","","","","","","","","645","faq","Diagnostic trial","","f","12","4","false","false","LEFT","f","1","","RIGHT","false","","",""
"","html-keyboard-response","429","1715431","0.0-673.0","971ous1l","935","510","","","","","","","","","","","null","+","Fixation - short","","null","","","","","","","","","","","","",""
"","html-keyboard-response","430","1716126","0.0-674.0","971ous1l","935","510","","","","","","","","","","","695","sdw","Diagnostic trial","","j","12","5","false","true","RIGHT","j","1","","LEFT","false","","",""
"","html-keyboard-response","431","1716887","0.0-677.0","971ous1l","935","510","","","","","","","","","","","null","+","Fixation - short","","null","","","","","","","","","","","","",""
"","html-keyboard-response","432","1718169","0.0-678.0","971ous1l","935","510","","","","","","","","","","","1281","faq","Diagnostic trial","","f","12","6","false","true","RIGHT","j","0","","RIGHT","true","","",""
"","call-function","433","1718169","0.0-680.0-0.0","971ous1l","","","","","","","","","","","","","","","","","","","","","","","","","","","","","",""
"","html-keyboard-response","434","1718475","0.0-680.0-1.0","971ous1l","935","510","","","","","","","","","","","null","Wrong","Feedback","","null","","","","","","","","","","","","",""
"","call-function","435","1718476","0.0-680.0-2.0","971ous1l","","","","","","","","","","","","","","","","","","","","","","","","","","","","","",""
"","html-keyboard-response","436","1719232","0.0-681.0","971ous1l","935","510","","","","","","","","","","","null","+","Fixation - short","","null","","","","","","","","","","","","",""
"","html-keyboard-response","437","1719573","0.0-682.0","971ous1l","935","510","","","","","","","","","","","340","sdw","Diagnostic trial","","j","12","7","false","true","RIGHT","j","1","","LEFT","false","","",""
"","html-keyboard-response","438","1720331","0.0-685.0","971ous1l","935","510","","","","","","","","","","","null","+","Fixation - short","","null","","","","","","","","","","","","",""
"","html-keyboard-response","439","1720831","0.0-686.0","971ous1l","935","510","","","","","","","","","","","500","sdw","Diagnostic trial","","j","12","8","false","true","RIGHT","j","1","","LEFT","false","","",""
"","html-keyboard-response","440","1721586","0.0-689.0","971ous1l","935","510","","","","","","","","","","","null","+","Fixation - short","","null","","","","","","","","","","","","",""
"","html-keyboard-response","441","1722083","0.0-690.0","971ous1l","935","510","","","","","","","","","","","496","sdw","Diagnostic trial","","j","12","9","false","false","LEFT","f","0","","LEFT","true","","",""
"","call-function","442","1722083","0.0-692.0-0.0","971ous1l","","","","","","","","","","","","","","","","","","","","","","","","","","","","","",""
"","html-keyboard-response","443","1722389","0.0-692.0-1.0","971ous1l","935","510","","","","","","","","","","","null","Wrong","Feedback","","null","","","","","","","","","","","","",""
"","call-function","444","1722389","0.0-692.0-2.0","971ous1l","","","","","","","","","","","","","","","","","","","","","","","","","","","","","",""
"","html-keyboard-response","445","1723153","0.0-693.0","971ous1l","935","510","","","","","","","","","","","null","+","Fixation - short","","null","","","","","","","","","","","","",""
"","html-keyboard-response","446","1723745","0.0-694.0","971ous1l","935","510","","","","","","","","","","","591","faq","Diagnostic trial","","j","12","10","false","true","RIGHT","j","1","","RIGHT","true","","",""
"","html-keyboard-response","447","1724520","0.0-697.0","971ous1l","935","510","","","","","","","","","","","null","+","Fixation - short","","null","","","","","","","","","","","","",""
"","html-keyboard-response","448","1725222","0.0-698.0","971ous1l","935","510","","","","","","","","","","","701","faq","Diagnostic trial","","j","12","11","false","true","RIGHT","j","1","","RIGHT","true","","",""
"","html-keyboard-response","449","1725978","0.0-701.0","971ous1l","935","510","","","","","","","","","","","null","+","Fixation - short","","null","","","","","","","","","","","","",""
"","html-keyboard-response","450","1726618","0.0-702.0","971ous1l","935","510","","","","","","","","","","","640","faq","Diagnostic trial","","f","12","12","false","false","LEFT","f","1","","RIGHT","false","","",""
"","html-keyboard-response","451","1727383","0.0-705.0","971ous1l","935","510","","","","","","","","","","","null","+","Fixation - short","","null","","","","","","","","","","","","",""
"","html-keyboard-response","452","1728916","0.0-706.0","971ous1l","935","510","","","","","","","","","","","1532","faq","Diagnostic trial","","j","12","13","false","true","RIGHT","j","1","","RIGHT","true","","",""
"","html-keyboard-response","453","1729674","0.0-709.0","971ous1l","935","510","","","","","","","","","","","null","+","Fixation - short","","null","","","","","","","","","","","","",""
"","html-keyboard-response","454","1730559","0.0-710.0","971ous1l","935","510","","","","","","","","","","","885","faq","Diagnostic trial","","j","12","14","false","true","RIGHT","j","1","","RIGHT","true","","",""
"","html-keyboard-response","455","1731315","0.0-713.0","971ous1l","935","510","","","","","","","","","","","null","+","Fixation - short","","null","","","","","","","","","","","","",""
"","html-keyboard-response","456","1731858","0.0-714.0","971ous1l","935","510","","","","","","","","","","","543","faq","Diagnostic trial","","j","12","15","false","true","RIGHT","j","1","","RIGHT","true","","",""
"","html-keyboard-response","457","1732614","0.0-717.0","971ous1l","935","510","","","","","","","","","","","null","+","Fixation - short","","null","","","","","","","","","","","","",""
"","html-keyboard-response","458","1733310","0.0-718.0","971ous1l","935","510","","","","","","","","","","","696","faq","Inducer trial","","f","12","","true","","","f","1","LEFT","","","","",""
"","html-keyboard-response","459","1734813","0.0-721.0","971ous1l","935","510","","","","","","","","","","","null","+","Fixation - long","","null","","","","","","","","","","","","",""
"","html-keyboard-response","460","1737391","0.0-722.0","971ous1l","935","510","","","","","","","","","","","2578","If feg press RIGHT | If kmh press LEFT","Inducer instructions",""," ","13","","","","","","","","","","","",""
"","html-keyboard-response","461","1738147","0.0-723.0","971ous1l","935","510","","","","","","","","","","","null","+","Fixation - short","","null","","","","","","","","","","","","",""
"","html-keyboard-response","462","1739422","0.0-724.0","971ous1l","935","510","","","","","","","","","","","1274","kmh","Diagnostic trial","","j","13","0","false","true","RIGHT","j","1","","RIGHT","true","","",""
"","html-keyboard-response","463","1740176","0.0-727.0","971ous1l","935","510","","","","","","","","","","","null","+","Fixation - short","","null","","","","","","","","","","","","",""
"","html-keyboard-response","464","1741382","0.0-728.0","971ous1l","935","510","","","","","","","","","","","1206","feg","Diagnostic trial","","j","13","1","false","true","RIGHT","j","1","","LEFT","false","","",""
"","html-keyboard-response","465","1742138","0.0-731.0","971ous1l","935","510","","","","","","","","","","","null","+","Fixation - short","","null","","","","","","","","","","","","",""
"","html-keyboard-response","466","1743466","0.0-732.0","971ous1l","935","510","","","","","","","","","","","1328","feg","Diagnostic trial","","f","13","2","false","false","LEFT","f","1","","LEFT","true","","",""
"","html-keyboard-response","467","1744228","0.0-735.0","971ous1l","935","510","","","","","","","","","","","null","+","Fixation - short","","null","","","","","","","","","","","","",""
"","html-keyboard-response","468","1745374","0.0-736.0","971ous1l","935","510","","","","","","","","","","","1146","feg","Diagnostic trial","","f","13","3","false","false","LEFT","f","1","","LEFT","true","","",""
"","html-keyboard-response","469","1746132","0.0-739.0","971ous1l","935","510","","","","","","","","","","","null","+","Fixation - short","","null","","","","","","","","","","","","",""
"","html-keyboard-response","470","1746764","0.0-740.0","971ous1l","935","510","","","","","","","","","","","631","feg","Diagnostic trial","","j","13","4","false","false","LEFT","f","0","","LEFT","true","","",""
"","call-function","471","1746764","0.0-742.0-0.0","971ous1l","","","","","","","","","","","","","","","","","","","","","","","","","","","","","",""
"","html-keyboard-response","472","1747075","0.0-742.0-1.0","971ous1l","935","510","","","","","","","","","","","null","Wrong","Feedback","","null","","","","","","","","","","","","",""
"","call-function","473","1747075","0.0-742.0-2.0","971ous1l","","","","","","","","","","","","","","","","","","","","","","","","","","","","","",""
"","html-keyboard-response","474","1747832","0.0-743.0","971ous1l","935","510","","","","","","","","","","","null","+","Fixation - short","","null","","","","","","","","","","","","",""
"","html-keyboard-response","475","1748513","0.0-744.0","971ous1l","935","510","","","","","","","","","","","681","feg","Diagnostic trial","","j","13","5","false","true","RIGHT","j","1","","LEFT","false","","",""
"","html-keyboard-response","476","1749276","0.0-747.0","971ous1l","935","510","","","","","","","","","","","null","+","Fixation - short","","null","","","","","","","","","","","","",""
"","html-keyboard-response","477","1750491","0.0-748.0","971ous1l","935","510","","","","","","","","","","","1214","kmh","Inducer trial","","f","13","","true","","","f","1","LEFT","","","","",""
"","html-keyboard-response","478","1751998","0.0-751.0","971ous1l","935","510","","","","","","","","","","","null","+","Fixation - long","","null","","","","","","","","","","","","",""
"","html-keyboard-response","479","1757091","0.0-752.0","971ous1l","935","510","","","","","","","","","","","5092","If fuc press RIGHT | If ttm press LEFT","Inducer instructions",""," ","14","","","","","","","","","","","",""
"","html-keyboard-response","480","1757855","0.0-753.0","971ous1l","935","510","","","","","","","","","","","null","+","Fixation - short","","null","","","","","","","","","","","","",""
"","html-keyboard-response","481","1758763","0.0-754.0","971ous1l","935","510","","","","","","","","","","","907","ttm","Diagnostic trial","","f","14","0","false","false","LEFT","f","1","","RIGHT","false","","",""
"","html-keyboard-response","482","1759519","0.0-757.0","971ous1l","935","510","","","","","","","","","","","null","+","Fixation - short","","null","","","","","","","","","","","","",""
"","html-keyboard-response","483","1760097","0.0-758.0","971ous1l","935","510","","","","","","","","","","","578","ttm","Diagnostic trial","","j","14","1","false","true","RIGHT","j","1","","RIGHT","true","","",""
"","html-keyboard-response","484","1760857","0.0-761.0","971ous1l","935","510","","","","","","","","","","","null","+","Fixation - short","","null","","","","","","","","","","","","",""
"","html-keyboard-response","485","1761899","0.0-762.0","971ous1l","935","510","","","","","","","","","","","1041","ttm","Diagnostic trial","","f","14","2","false","false","LEFT","f","1","","RIGHT","false","","",""
"","html-keyboard-response","486","1762665","0.0-765.0","971ous1l","935","510","","","","","","","","","","","null","+","Fixation - short","","null","","","","","","","","","","","","",""
"","html-keyboard-response","487","1763284","0.0-766.0","971ous1l","935","510","","","","","","","","","","","619","ttm","Diagnostic trial","","j","14","3","false","true","RIGHT","j","1","","RIGHT","true","","",""
"","html-keyboard-response","488","1764051","0.0-769.0","971ous1l","935","510","","","","","","","","","","","null","+","Fixation - short","","null","","","","","","","","","","","","",""
"","html-keyboard-response","489","1764848","0.0-770.0","971ous1l","935","510","","","","","","","","","","","797","fuc","Diagnostic trial","","f","14","4","false","false","LEFT","f","1","","LEFT","true","","",""
"","html-keyboard-response","490","1765608","0.0-773.0","971ous1l","935","510","","","","","","","","","","","null","+","Fixation - short","","null","","","","","","","","","","","","",""
"","html-keyboard-response","491","1766279","0.0-774.0","971ous1l","935","510","","","","","","","","","","","670","fuc","Diagnostic trial","","f","14","5","false","false","LEFT","f","1","","LEFT","true","","",""
"","html-keyboard-response","492","1767045","0.0-777.0","971ous1l","935","510","","","","","","","","","","","null","+","Fixation - short","","null","","","","","","","","","","","","",""
"","html-keyboard-response","493","1767557","0.0-778.0","971ous1l","935","510","","","","","","","","","","","511","fuc","Diagnostic trial","","j","14","6","false","true","RIGHT","j","1","","LEFT","false","","",""
"","html-keyboard-response","494","1768314","0.0-781.0","971ous1l","935","510","","","","","","","","","","","null","+","Fixation - short","","null","","","","","","","","","","","","",""
"","html-keyboard-response","495","1769283","0.0-782.0","971ous1l","935","510","","","","","","","","","","","969","fuc","Diagnostic trial","","j","14","7","false","true","RIGHT","j","1","","LEFT","false","","",""
"","html-keyboard-response","496","1770040","0.0-785.0","971ous1l","935","510","","","","","","","","","","","null","+","Fixation - short","","null","","","","","","","","","","","","",""
"","html-keyboard-response","497","1770874","0.0-786.0","971ous1l","935","510","","","","","","","","","","","834","ttm","Diagnostic trial","","f","14","8","false","false","LEFT","f","1","","RIGHT","false","","",""
"","html-keyboard-response","498","1771628","0.0-789.0","971ous1l","935","510","","","","","","","","","","","null","+","Fixation - short","","null","","","","","","","","","","","","",""
"","html-keyboard-response","499","1772729","0.0-790.0","971ous1l","935","510","","","","","","","","","","","1100","ttm","Diagnostic trial","","f","14","9","false","false","LEFT","f","1","","RIGHT","false","","",""
"","html-keyboard-response","500","1773482","0.0-793.0","971ous1l","935","510","","","","","","","","","","","null","+","Fixation - short","","null","","","","","","","","","","","","",""
"","html-keyboard-response","501","1774223","0.0-794.0","971ous1l","935","510","","","","","","","","","","","741","fuc","Diagnostic trial","","f","14","10","false","false","LEFT","f","1","","LEFT","true","","",""
"","html-keyboard-response","502","1774978","0.0-797.0","971ous1l","935","510","","","","","","","","","","","null","+","Fixation - short","","null","","","","","","","","","","","","",""
"","html-keyboard-response","503","1775772","0.0-798.0","971ous1l","935","510","","","","","","","","","","","793","ttm","Diagnostic trial","","f","14","11","false","false","LEFT","f","1","","RIGHT","false","","",""
"","html-keyboard-response","504","1776533","0.0-801.0","971ous1l","935","510","","","","","","","","","","","null","+","Fixation - short","","null","","","","","","","","","","","","",""
"","html-keyboard-response","505","1777261","0.0-802.0","971ous1l","935","510","","","","","","","","","","","727","ttm","Diagnostic trial","","f","14","12","false","false","LEFT","f","1","","RIGHT","false","","",""
"","html-keyboard-response","506","1778021","0.0-805.0","971ous1l","935","510","","","","","","","","","","","null","+","Fixation - short","","null","","","","","","","","","","","","",""
"","html-keyboard-response","507","1778791","0.0-806.0","971ous1l","935","510","","","","","","","","","","","770","fuc","Diagnostic trial","","j","14","13","false","true","RIGHT","j","1","","LEFT","false","","",""
