"value","trial_type","trial_index","time_elapsed","internal_node_id","id","width","height","webaudio","browser","browser_version","mobile","os","fullscreen","vsync_rate","webcam","microphone","view_history","rt","stimulus","trial_info","success","response","inducer_run","diagnostic_run","inducer_trial","italic","correct_diag_response_side","correct_response_key","correct_response","correct_indu_response_side","correct_inducer_response_side","congruent","accuracy","open_feedback","interactive"
"","call-function","0","7","0.0-0.0","4zye67zy","","","","","","","","","","","","","","","","","","","","","","","","","","","","","",""
"","browser-check","1","536662","0.0-1.0","4zye67zy","1680","933","true","chrome","116.0.0","false","Mac OS","true","60.32","true","true","","","","","","","","","","","","","","","","","","",""
"","instructions","2","587356","0.0-2.0","4zye67zy","","","","","","","","","","","","[{""page_index"":0,""viewing_time"":35736},{""page_index"":1,""viewing_time"":6572},{""page_index"":2,""viewing_time"":8382}]","50691","The experiment and consent","The experiment and consent","","","","","","","","","","","","","","",""
"","fullscreen","3","592854","0.0-3.0","4zye67zy","1680","1050","","","","","","","","","","","4492","","Full screen","true","","","","","","","","","","","","","",""
"","instructions","4","620552","0.0-4.0","4zye67zy","1680","1050","","","","","","","","","","[{""page_index"":0,""viewing_time"":21598},{""page_index"":1,""viewing_time"":6098}]","27697","Instructions","Basic overview explanation","","","","","","","","","","","","","","",""
"","html-keyboard-response","5","631954","0.0-5.0","4zye67zy","1680","1050","","","","","","","","","","","9887","If italic press RIGHT | If upright press LEFT","Diagnostic instructions",""," ","","","","","","","","","","","","",""
"","html-keyboard-response","6","632712","0.0-6.0","4zye67zy","1680","1050","","","","","","","","","","","null","+","Fixation - short","","null","","","","","","","","","","","","",""
"","html-keyboard-response","7","635264","0.0-7.0","4zye67zy","1680","1050","","","","","","","","","","","2552","eeu","Practice diganostic trial","","f","practice","0","false","0","LEFT","f","1","","","","","",""
"","html-keyboard-response","8","636022","0.0-10.0","4zye67zy","1680","1050","","","","","","","","","","","null","+","Fixation - short","","null","","","","","","","","","","","","",""
"","html-keyboard-response","9","636729","0.0-11.0","4zye67zy","1680","1050","","","","","","","","","","","706","efg","Practice diganostic trial","","f","practice","1","false","0","LEFT","f","1","","","","","",""
"","html-keyboard-response","10","637488","0.0-14.0","4zye67zy","1680","1050","","","","","","","","","","","null","+","Fixation - short","","null","","","","","","","","","","","","",""
"","html-keyboard-response","11","638202","0.0-15.0","4zye67zy","1680","1050","","","","","","","","","","","713","eeu","Practice diganostic trial","","j","practice","2","false","1","RIGHT","j","1","","","","","",""
"","html-keyboard-response","12","638959","0.0-18.0","4zye67zy","1680","1050","","","","","","","","","","","null","+","Fixation - short","","null","","","","","","","","","","","","",""
"","html-keyboard-response","13","639882","0.0-19.0","4zye67zy","1680","1050","","","","","","","","","","","923","efg","Practice diganostic trial","","j","practice","3","false","1","RIGHT","j","1","","","","","",""
"","html-keyboard-response","14","640637","0.0-22.0","4zye67zy","1680","1050","","","","","","","","","","","null","+","Fixation - short","","null","","","","","","","","","","","","",""
"","html-keyboard-response","15","641144","0.0-23.0","4zye67zy","1680","1050","","","","","","","","","","","506","efg","Practice diganostic trial","","j","practice","4","false","1","RIGHT","j","1","","","","","",""
"","html-keyboard-response","16","641904","0.0-26.0","4zye67zy","1680","1050","","","","","","","","","","","null","+","Fixation - short","","null","","","","","","","","","","","","",""
"","html-keyboard-response","17","642338","0.0-27.0","4zye67zy","1680","1050","","","","","","","","","","","433","efg","Practice diganostic trial","","j","practice","5","false","0","LEFT","f","0","","","","","",""
"","call-function","18","642339","0.0-29.0-0.0","4zye67zy","","","","","","","","","","","","","","","","","","","","","","","","","","","","","",""
"","html-keyboard-response","19","642650","0.0-29.0-1.0","4zye67zy","1680","1050","","","","","","","","","","","null","Wrong","Feedback","","null","","","","","","","","","","","","",""
"","call-function","20","642651","0.0-29.0-2.0","4zye67zy","","","","","","","","","","","","","","","","","","","","","","","","","","","","","",""
"","html-keyboard-response","21","643409","0.0-30.0","4zye67zy","1680","1050","","","","","","","","","","","null","+","Fixation - short","","null","","","","","","","","","","","","",""
"","html-keyboard-response","22","644292","0.0-31.0","4zye67zy","1680","1050","","","","","","","","","","","882","eeu","Practice diganostic trial","","j","practice","6","false","1","RIGHT","j","1","","","","","",""
"","html-keyboard-response","23","645049","0.0-34.0","4zye67zy","1680","1050","","","","","","","","","","","null","+","Fixation - short","","null","","","","","","","","","","","","",""
"","html-keyboard-response","24","645601","0.0-35.0","4zye67zy","1680","1050","","","","","","","","","","","551","efg","Practice diganostic trial","","f","practice","7","false","0","LEFT","f","1","","","","","",""
"","html-keyboard-response","25","646351","0.0-38.0","4zye67zy","1680","1050","","","","","","","","","","","null","+","Fixation - short","","null","","","","","","","","","","","","",""
"","html-keyboard-response","26","646961","0.0-39.0","4zye67zy","1680","1050","","","","","","","","","","","609","efg","Practice diganostic trial","","j","practice","8","false","1","RIGHT","j","1","","","","","",""
"","html-keyboard-response","27","647721","0.0-42.0","4zye67zy","1680","1050","","","","","","","","","","","null","+","Fixation - short","","null","","","","","","","","","","","","",""
"","html-keyboard-response","28","648335","0.0-43.0","4zye67zy","1680","1050","","","","","","","","","","","614","efg","Practice diganostic trial","","f","practice","9","false","0","LEFT","f","1","","","","","",""
"","html-keyboard-response","29","649098","0.0-46.0","4zye67zy","1680","1050","","","","","","","","","","","null","+","Fixation - short","","null","","","","","","","","","","","","",""
"","html-keyboard-response","30","649927","0.0-47.0","4zye67zy","1680","1050","","","","","","","","","","","828","eeu","Practice diganostic trial","","f","practice","10","false","0","LEFT","f","1","","","","","",""
"","html-keyboard-response","31","650688","0.0-50.0","4zye67zy","1680","1050","","","","","","","","","","","null","+","Fixation - short","","null","","","","","","","","","","","","",""
"","html-keyboard-response","32","651280","0.0-51.0","4zye67zy","1680","1050","","","","","","","","","","","591","efg","Practice diganostic trial","","j","practice","11","false","1","RIGHT","j","1","","","","","",""
"","html-keyboard-response","33","652037","0.0-54.0","4zye67zy","1680","1050","","","","","","","","","","","null","+","Fixation - short","","null","","","","","","","","","","","","",""
"","html-keyboard-response","34","652806","0.0-55.0","4zye67zy","1680","1050","","","","","","","","","","","768","efg","Practice diganostic trial","","f","practice","12","false","0","LEFT","f","1","","","","","",""
"","html-keyboard-response","35","653567","0.0-58.0","4zye67zy","1680","1050","","","","","","","","","","","null","+","Fixation - short","","null","","","","","","","","","","","","",""
"","html-keyboard-response","36","654063","0.0-59.0","4zye67zy","1680","1050","","","","","","","","","","","496","efg","Practice diganostic trial","","f","practice","13","false","0","LEFT","f","1","","","","","",""
"","html-keyboard-response","37","654823","0.0-62.0","4zye67zy","1680","1050","","","","","","","","","","","null","+","Fixation - short","","null","","","","","","","","","","","","",""
"","html-keyboard-response","38","655172","0.0-63.0","4zye67zy","1680","1050","","","","","","","","","","","349","efg","Practice diganostic trial","","f","practice","14","false","1","RIGHT","j","0","","","","","",""
"","call-function","39","655173","0.0-65.0-0.0","4zye67zy","","","","","","","","","","","","","","","","","","","","","","","","","","","","","",""
"","html-keyboard-response","40","655477","0.0-65.0-1.0","4zye67zy","1680","1050","","","","","","","","","","","null","Wrong","Feedback","","null","","","","","","","","","","","","",""
"","call-function","41","655477","0.0-65.0-2.0","4zye67zy","","","","","","","","","","","","","","","","","","","","","","","","","","","","","",""
"","html-keyboard-response","42","656233","0.0-66.0","4zye67zy","1680","1050","","","","","","","","","","","null","+","Fixation - short","","null","","","","","","","","","","","","",""
"","html-keyboard-response","43","656900","0.0-67.0","4zye67zy","1680","1050","","","","","","","","","","","667","eeu","Practice diganostic trial","","j","practice","15","false","1","RIGHT","j","1","","","","","",""
"","html-keyboard-response","44","657654","0.0-70.0","4zye67zy","1680","1050","","","","","","","","","","","null","+","Fixation - short","","null","","","","","","","","","","","","",""
"","instructions","45","662627","0.0-71.0","4zye67zy","1680","1050","","","","","","","","","","[{""page_index"":0,""viewing_time"":4972}]","4972","Instructions","Final experiment explanation","","","","","","","","","","","","","","",""
"","html-keyboard-response","46","671052","0.0-72.0","4zye67zy","1680","1050","","","","","","","","","","","6914","If afp press RIGHT | If pmf press LEFT","Practice inducer instructions",""," ","practice","","","","","","","","","","","",""
"","html-keyboard-response","47","671800","0.0-73.0","4zye67zy","1680","1050","","","","","","","","","","","746","","Practice inducer trial","","j","practice","","true","","","j","1","RIGHT","","","","",""
"","html-keyboard-response","48","672559","0.0-76.0","4zye67zy","1680","1050","","","","","","","","","","","null","+","Fixation - short","","null","","","","","","","","","","","","",""
"","html-keyboard-response","49","676986","0.0-77.0","4zye67zy","1680","1050","","","","","","","","","","","4426","If wwt press RIGHT | If otr press LEFT","Practice inducer instructions",""," ","practice","","","","","","","","","","","",""
"","html-keyboard-response","50","677573","0.0-78.0","4zye67zy","1680","1050","","","","","","","","","","","586","","Practice inducer trial","","j","practice","","true","","","j","1","RIGHT","","","","",""
"","html-keyboard-response","51","678326","0.0-81.0","4zye67zy","1680","1050","","","","","","","","","","","null","+","Fixation - short","","null","","","","","","","","","","","","",""
"","html-keyboard-response","52","680749","0.0-82.0","4zye67zy","1680","1050","","","","","","","","","","","2422","If guf press RIGHT | If ufc press LEFT","Practice inducer instructions",""," ","practice","","","","","","","","","","","",""
"","html-keyboard-response","53","681250","0.0-83.0","4zye67zy","1680","1050","","","","","","","","","","","500","","Practice inducer trial","","f","practice","","true","","","f","1","LEFT","","","","",""
"","html-keyboard-response","54","682009","0.0-86.0","4zye67zy","1680","1050","","","","","","","","","","","null","+","Fixation - short","","null","","","","","","","","","","","","",""
"","html-keyboard-response","55","684410","0.0-87.0","4zye67zy","1680","1050","","","","","","","","","","","2400","If cpt press RIGHT | If zpl press LEFT","Practice inducer instructions",""," ","practice","","","","","","","","","","","",""
"","html-keyboard-response","56","685007","0.0-88.0","4zye67zy","1680","1050","","","","","","","","","","","597","","Practice inducer trial","","j","practice","","true","","","j","1","RIGHT","","","","",""
"","html-keyboard-response","57","685765","0.0-91.0","4zye67zy","1680","1050","","","","","","","","","","","null","+","Fixation - short","","null","","","","","","","","","","","","",""
"","html-keyboard-response","58","687622","0.0-92.0","4zye67zy","1680","1050","","","","","","","","","","","1857","If ndm press RIGHT | If csp press LEFT","Practice inducer instructions",""," ","practice","","","","","","","","","","","",""
"","html-keyboard-response","59","688060","0.0-93.0","4zye67zy","1680","1050","","","","","","","","","","","438","","Practice inducer trial","","f","practice","","true","","","f","1","LEFT","","","","",""
"","html-keyboard-response","60","688814","0.0-96.0","4zye67zy","1680","1050","","","","","","","","","","","null","+","Fixation - short","","null","","","","","","","","","","","","",""
"","html-keyboard-response","61","690573","0.0-97.0","4zye67zy","1680","1050","","","","","","","","","","","1759","If ofa press RIGHT | If cmj press LEFT","Practice inducer instructions",""," ","practice","","","","","","","","","","","",""
"","html-keyboard-response","62","691071","0.0-98.0","4zye67zy","1680","1050","","","","","","","","","","","498","","Practice inducer trial","","f","practice","","true","","","f","1","LEFT","","","","",""
"","html-keyboard-response","63","691831","0.0-101.0","4zye67zy","1680","1050","","","","","","","","","","","null","+","Fixation - short","","null","","","","","","","","","","","","",""
"","html-keyboard-response","64","697244","0.0-102.0","4zye67zy","1680","1050","","","","","","","","","","","5411","End practice","End of practice",""," ","","","","","","","","","","","","",""
"","html-keyboard-response","65","698751","0.0-103.0","4zye67zy","1680","1050","","","","","","","","","","","null","+","Fixation - long","","null","","","","","","","","","","","","",""
"","html-keyboard-response","66","701396","0.0-104.0","4zye67zy","1680","1050","","","","","","","","","","","2645","If lpn press RIGHT | If oez press LEFT","Inducer instructions",""," ","0","","","","","","","","","","","",""
"","html-keyboard-response","67","702154","0.0-105.0","4zye67zy","1680","1050","","","","","","","","","","","null","+","Fixation - short","","null","","","","","","","","","","","","",""
"","html-keyboard-response","68","703330","0.0-106.0","4zye67zy","1680","1050","","","","","","","","","","","1175","lpn","Diagnostic trial","","j","0","0","false","true","RIGHT","j","1","","LEFT","false","","",""
"","html-keyboard-response","69","704088","0.0-109.0","4zye67zy","1680","1050","","","","","","","","","","","null","+","Fixation - short","","null","","","","","","","","","","","","",""
"","html-keyboard-response","70","704700","0.0-110.0","4zye67zy","1680","1050","","","","","","","","","","","611","lpn","Diagnostic trial","","j","0","1","false","true","RIGHT","j","1","","LEFT","false","","",""
"","html-keyboard-response","71","705458","0.0-113.0","4zye67zy","1680","1050","","","","","","","","","","","null","+","Fixation - short","","null","","","","","","","","","","","","",""
"","html-keyboard-response","72","705945","0.0-114.0","4zye67zy","1680","1050","","","","","","","","","","","487","lpn","Diagnostic trial","","j","0","2","false","true","RIGHT","j","1","","LEFT","false","","",""
"","html-keyboard-response","73","706706","0.0-117.0","4zye67zy","1680","1050","","","","","","","","","","","null","+","Fixation - short","","null","","","","","","","","","","","","",""
"","html-keyboard-response","74","707158","0.0-118.0","4zye67zy","1680","1050","","","","","","","","","","","451","lpn","Diagnostic trial","","j","0","3","false","true","RIGHT","j","1","","LEFT","false","","",""
"","html-keyboard-response","75","707910","0.0-121.0","4zye67zy","1680","1050","","","","","","","","","","","null","+","Fixation - short","","null","","","","","","","","","","","","",""
"","html-keyboard-response","76","708881","0.0-122.0","4zye67zy","1680","1050","","","","","","","","","","","970","oez","Diagnostic trial","","f","0","4","false","false","LEFT","f","1","","RIGHT","false","","",""
"","html-keyboard-response","77","709642","0.0-125.0","4zye67zy","1680","1050","","","","","","","","","","","null","+","Fixation - short","","null","","","","","","","","","","","","",""
"","html-keyboard-response","78","710459","0.0-126.0","4zye67zy","1680","1050","","","","","","","","","","","816","lpn","Inducer trial","","j","0","","true","","","j","1","RIGHT","","","","",""
"","html-keyboard-response","79","711966","0.0-129.0","4zye67zy","1680","1050","","","","","","","","","","","null","+","Fixation - long","","null","","","","","","","","","","","","",""
"","html-keyboard-response","80","717800","0.0-130.0","4zye67zy","1680","1050","","","","","","","","","","","5833","If eht press RIGHT | If gdn press LEFT","Inducer instructions",""," ","1","","","","","","","","","","","",""
"","html-keyboard-response","81","718560","0.0-131.0","4zye67zy","1680","1050","","","","","","","","","","","null","+","Fixation - short","","null","","","","","","","","","","","","",""
"","html-keyboard-response","82","720503","0.0-132.0","4zye67zy","1680","1050","","","","","","","","","","","1943","eht","Diagnostic trial","","j","1","0","false","true","RIGHT","j","1","","LEFT","false","","",""
"","html-keyboard-response","83","721263","0.0-135.0","4zye67zy","1680","1050","","","","","","","","","","","null","+","Fixation - short","","null","","","","","","","","","","","","",""
"","html-keyboard-response","84","722314","0.0-136.0","4zye67zy","1680","1050","","","","","","","","","","","1051","eht","Diagnostic trial","","j","1","1","false","false","LEFT","f","0","","LEFT","true","","",""
"","call-function","85","722314","0.0-138.0-0.0","4zye67zy","","","","","","","","","","","","","","","","","","","","","","","","","","","","","",""
"","html-keyboard-response","86","722623","0.0-138.0-1.0","4zye67zy","1680","1050","","","","","","","","","","","null","Wrong","Feedback","","null","","","","","","","","","","","","",""
"","call-function","87","722624","0.0-138.0-2.0","4zye67zy","","","","","","","","","","","","","","","","","","","","","","","","","","","","","",""
"","html-keyboard-response","88","723384","0.0-139.0","4zye67zy","1680","1050","","","","","","","","","","","null","+","Fixation - short","","null","","","","","","","","","","","","",""
"","html-keyboard-response","89","723963","0.0-140.0","4zye67zy","1680","1050","","","","","","","","","","","578","eht","Diagnostic trial","","f","1","2","false","false","LEFT","f","1","","LEFT","true","","",""
"","html-keyboard-response","90","724721","0.0-143.0","4zye67zy","1680","1050","","","","","","","","","","","null","+","Fixation - short","","null","","","","","","","","","","","","",""
"","html-keyboard-response","91","725220","0.0-144.0","4zye67zy","1680","1050","","","","","","","","","","","499","eht","Diagnostic trial","","f","1","3","false","true","RIGHT","j","0","","LEFT","false","","",""
"","call-function","92","725221","0.0-146.0-0.0","4zye67zy","","","","","","","","","","","","","","","","","","","","","","","","","","","","","",""
"","html-keyboard-response","93","725526","0.0-146.0-1.0","4zye67zy","1680","1050","","","","","","","","","","","null","Wrong","Feedback","","null","","","","","","","","","","","","",""
"","call-function","94","725526","0.0-146.0-2.0","4zye67zy","","","","","","","","","","","","","","","","","","","","","","","","","","","","","",""
"","html-keyboard-response","95","726288","0.0-147.0","4zye67zy","1680","1050","","","","","","","","","","","null","+","Fixation - short","","null","","","","","","","","","","","","",""
"","html-keyboard-response","96","726840","0.0-148.0","4zye67zy","1680","1050","","","","","","","","","","","551","eht","Diagnostic trial","","j","1","4","false","true","RIGHT","j","1","","LEFT","false","","",""
"","html-keyboard-response","97","727601","0.0-151.0","4zye67zy","1680","1050","","","","","","","","","","","null","+","Fixation - short","","null","","","","","","","","","","","","",""
"","html-keyboard-response","98","728492","0.0-152.0","4zye67zy","1680","1050","","","","","","","","","","","891","gdn","Diagnostic trial","","f","1","5","false","false","LEFT","f","1","","RIGHT","false","","",""
"","html-keyboard-response","99","729247","0.0-155.0","4zye67zy","1680","1050","","","","","","","","","","","null","+","Fixation - short","","null","","","","","","","","","","","","",""
"","html-keyboard-response","100","730208","0.0-156.0","4zye67zy","1680","1050","","","","","","","","","","","960","eht","Diagnostic trial","","j","1","6","false","true","RIGHT","j","1","","LEFT","false","","",""
"","html-keyboard-response","101","730967","0.0-159.0","4zye67zy","1680","1050","","","","","","","","","","","null","+","Fixation - short","","null","","","","","","","","","","","","",""
"","html-keyboard-response","102","731616","0.0-160.0","4zye67zy","1680","1050","","","","","","","","","","","649","eht","Diagnostic trial","","f","1","7","false","false","LEFT","f","1","","LEFT","true","","",""
"","html-keyboard-response","103","732374","0.0-163.0","4zye67zy","1680","1050","","","","","","","","","","","null","+","Fixation - short","","null","","","","","","","","","","","","",""
"","html-keyboard-response","104","733603","0.0-164.0","4zye67zy","1680","1050","","","","","","","","","","","1229","gdn","Inducer trial","","j","1","","true","","","f","0","LEFT","","","","",""
"","call-function","105","733604","0.0-166.0-0.0","4zye67zy","","","","","","","","","","","","","","","","","","","","","","","","","","","","","",""
"","html-keyboard-response","106","733909","0.0-166.0-1.0","4zye67zy","1680","1050","","","","","","","","","","","null","Wrong","Feedback","","null","","","","","","","","","","","","",""
"","call-function","107","733910","0.0-166.0-2.0","4zye67zy","","","","","","","","","","","","","","","","","","","","","","","","","","","","","",""
"","html-keyboard-response","108","735417","0.0-167.0","4zye67zy","1680","1050","","","","","","","","","","","null","+","Fixation - long","","null","","","","","","","","","","","","",""
"","html-keyboard-response","109","737049","0.0-168.0","4zye67zy","1680","1050","","","","","","","","","","","1632","If dof press RIGHT | If jsf press LEFT","Inducer instructions",""," ","2","","","","","","","","","","","",""
"","html-keyboard-response","110","737809","0.0-169.0","4zye67zy","1680","1050","","","","","","","","","","","null","+","Fixation - short","","null","","","","","","","","","","","","",""
"","html-keyboard-response","111","738541","0.0-170.0","4zye67zy","1680","1050","","","","","","","","","","","731","jsf","Diagnostic trial","","f","2","0","false","false","LEFT","f","1","","RIGHT","false","","",""
"","html-keyboard-response","112","739295","0.0-173.0","4zye67zy","1680","1050","","","","","","","","","","","null","+","Fixation - short","","null","","","","","","","","","","","","",""
"","html-keyboard-response","113","739670","0.0-174.0","4zye67zy","1680","1050","","","","","","","","","","","374","jsf","Diagnostic trial","","f","2","1","false","true","RIGHT","j","0","","RIGHT","true","","",""
"","call-function","114","739670","0.0-176.0-0.0","4zye67zy","","","","","","","","","","","","","","","","","","","","","","","","","","","","","",""
"","html-keyboard-response","115","739974","0.0-176.0-1.0","4zye67zy","1680","1050","","","","","","","","","","","null","Wrong","Feedback","","null","","","","","","","","","","","","",""
"","call-function","116","739974","0.0-176.0-2.0","4zye67zy","","","","","","","","","","","","","","","","","","","","","","","","","","","","","",""
"","html-keyboard-response","117","740738","0.0-177.0","4zye67zy","1680","1050","","","","","","","","","","","null","+","Fixation - short","","null","","","","","","","","","","","","",""
"","html-keyboard-response","118","741189","0.0-178.0","4zye67zy","1680","1050","","","","","","","","","","","450","jsf","Diagnostic trial","","j","2","2","false","true","RIGHT","j","1","","RIGHT","true","","",""
"","html-keyboard-response","119","741941","0.0-181.0","4zye67zy","1680","1050","","","","","","","","","","","null","+","Fixation - short","","null","","","","","","","","","","","","",""
"","html-keyboard-response","120","742350","0.0-182.0","4zye67zy","1680","1050","","","","","","","","","","","408","jsf","Diagnostic trial","","j","2","3","false","true","RIGHT","j","1","","RIGHT","true","","",""
"","html-keyboard-response","121","743103","0.0-185.0","4zye67zy","1680","1050","","","","","","","","","","","null","+","Fixation - short","","null","","","","","","","","","","","","",""
"","html-keyboard-response","122","743530","0.0-186.0","4zye67zy","1680","1050","","","","","","","","","","","426","jsf","Diagnostic trial","","j","2","4","false","true","RIGHT","j","1","","RIGHT","true","","",""
"","html-keyboard-response","123","744289","0.0-189.0","4zye67zy","1680","1050","","","","","","","","","","","null","+","Fixation - short","","null","","","","","","","","","","","","",""
"","html-keyboard-response","124","744958","0.0-190.0","4zye67zy","1680","1050","","","","","","","","","","","668","dof","Diagnostic trial","","f","2","5","false","false","LEFT","f","1","","LEFT","true","","",""
"","html-keyboard-response","125","745720","0.0-193.0","4zye67zy","1680","1050","","","","","","","","","","","null","+","Fixation - short","","null","","","","","","","","","","","","",""
"","html-keyboard-response","126","746301","0.0-194.0","4zye67zy","1680","1050","","","","","","","","","","","580","dof","Diagnostic trial","","f","2","6","false","false","LEFT","f","1","","LEFT","true","","",""
"","html-keyboard-response","127","747056","0.0-197.0","4zye67zy","1680","1050","","","","","","","","","","","null","+","Fixation - short","","null","","","","","","","","","","","","",""
"","html-keyboard-response","128","747852","0.0-198.0","4zye67zy","1680","1050","","","","","","","","","","","795","jsf","Diagnostic trial","","f","2","7","false","false","LEFT","f","1","","RIGHT","false","","",""
"","html-keyboard-response","129","748609","0.0-201.0","4zye67zy","1680","1050","","","","","","","","","","","null","+","Fixation - short","","null","","","","","","","","","","","","",""
"","html-keyboard-response","130","749065","0.0-202.0","4zye67zy","1680","1050","","","","","","","","","","","455","jsf","Diagnostic trial","","j","2","8","false","true","RIGHT","j","1","","RIGHT","true","","",""
"","html-keyboard-response","131","749821","0.0-205.0","4zye67zy","1680","1050","","","","","","","","","","","null","+","Fixation - short","","null","","","","","","","","","","","","",""
"","html-keyboard-response","132","750869","0.0-206.0","4zye67zy","1680","1050","","","","","","","","","","","1047","jsf","Inducer trial","","f","2","","true","","","f","1","LEFT","","","","",""
"","html-keyboard-response","133","752375","0.0-209.0","4zye67zy","1680","1050","","","","","","","","","","","null","+","Fixation - long","","null","","","","","","","","","","","","",""
"","html-keyboard-response","134","753518","0.0-210.0","4zye67zy","1680","1050","","","","","","","","","","","1142","If pte press RIGHT | If dlg press LEFT","Inducer instructions",""," ","3","","","","","","","","","","","",""
"","html-keyboard-response","135","754272","0.0-211.0","4zye67zy","1680","1050","","","","","","","","","","","null","+","Fixation - short","","null","","","","","","","","","","","","",""
"","html-keyboard-response","136","755408","0.0-212.0","4zye67zy","1680","1050","","","","","","","","","","","1136","pte","Diagnostic trial","","j","3","0","false","false","LEFT","f","0","","LEFT","true","","",""
"","call-function","137","755409","0.0-214.0-0.0","4zye67zy","","","","","","","","","","","","","","","","","","","","","","","","","","","","","",""
"","html-keyboard-response","138","755721","0.0-214.0-1.0","4zye67zy","1680","1050","","","","","","","","","","","null","Wrong","Feedback","","null","","","","","","","","","","","","",""
"","call-function","139","755722","0.0-214.0-2.0","4zye67zy","","","","","","","","","","","","","","","","","","","","","","","","","","","","","",""
"","html-keyboard-response","140","756478","0.0-215.0","4zye67zy","1680","1050","","","","","","","","","","","null","+","Fixation - short","","null","","","","","","","","","","","","",""
"","html-keyboard-response","141","757026","0.0-216.0","4zye67zy","1680","1050","","","","","","","","","","","547","pte","Diagnostic trial","","f","3","1","false","false","LEFT","f","1","","LEFT","true","","",""
"","html-keyboard-response","142","757786","0.0-219.0","4zye67zy","1680","1050","","","","","","","","","","","null","+","Fixation - short","","null","","","","","","","","","","","","",""
"","html-keyboard-response","143","758785","0.0-220.0","4zye67zy","1680","1050","","","","","","","","","","","998","dlg","Diagnostic trial","","j","3","2","false","false","LEFT","f","0","","RIGHT","false","","",""
"","call-function","144","758785","0.0-222.0-0.0","4zye67zy","","","","","","","","","","","","","","","","","","","","","","","","","","","","","",""
"","html-keyboard-response","145","759093","0.0-222.0-1.0","4zye67zy","1680","1050","","","","","","","","","","","null","Wrong","Feedback","","null","","","","","","","","","","","","",""
"","call-function","146","759094","0.0-222.0-2.0","4zye67zy","","","","","","","","","","","","","","","","","","","","","","","","","","","","","",""
"","html-keyboard-response","147","759847","0.0-223.0","4zye67zy","1680","1050","","","","","","","","","","","null","+","Fixation - short","","null","","","","","","","","","","","","",""
"","html-keyboard-response","148","760435","0.0-224.0","4zye67zy","1680","1050","","","","","","","","","","","588","dlg","Diagnostic trial","","f","3","3","false","false","LEFT","f","1","","RIGHT","false","","",""
"","html-keyboard-response","149","761192","0.0-227.0","4zye67zy","1680","1050","","","","","","","","","","","null","+","Fixation - short","","null","","","","","","","","","","","","",""
"","html-keyboard-response","150","761627","0.0-228.0","4zye67zy","1680","1050","","","","","","","","","","","435","dlg","Diagnostic trial","","f","3","4","false","false","LEFT","f","1","","RIGHT","false","","",""
"","html-keyboard-response","151","762386","0.0-231.0","4zye67zy","1680","1050","","","","","","","","","","","null","+","Fixation - short","","null","","","","","","","","","","","","",""
"","html-keyboard-response","152","763121","0.0-232.0","4zye67zy","1680","1050","","","","","","","","","","","735","pte","Diagnostic trial","","j","3","5","false","true","RIGHT","j","1","","LEFT","false","","",""
"","html-keyboard-response","153","763878","0.0-235.0","4zye67zy","1680","1050","","","","","","","","","","","null","+","Fixation - short","","null","","","","","","","","","","","","",""
"","html-keyboard-response","154","764612","0.0-236.0","4zye67zy","1680","1050","","","","","","","","","","","733","dlg","Diagnostic trial","","f","3","6","false","false","LEFT","f","1","","RIGHT","false","","",""
"","html-keyboard-response","155","765368","0.0-239.0","4zye67zy","1680","1050","","","","","","","","","","","null","+","Fixation - short","","null","","","","","","","","","","","","",""
"","html-keyboard-response","156","766024","0.0-240.0","4zye67zy","1680","1050","","","","","","","","","","","655","dlg","Diagnostic trial","","f","3","7","false","false","LEFT","f","1","","RIGHT","false","","",""
"","html-keyboard-response","157","766786","0.0-243.0","4zye67zy","1680","1050","","","","","","","","","","","null","+","Fixation - short","","null","","","","","","","","","","","","",""
"","html-keyboard-response","158","767347","0.0-244.0","4zye67zy","1680","1050","","","","","","","","","","","560","pte","Diagnostic trial","","j","3","8","false","true","RIGHT","j","1","","LEFT","false","","",""
"","html-keyboard-response","159","768105","0.0-247.0","4zye67zy","1680","1050","","","","","","","","","","","null","+","Fixation - short","","null","","","","","","","","","","","","",""
"","html-keyboard-response","160","768773","0.0-248.0","4zye67zy","1680","1050","","","","","","","","","","","668","pte","Diagnostic trial","","j","3","9","false","true","RIGHT","j","1","","LEFT","false","","",""
"","html-keyboard-response","161","769530","0.0-251.0","4zye67zy","1680","1050","","","","","","","","","","","null","+","Fixation - short","","null","","","","","","","","","","","","",""
"","html-keyboard-response","162","770189","0.0-252.0","4zye67zy","1680","1050","","","","","","","","","","","659","dlg","Diagnostic trial","","j","3","10","false","true","RIGHT","j","1","","RIGHT","true","","",""
"","html-keyboard-response","163","770944","0.0-255.0","4zye67zy","1680","1050","","","","","","","","","","","null","+","Fixation - short","","null","","","","","","","","","","","","",""
"","html-keyboard-response","164","771435","0.0-256.0","4zye67zy","1680","1050","","","","","","","","","","","490","pte","Diagnostic trial","","f","3","11","false","false","LEFT","f","1","","LEFT","true","","",""
"","html-keyboard-response","165","772192","0.0-259.0","4zye67zy","1680","1050","","","","","","","","","","","null","+","Fixation - short","","null","","","","","","","","","","","","",""
"","html-keyboard-response","166","772836","0.0-260.0","4zye67zy","1680","1050","","","","","","","","","","","643","pte","Inducer trial","","f","3","","true","","","j","0","RIGHT","","","","",""
"","call-function","167","772836","0.0-262.0-0.0","4zye67zy","","","","","","","","","","","","","","","","","","","","","","","","","","","","","",""
"","html-keyboard-response","168","773138","0.0-262.0-1.0","4zye67zy","1680","1050","","","","","","","","","","","null","Wrong","Feedback","","null","","","","","","","","","","","","",""
"","call-function","169","773139","0.0-262.0-2.0","4zye67zy","","","","","","","","","","","","","","","","","","","","","","","","","","","","","",""
"","html-keyboard-response","170","774649","0.0-263.0","4zye67zy","1680","1050","","","","","","","","","","","null","+","Fixation - long","","null","","","","","","","","","","","","",""
"","html-keyboard-response","171","775403","0.0-264.0","4zye67zy","1680","1050","","","","","","","","","","","754","If ume press RIGHT | If yrp press LEFT","Inducer instructions",""," ","4","","","","","","","","","","","",""
"","html-keyboard-response","172","776158","0.0-265.0","4zye67zy","1680","1050","","","","","","","","","","","null","+","Fixation - short","","null","","","","","","","","","","","","",""
"","html-keyboard-response","173","777075","0.0-266.0","4zye67zy","1680","1050","","","","","","","","","","","916","yrp","Diagnostic trial","","f","4","0","false","false","LEFT","f","1","","RIGHT","false","","",""
"","html-keyboard-response","174","777832","0.0-269.0","4zye67zy","1680","1050","","","","","","","","","","","null","+","Fixation - short","","null","","","","","","","","","","","","",""
"","html-keyboard-response","175","778407","0.0-270.0","4zye67zy","1680","1050","","","","","","","","","","","574","ume","Diagnostic trial","","j","4","1","false","true","RIGHT","j","1","","LEFT","false","","",""
"","html-keyboard-response","176","779167","0.0-273.0","4zye67zy","1680","1050","","","","","","","","","","","null","+","Fixation - short","","null","","","","","","","","","","","","",""
"","html-keyboard-response","177","779938","0.0-274.0","4zye67zy","1680","1050","","","","","","","","","","","770","yrp","Diagnostic trial","","f","4","2","false","false","LEFT","f","1","","RIGHT","false","","",""
"","html-keyboard-response","178","780697","0.0-277.0","4zye67zy","1680","1050","","","","","","","","","","","null","+","Fixation - short","","null","","","","","","","","","","","","",""
"","html-keyboard-response","179","781418","0.0-278.0","4zye67zy","1680","1050","","","","","","","","","","","720","yrp","Diagnostic trial","","j","4","3","false","true","RIGHT","j","1","","RIGHT","true","","",""
"","html-keyboard-response","180","782178","0.0-281.0","4zye67zy","1680","1050","","","","","","","","","","","null","+","Fixation - short","","null","","","","","","","","","","","","",""
"","html-keyboard-response","181","782767","0.0-282.0","4zye67zy","1680","1050","","","","","","","","","","","588","yrp","Diagnostic trial","","j","4","4","false","true","RIGHT","j","1","","RIGHT","true","","",""
"","html-keyboard-response","182","783529","0.0-285.0","4zye67zy","1680","1050","","","","","","","","","","","null","+","Fixation - short","","null","","","","","","","","","","","","",""
"","html-keyboard-response","183","784083","0.0-286.0","4zye67zy","1680","1050","","","","","","","","","","","553","yrp","Diagnostic trial","","f","4","5","false","false","LEFT","f","1","","RIGHT","false","","",""
"","html-keyboard-response","184","784841","0.0-289.0","4zye67zy","1680","1050","","","","","","","","","","","null","+","Fixation - short","","null","","","","","","","","","","","","",""
"","html-keyboard-response","185","785788","0.0-290.0","4zye67zy","1680","1050","","","","","","","","","","","947","yrp","Inducer trial","","f","4","","true","","","f","1","LEFT","","","","",""
"","html-keyboard-response","186","787297","0.0-293.0","4zye67zy","1680","1050","","","","","","","","","","","null","+","Fixation - long","","null","","","","","","","","","","","","",""
"","html-keyboard-response","187","788026","0.0-294.0","4zye67zy","1680","1050","","","","","","","","","","","729","If lff press RIGHT | If vbt press LEFT","Inducer instructions",""," ","5","","","","","","","","","","","",""
"","html-keyboard-response","188","788782","0.0-295.0","4zye67zy","1680","1050","","","","","","","","","","","null","+","Fixation - short","","null","","","","","","","","","","","","",""
"","html-keyboard-response","189","789664","0.0-296.0","4zye67zy","1680","1050","","","","","","","","","","","881","vbt","Diagnostic trial","","f","5","0","false","false","LEFT","f","1","","RIGHT","false","","",""
"","html-keyboard-response","190","790425","0.0-299.0","4zye67zy","1680","1050","","","","","","","","","","","null","+","Fixation - short","","null","","","","","","","","","","","","",""
"","html-keyboard-response","191","790837","0.0-300.0","4zye67zy","1680","1050","","","","","","","","","","","411","vbt","Diagnostic trial","","f","5","1","false","false","LEFT","f","1","","RIGHT","false","","",""
"","html-keyboard-response","192","791589","0.0-303.0","4zye67zy","1680","1050","","","","","","","","","","","null","+","Fixation - short","","null","","","","","","","","","","","","",""
"","html-keyboard-response","193","792385","0.0-304.0","4zye67zy","1680","1050","","","","","","","","","","","795","lff","Diagnostic trial","","f","5","2","false","false","LEFT","f","1","","LEFT","true","","",""
"","html-keyboard-response","194","793143","0.0-307.0","4zye67zy","1680","1050","","","","","","","","","","","null","+","Fixation - short","","null","","","","","","","","","","","","",""
"","html-keyboard-response","195","793891","0.0-308.0","4zye67zy","1680","1050","","","","","","","","","","","747","lff","Diagnostic trial","","j","5","3","false","true","RIGHT","j","1","","LEFT","false","","",""
"","html-keyboard-response","196","794647","0.0-311.0","4zye67zy","1680","1050","","","","","","","","","","","null","+","Fixation - short","","null","","","","","","","","","","","","",""
"","html-keyboard-response","197","795182","0.0-312.0","4zye67zy","1680","1050","","","","","","","","","","","535","vbt","Diagnostic trial","","f","5","4","false","false","LEFT","f","1","","RIGHT","false","","",""
"","html-keyboard-response","198","795945","0.0-315.0","4zye67zy","1680","1050","","","","","","","","","","","null","+","Fixation - short","","null","","","","","","","","","","","","",""
"","html-keyboard-response","199","796733","0.0-316.0","4zye67zy","1680","1050","","","","","","","","","","","788","vbt","Diagnostic trial","","j","5","5","false","true","RIGHT","j","1","","RIGHT","true","","",""
"","html-keyboard-response","200","797488","0.0-319.0","4zye67zy","1680","1050","","","","","","","","","","","null","+","Fixation - short","","null","","","","","","","","","","","","",""
"","html-keyboard-response","201","798266","0.0-320.0","4zye67zy","1680","1050","","","","","","","","","","","778","vbt","Diagnostic trial","","j","5","6","false","true","RIGHT","j","1","","RIGHT","true","","",""
"","html-keyboard-response","202","799025","0.0-323.0","4zye67zy","1680","1050","","","","","","","","","","","null","+","Fixation - short","","null","","","","","","","","","","","","",""
"","html-keyboard-response","203","799749","0.0-324.0","4zye67zy","1680","1050","","","","","","","","","","","723","vbt","Diagnostic trial","","j","5","7","false","true","RIGHT","j","1","","RIGHT","true","","",""
"","html-keyboard-response","204","800505","0.0-327.0","4zye67zy","1680","1050","","","","","","","","","","","null","+","Fixation - short","","null","","","","","","","","","","","","",""
"","html-keyboard-response","205","801124","0.0-328.0","4zye67zy","1680","1050","","","","","","","","","","","619","lff","Inducer trial","","f","5","","true","","","j","0","RIGHT","","","","",""
"","call-function","206","801124","0.0-330.0-0.0","4zye67zy","","","","","","","","","","","","","","","","","","","","","","","","","","","","","",""
"","html-keyboard-response","207","801431","0.0-330.0-1.0","4zye67zy","1680","1050","","","","","","","","","","","null","Wrong","Feedback","","null","","","","","","","","","","","","",""
"","call-function","208","801431","0.0-330.0-2.0","4zye67zy","","","","","","","","","","","","","","","","","","","","","","","","","","","","","",""
"","html-keyboard-response","209","802938","0.0-331.0","4zye67zy","1680","1050","","","","","","","","","","","null","+","Fixation - long","","null","","","","","","","","","","","","",""
"","html-keyboard-response","210","803445","0.0-332.0","4zye67zy","1680","1050","","","","","","","","","","","507","If wab press RIGHT | If flh press LEFT","Inducer instructions",""," ","6","","","","","","","","","","","",""
"","html-keyboard-response","211","804200","0.0-333.0","4zye67zy","1680","1050","","","","","","","","","","","null","+","Fixation - short","","null","","","","","","","","","","","","",""
"","html-keyboard-response","212","804893","0.0-334.0","4zye67zy","1680","1050","","","","","","","","","","","692","wab","Diagnostic trial","","j","6","0","false","true","RIGHT","j","1","","LEFT","false","","",""
"","html-keyboard-response","213","805647","0.0-337.0","4zye67zy","1680","1050","","","","","","","","","","","null","+","Fixation - short","","null","","","","","","","","","","","","",""
"","html-keyboard-response","214","806107","0.0-338.0","4zye67zy","1680","1050","","","","","","","","","","","459","wab","Diagnostic trial","","j","6","1","false","true","RIGHT","j","1","","LEFT","false","","",""
"","html-keyboard-response","215","806865","0.0-341.0","4zye67zy","1680","1050","","","","","","","","","","","null","+","Fixation - short","","null","","","","","","","","","","","","",""
"","html-keyboard-response","216","807317","0.0-342.0","4zye67zy","1680","1050","","","","","","","","","","","451","wab","Diagnostic trial","","j","6","2","false","true","RIGHT","j","1","","LEFT","false","","",""
"","html-keyboard-response","217","808072","0.0-345.0","4zye67zy","1680","1050","","","","","","","","","","","null","+","Fixation - short","","null","","","","","","","","","","","","",""
"","html-keyboard-response","218","808620","0.0-346.0","4zye67zy","1680","1050","","","","","","","","","","","547","flh","Diagnostic trial","","j","6","3","false","true","RIGHT","j","1","","RIGHT","true","","",""
"","html-keyboard-response","219","809375","0.0-349.0","4zye67zy","1680","1050","","","","","","","","","","","null","+","Fixation - short","","null","","","","","","","","","","","","",""
"","html-keyboard-response","220","809834","0.0-350.0","4zye67zy","1680","1050","","","","","","","","","","","458","wab","Diagnostic trial","","j","6","4","false","true","RIGHT","j","1","","LEFT","false","","",""
"","html-keyboard-response","221","810592","0.0-353.0","4zye67zy","1680","1050","","","","","","","","","","","null","+","Fixation - short","","null","","","","","","","","","","","","",""
"","html-keyboard-response","222","811061","0.0-354.0","4zye67zy","1680","1050","","","","","","","","","","","469","wab","Diagnostic trial","","j","6","5","false","true","RIGHT","j","1","","LEFT","false","","",""
"","html-keyboard-response","223","811818","0.0-357.0","4zye67zy","1680","1050","","","","","","","","","","","null","+","Fixation - short","","null","","","","","","","","","","","","",""
"","html-keyboard-response","224","812201","0.0-358.0","4zye67zy","1680","1050","","","","","","","","","","","383","flh","Diagnostic trial","","j","6","6","false","true","RIGHT","j","1","","RIGHT","true","","",""
"","html-keyboard-response","225","812952","0.0-361.0","4zye67zy","1680","1050","","","","","","","","","","","null","+","Fixation - short","","null","","","","","","","","","","","","",""
"","html-keyboard-response","226","813384","0.0-362.0","4zye67zy","1680","1050","","","","","","","","","","","431","wab","Diagnostic trial","","j","6","7","false","true","RIGHT","j","1","","LEFT","false","","",""
"","html-keyboard-response","227","814143","0.0-365.0","4zye67zy","1680","1050","","","","","","","","","","","null","+","Fixation - short","","null","","","","","","","","","","","","",""
"","html-keyboard-response","228","814489","0.0-366.0","4zye67zy","1680","1050","","","","","","","","","","","346","wab","Diagnostic trial","","j","6","8","false","false","LEFT","f","0","","LEFT","true","","",""
"","call-function","229","814489","0.0-368.0-0.0","4zye67zy","","","","","","","","","","","","","","","","","","","","","","","","","","","","","",""
"","html-keyboard-response","230","814797","0.0-368.0-1.0","4zye67zy","1680","1050","","","","","","","","","","","null","Wrong","Feedback","","null","","","","","","","","","","","","",""
"","call-function","231","814798","0.0-368.0-2.0","4zye67zy","","","","","","","","","","","","","","","","","","","","","","","","","","","","","",""
"","html-keyboard-response","232","815550","0.0-369.0","4zye67zy","1680","1050","","","","","","","","","","","null","+","Fixation - short","","null","","","","","","","","","","","","",""
"","html-keyboard-response","233","816322","0.0-370.0","4zye67zy","1680","1050","","","","","","","","","","","771","flh","Diagnostic trial","","f","6","9","false","false","LEFT","f","1","","RIGHT","false","","",""
"","html-keyboard-response","234","817081","0.0-373.0","4zye67zy","1680","1050","","","","","","","","","","","null","+","Fixation - short","","null","","","","","","","","","","","","",""
"","html-keyboard-response","235","817823","0.0-374.0","4zye67zy","1680","1050","","","","","","","","","","","741","wab","Diagnostic trial","","f","6","10","false","false","LEFT","f","1","","LEFT","true","","",""
"","html-keyboard-response","236","818584","0.0-377.0","4zye67zy","1680","1050","","","","","","","","","","","null","+","Fixation - short","","null","","","","","","","","","","","","",""
"","html-keyboard-response","237","819118","0.0-378.0","4zye67zy","1680","1050","","","","","","","","","","","534","wab","Diagnostic trial","","f","6","11","false","false","LEFT","f","1","","LEFT","true","","",""
"","html-keyboard-response","238","819872","0.0-381.0","4zye67zy","1680","1050","","","","","","","","","","","null","+","Fixation - short","","null","","","","","","","","","","","","",""
"","html-keyboard-response","239","820773","0.0-382.0","4zye67zy","1680","1050","","","","","","","","","","","900","wab","Inducer trial","","f","6","","true","","","j","0","RIGHT","","","","",""
"","call-function","240","820773","0.0-384.0-0.0","4zye67zy","","","","","","","","","","","","","","","","","","","","","","","","","","","","","",""
"","html-keyboard-response","241","821079","0.0-384.0-1.0","4zye67zy","1680","1050","","","","","","","","","","","null","Wrong","Feedback","","null","","","","","","","","","","","","",""
"","call-function","242","821080","0.0-384.0-2.0","4zye67zy","","","","","","","","","","","","","","","","","","","","","","","","","","","","","",""
"","html-keyboard-response","243","822582","0.0-385.0","4zye67zy","1680","1050","","","","","","","","","","","null","+","Fixation - long","","null","","","","","","","","","","","","",""
"","html-keyboard-response","244","822681","0.0-386.0","4zye67zy","1680","1050","","","","","","","","","","","99","If ccx press RIGHT | If mmo press LEFT","Inducer instructions",""," ","7","","","","","","","","","","","",""
"","html-keyboard-response","245","823438","0.0-387.0","4zye67zy","1680","1050","","","","","","","","","","","null","+","Fixation - short","","null","","","","","","","","","","","","",""
"","html-keyboard-response","246","824188","0.0-388.0","4zye67zy","1680","1050","","","","","","","","","","","749","ccx","Diagnostic trial","","j","7","0","false","true","RIGHT","j","1","","LEFT","false","","",""
"","html-keyboard-response","247","824945","0.0-391.0","4zye67zy","1680","1050","","","","","","","","","","","null","+","Fixation - short","","null","","","","","","","","","","","","",""
"","html-keyboard-response","248","825783","0.0-392.0","4zye67zy","1680","1050","","","","","","","","","","","838","ccx","Diagnostic trial","","f","7","1","false","false","LEFT","f","1","","LEFT","true","","",""
"","html-keyboard-response","249","826544","0.0-395.0","4zye67zy","1680","1050","","","","","","","","","","","null","+","Fixation - short","","null","","","","","","","","","","","","",""
"","html-keyboard-response","250","827252","0.0-396.0","4zye67zy","1680","1050","","","","","","","","","","","707","ccx","Diagnostic trial","","j","7","2","false","true","RIGHT","j","1","","LEFT","false","","",""
"","html-keyboard-response","251","828010","0.0-399.0","4zye67zy","1680","1050","","","","","","","","","","","null","+","Fixation - short","","null","","","","","","","","","","","","",""
"","html-keyboard-response","252","828640","0.0-400.0","4zye67zy","1680","1050","","","","","","","","","","","630","mmo","Diagnostic trial","","f","7","3","false","false","LEFT","f","1","","RIGHT","false","","",""
"","html-keyboard-response","253","829392","0.0-403.0","4zye67zy","1680","1050","","","","","","","","","","","null","+","Fixation - short","","null","","","","","","","","","","","","",""
"","html-keyboard-response","254","830225","0.0-404.0","4zye67zy","1680","1050","","","","","","","","","","","833","ccx","Diagnostic trial","","f","7","4","false","false","LEFT","f","1","","LEFT","true","","",""
"","html-keyboard-response","255","830985","0.0-407.0","4zye67zy","1680","1050","","","","","","","","","","","null","+","Fixation - short","","null","","","","","","","","","","","","",""
"","html-keyboard-response","256","831752","0.0-408.0","4zye67zy","1680","1050","","","","","","","","","","","767","ccx","Diagnostic trial","","j","7","5","false","true","RIGHT","j","1","","LEFT","false","","",""
"","html-keyboard-response","257","832511","0.0-411.0","4zye67zy","1680","1050","","","","","","","","","","","null","+","Fixation - short","","null","","","","","","","","","","","","",""
"","html-keyboard-response","258","833232","0.0-412.0","4zye67zy","1680","1050","","","","","","","","","","","721","ccx","Diagnostic trial","","f","7","6","false","false","LEFT","f","1","","LEFT","true","","",""
"","html-keyboard-response","259","833991","0.0-415.0","4zye67zy","1680","1050","","","","","","","","","","","null","+","Fixation - short","","null","","","","","","","","","","","","",""
"","html-keyboard-response","260","834747","0.0-416.0","4zye67zy","1680","1050","","","","","","","","","","","755","ccx","Inducer trial","","f","7","","true","","","j","0","RIGHT","","","","",""
"","call-function","261","834748","0.0-418.0-0.0","4zye67zy","","","","","","","","","","","","","","","","","","","","","","","","","","","","","",""
"","html-keyboard-response","262","835054","0.0-418.0-1.0","4zye67zy","1680","1050","","","","","","","","","","","null","Wrong","Feedback","","null","","","","","","","","","","","","",""
"","call-function","263","835054","0.0-418.0-2.0","4zye67zy","","","","","","","","","","","","","","","","","","","","","","","","","","","","","",""
"","html-keyboard-response","264","836560","0.0-419.0","4zye67zy","1680","1050","","","","","","","","","","","null","+","Fixation - long","","null","","","","","","","","","","","","",""
"","html-keyboard-response","265","837154","0.0-420.0","4zye67zy","1680","1050","","","","","","","","","","","593","If iei press RIGHT | If bms press LEFT","Inducer instructions",""," ","8","","","","","","","","","","","",""
"","html-keyboard-response","266","837913","0.0-421.0","4zye67zy","1680","1050","","","","","","","","","","","null","+","Fixation - short","","null","","","","","","","","","","","","",""
"","html-keyboard-response","267","838815","0.0-422.0","4zye67zy","1680","1050","","","","","","","","","","","901","bms","Diagnostic trial","","j","8","0","false","false","LEFT","f","0","","RIGHT","false","","",""
"","call-function","268","838815","0.0-424.0-0.0","4zye67zy","","","","","","","","","","","","","","","","","","","","","","","","","","","","","",""
"","html-keyboard-response","269","839122","0.0-424.0-1.0","4zye67zy","1680","1050","","","","","","","","","","","null","Wrong","Feedback","","null","","","","","","","","","","","","",""
"","call-function","270","839122","0.0-424.0-2.0","4zye67zy","","","","","","","","","","","","","","","","","","","","","","","","","","","","","",""
"","html-keyboard-response","271","839880","0.0-425.0","4zye67zy","1680","1050","","","","","","","","","","","null","+","Fixation - short","","null","","","","","","","","","","","","",""
"","html-keyboard-response","272","840414","0.0-426.0","4zye67zy","1680","1050","","","","","","","","","","","534","bms","Diagnostic trial","","f","8","1","false","false","LEFT","f","1","","RIGHT","false","","",""
"","html-keyboard-response","273","841169","0.0-429.0","4zye67zy","1680","1050","","","","","","","","","","","null","+","Fixation - short","","null","","","","","","","","","","","","",""
"","html-keyboard-response","274","841671","0.0-430.0","4zye67zy","1680","1050","","","","","","","","","","","502","bms","Diagnostic trial","","f","8","2","false","false","LEFT","f","1","","RIGHT","false","","",""
"","html-keyboard-response","275","842430","0.0-433.0","4zye67zy","1680","1050","","","","","","","","","","","null","+","Fixation - short","","null","","","","","","","","","","","","",""
"","html-keyboard-response","276","843126","0.0-434.0","4zye67zy","1680","1050","","","","","","","","","","","695","iei","Diagnostic trial","","j","8","3","false","true","RIGHT","j","1","","LEFT","false","","",""
"","html-keyboard-response","277","843880","0.0-437.0","4zye67zy","1680","1050","","","","","","","","","","","null","+","Fixation - short","","null","","","","","","","","","","","","",""
"","html-keyboard-response","278","844692","0.0-438.0","4zye67zy","1680","1050","","","","","","","","","","","810","iei","Diagnostic trial","","f","8","4","false","false","LEFT","f","1","","LEFT","true","","",""
"","html-keyboard-response","279","845447","0.0-441.0","4zye67zy","1680","1050","","","","","","","","","","","null","+","Fixation - short","","null","","","","","","","","","","","","",""
"","html-keyboard-response","280","846051","0.0-442.0","4zye67zy","1680","1050","","","","","","","","","","","604","iei","Diagnostic trial","","f","8","5","false","false","LEFT","f","1","","LEFT","true","","",""
"","html-keyboard-response","281","846810","0.0-445.0","4zye67zy","1680","1050","","","","","","","","","","","null","+","Fixation - short","","null","","","","","","","","","","","","",""
"","html-keyboard-response","282","847621","0.0-446.0","4zye67zy","1680","1050","","","","","","","","","","","810","bms","Diagnostic trial","","j","8","6","false","true","RIGHT","j","1","","RIGHT","true","","",""
"","html-keyboard-response","283","848379","0.0-449.0","4zye67zy","1680","1050","","","","","","","","","","","null","+","Fixation - short","","null","","","","","","","","","","","","",""
"","html-keyboard-response","284","848923","0.0-450.0","4zye67zy","1680","1050","","","","","","","","","","","543","iei","Diagnostic trial","","j","8","7","false","true","RIGHT","j","1","","LEFT","false","","",""
"","html-keyboard-response","285","849682","0.0-453.0","4zye67zy","1680","1050","","","","","","","","","","","null","+","Fixation - short","","null","","","","","","","","","","","","",""
"","html-keyboard-response","286","850291","0.0-454.0","4zye67zy","1680","1050","","","","","","","","","","","608","bms","Diagnostic trial","","j","8","8","false","true","RIGHT","j","1","","RIGHT","true","","",""
"","html-keyboard-response","287","851046","0.0-457.0","4zye67zy","1680","1050","","","","","","","","","","","null","+","Fixation - short","","null","","","","","","","","","","","","",""
"","html-keyboard-response","288","851761","0.0-458.0","4zye67zy","1680","1050","","","","","","","","","","","714","iei","Diagnostic trial","","f","8","9","false","false","LEFT","f","1","","LEFT","true","","",""
"","html-keyboard-response","289","852522","0.0-461.0","4zye67zy","1680","1050","","","","","","","","","","","null","+","Fixation - short","","null","","","","","","","","","","","","",""
"","html-keyboard-response","290","853449","0.0-462.0","4zye67zy","1680","1050","","","","","","","","","","","927","iei","Diagnostic trial","","j","8","10","false","true","RIGHT","j","1","","LEFT","false","","",""
"","html-keyboard-response","291","854206","0.0-465.0","4zye67zy","1680","1050","","","","","","","","","","","null","+","Fixation - short","","null","","","","","","","","","","","","",""
"","html-keyboard-response","292","854945","0.0-466.0","4zye67zy","1680","1050","","","","","","","","","","","739","iei","Diagnostic trial","","f","8","11","false","false","LEFT","f","1","","LEFT","true","","",""
"","html-keyboard-response","293","855705","0.0-469.0","4zye67zy","1680","1050","","","","","","","","","","","null","+","Fixation - short","","null","","","","","","","","","","","","",""
"","html-keyboard-response","294","856756","0.0-470.0","4zye67zy","1680","1050","","","","","","","","","","","1050","bms","Inducer trial","","f","8","","true","","","f","1","LEFT","","","","",""
"","html-keyboard-response","295","858263","0.0-473.0","4zye67zy","1680","1050","","","","","","","","","","","null","+","Fixation - long","","null","","","","","","","","","","","","",""
"","html-keyboard-response","296","859457","0.0-474.0","4zye67zy","1680","1050","","","","","","","","","","","1194","If xlv press RIGHT | If frn press LEFT","Inducer instructions",""," ","9","","","","","","","","","","","",""
"","html-keyboard-response","297","860217","0.0-475.0","4zye67zy","1680","1050","","","","","","","","","","","null","+","Fixation - short","","null","","","","","","","","","","","","",""
"","html-keyboard-response","298","860939","0.0-476.0","4zye67zy","1680","1050","","","","","","","","","","","721","xlv","Diagnostic trial","","j","9","0","false","true","RIGHT","j","1","","LEFT","false","","",""
"","html-keyboard-response","299","861695","0.0-479.0","4zye67zy","1680","1050","","","","","","","","","","","null","+","Fixation - short","","null","","","","","","","","","","","","",""
"","html-keyboard-response","300","862203","0.0-480.0","4zye67zy","1680","1050","","","","","","","","","","","508","xlv","Diagnostic trial","","j","9","1","false","true","RIGHT","j","1","","LEFT","false","","",""
"","html-keyboard-response","301","862960","0.0-483.0","4zye67zy","1680","1050","","","","","","","","","","","null","+","Fixation - short","","null","","","","","","","","","","","","",""
"","html-keyboard-response","302","863629","0.0-484.0","4zye67zy","1680","1050","","","","","","","","","","","668","frn","Diagnostic trial","","f","9","2","false","false","LEFT","f","1","","RIGHT","false","","",""
"","html-keyboard-response","303","864382","0.0-487.0","4zye67zy","1680","1050","","","","","","","","","","","null","+","Fixation - short","","null","","","","","","","","","","","","",""
"","html-keyboard-response","304","865040","0.0-488.0","4zye67zy","1680","1050","","","","","","","","","","","656","frn","Diagnostic trial","","f","9","3","false","false","LEFT","f","1","","RIGHT","false","","",""
"","html-keyboard-response","305","865800","0.0-491.0","4zye67zy","1680","1050","","","","","","","","","","","null","+","Fixation - short","","null","","","","","","","","","","","","",""
"","html-keyboard-response","306","866525","0.0-492.0","4zye67zy","1680","1050","","","","","","","","","","","724","frn","Diagnostic trial","","j","9","4","false","true","RIGHT","j","1","","RIGHT","true","","",""
"","html-keyboard-response","307","867280","0.0-495.0","4zye67zy","1680","1050","","","","","","","","","","","null","+","Fixation - short","","null","","","","","","","","","","","","",""
"","html-keyboard-response","308","867918","0.0-496.0","4zye67zy","1680","1050","","","","","","","","","","","637","xlv","Diagnostic trial","","j","9","5","false","true","RIGHT","j","1","","LEFT","false","","",""
"","html-keyboard-response","309","868672","0.0-499.0","4zye67zy","1680","1050","","","","","","","","","","","null","+","Fixation - short","","null","","","","","","","","","","","","",""
"","html-keyboard-response","310","869223","0.0-500.0","4zye67zy","1680","1050","","","","","","","","","","","550","frn","Diagnostic trial","","j","9","6","false","true","RIGHT","j","1","","RIGHT","true","","",""
"","html-keyboard-response","311","869985","0.0-503.0","4zye67zy","1680","1050","","","","","","","","","","","null","+","Fixation - short","","null","","","","","","","","","","","","",""
"","html-keyboard-response","312","870773","0.0-504.0","4zye67zy","1680","1050","","","","","","","","","","","788","xlv","Diagnostic trial","","f","9","7","false","false","LEFT","f","1","","LEFT","true","","",""
"","html-keyboard-response","313","871530","0.0-507.0","4zye67zy","1680","1050","","","","","","","","","","","null","+","Fixation - short","","null","","","","","","","","","","","","",""
"","html-keyboard-response","314","872164","0.0-508.0","4zye67zy","1680","1050","","","","","","","","","","","633","frn","Diagnostic trial","","f","9","8","false","false","LEFT","f","1","","RIGHT","false","","",""
"","html-keyboard-response","315","872918","0.0-511.0","4zye67zy","1680","1050","","","","","","","","","","","null","+","Fixation - short","","null","","","","","","","","","","","","",""
"","html-keyboard-response","316","873546","0.0-512.0","4zye67zy","1680","1050","","","","","","","","","","","627","xlv","Diagnostic trial","","j","9","9","false","true","RIGHT","j","1","","LEFT","false","","",""
"","html-keyboard-response","317","874307","0.0-515.0","4zye67zy","1680","1050","","","","","","","","","","","null","+","Fixation - short","","null","","","","","","","","","","","","",""
"","html-keyboard-response","318","874807","0.0-516.0","4zye67zy","1680","1050","","","","","","","","","","","499","xlv","Diagnostic trial","","j","9","10","false","true","RIGHT","j","1","","LEFT","false","","",""
"","html-keyboard-response","319","875561","0.0-519.0","4zye67zy","1680","1050","","","","","","","","","","","null","+","Fixation - short","","null","","","","","","","","","","","","",""
"","html-keyboard-response","320","876063","0.0-520.0","4zye67zy","1680","1050","","","","","","","","","","","501","xlv","Diagnostic trial","","j","9","11","false","true","RIGHT","j","1","","LEFT","false","","",""
"","html-keyboard-response","321","876815","0.0-523.0","4zye67zy","1680","1050","","","","","","","","","","","null","+","Fixation - short","","null","","","","","","","","","","","","",""
"","html-keyboard-response","322","877719","0.0-524.0","4zye67zy","1680","1050","","","","","","","","","","","903","xlv","Diagnostic trial","","f","9","12","false","false","LEFT","f","1","","LEFT","true","","",""
"","html-keyboard-response","323","878483","0.0-527.0","4zye67zy","1680","1050","","","","","","","","","","","null","+","Fixation - short","","null","","","","","","","","","","","","",""
"","html-keyboard-response","324","879442","0.0-528.0","4zye67zy","1680","1050","","","","","","","","","","","959","frn","Diagnostic trial","","j","9","13","false","true","RIGHT","j","1","","RIGHT","true","","",""
"","html-keyboard-response","325","880202","0.0-531.0","4zye67zy","1680","1050","","","","","","","","","","","null","+","Fixation - short","","null","","","","","","","","","","","","",""
"","html-keyboard-response","326","881265","0.0-532.0","4zye67zy","1680","1050","","","","","","","","","","","1062","xlv","Diagnostic trial","","f","9","14","false","false","LEFT","f","1","","LEFT","true","","",""
"","html-keyboard-response","327","882025","0.0-535.0","4zye67zy","1680","1050","","","","","","","","","","","null","+","Fixation - short","","null","","","","","","","","","","","","",""
"","html-keyboard-response","328","883353","0.0-536.0","4zye67zy","1680","1050","","","","","","","","","","","1328","frn","Inducer trial","","f","9","","true","","","f","1","LEFT","","","","",""
"","html-keyboard-response","329","884865","0.0-539.0","4zye67zy","1680","1050","","","","","","","","","","","null","+","Fixation - long","","null","","","","","","","","","","","","",""
"","html-keyboard-response","330","886151","0.0-540.0","4zye67zy","1680","1050","","","","","","","","","","","1286","If hrc press RIGHT | If mts press LEFT","Inducer instructions",""," ","10","","","","","","","","","","","",""
"","html-keyboard-response","331","886910","0.0-541.0","4zye67zy","1680","1050","","","","","","","","","","","null","+","Fixation - short","","null","","","","","","","","","","","","",""
"","html-keyboard-response","332","887448","0.0-542.0","4zye67zy","1680","1050","","","","","","","","","","","537","hrc","Diagnostic trial","","j","10","0","false","true","RIGHT","j","1","","LEFT","false","","",""
"","html-keyboard-response","333","888210","0.0-545.0","4zye67zy","1680","1050","","","","","","","","","","","null","+","Fixation - short","","null","","","","","","","","","","","","",""
"","html-keyboard-response","334","888796","0.0-546.0","4zye67zy","1680","1050","","","","","","","","","","","585","mts","Diagnostic trial","","f","10","1","false","false","LEFT","f","1","","RIGHT","false","","",""
"","html-keyboard-response","335","889551","0.0-549.0","4zye67zy","1680","1050","","","","","","","","","","","null","+","Fixation - short","","null","","","","","","","","","","","","",""
"","html-keyboard-response","336","890293","0.0-550.0","4zye67zy","1680","1050","","","","","","","","","","","742","mts","Diagnostic trial","","j","10","2","false","true","RIGHT","j","1","","RIGHT","true","","",""
"","html-keyboard-response","337","891048","0.0-553.0","4zye67zy","1680","1050","","","","","","","","","","","null","+","Fixation - short","","null","","","","","","","","","","","","",""
"","html-keyboard-response","338","891787","0.0-554.0","4zye67zy","1680","1050","","","","","","","","","","","738","hrc","Diagnostic trial","","f","10","3","false","false","LEFT","f","1","","LEFT","true","","",""
"","html-keyboard-response","339","892542","0.0-557.0","4zye67zy","1680","1050","","","","","","","","","","","null","+","Fixation - short","","null","","","","","","","","","","","","",""
"","html-keyboard-response","340","893152","0.0-558.0","4zye67zy","1680","1050","","","","","","","","","","","610","hrc","Diagnostic trial","","f","10","4","false","false","LEFT","f","1","","LEFT","true","","",""
"","html-keyboard-response","341","893913","0.0-561.0","4zye67zy","1680","1050","","","","","","","","","","","null","+","Fixation - short","","null","","","","","","","","","","","","",""
"","html-keyboard-response","342","894821","0.0-562.0","4zye67zy","1680","1050","","","","","","","","","","","907","hrc","Diagnostic trial","","j","10","5","false","true","RIGHT","j","1","","LEFT","false","","",""
"","html-keyboard-response","343","895579","0.0-565.0","4zye67zy","1680","1050","","","","","","","","","","","null","+","Fixation - short","","null","","","","","","","","","","","","",""
"","html-keyboard-response","344","896265","0.0-566.0","4zye67zy","1680","1050","","","","","","","","","","","686","hrc","Diagnostic trial","","j","10","6","false","true","RIGHT","j","1","","LEFT","false","","",""
"","html-keyboard-response","345","897022","0.0-569.0","4zye67zy","1680","1050","","","","","","","","","","","null","+","Fixation - short","","null","","","","","","","","","","","","",""
"","html-keyboard-response","346","897600","0.0-570.0","4zye67zy","1680","1050","","","","","","","","","","","578","mts","Diagnostic trial","","j","10","7","false","true","RIGHT","j","1","","RIGHT","true","","",""
"","html-keyboard-response","347","898363","0.0-573.0","4zye67zy","1680","1050","","","","","","","","","","","null","+","Fixation - short","","null","","","","","","","","","","","","",""
"","html-keyboard-response","348","898983","0.0-574.0","4zye67zy","1680","1050","","","","","","","","","","","620","hrc","Diagnostic trial","","f","10","8","false","false","LEFT","f","1","","LEFT","true","","",""
"","html-keyboard-response","349","899744","0.0-577.0","4zye67zy","1680","1050","","","","","","","","","","","null","+","Fixation - short","","null","","","","","","","","","","","","",""
"","html-keyboard-response","350","900337","0.0-578.0","4zye67zy","1680","1050","","","","","","","","","","","592","mts","Diagnostic trial","","f","10","9","false","false","LEFT","f","1","","RIGHT","false","","",""
"","html-keyboard-response","351","901094","0.0-581.0","4zye67zy","1680","1050","","","","","","","","","","","null","+","Fixation - short","","null","","","","","","","","","","","","",""
"","html-keyboard-response","352","901758","0.0-582.0","4zye67zy","1680","1050","","","","","","","","","","","663","mts","Inducer trial","","f","10","","true","","","f","1","LEFT","","","","",""
"","html-keyboard-response","353","903262","0.0-585.0","4zye67zy","1680","1050","","","","","","","","","","","null","+","Fixation - long","","null","","","","","","","","","","","","",""
"","html-keyboard-response","354","903903","0.0-586.0","4zye67zy","1680","1050","","","","","","","","","","","640","If rrd press RIGHT | If ila press LEFT","Inducer instructions",""," ","11","","","","","","","","","","","",""
"","html-keyboard-response","355","904659","0.0-587.0","4zye67zy","1680","1050","","","","","","","","","","","null","+","Fixation - short","","null","","","","","","","","","","","","",""
"","html-keyboard-response","356","905380","0.0-588.0","4zye67zy","1680","1050","","","","","","","","","","","720","rrd","Diagnostic trial","","j","11","0","false","true","RIGHT","j","1","","LEFT","false","","",""
"","html-keyboard-response","357","906139","0.0-591.0","4zye67zy","1680","1050","","","","","","","","","","","null","+","Fixation - short","","null","","","","","","","","","","","","",""
"","html-keyboard-response","358","906776","0.0-592.0","4zye67zy","1680","1050","","","","","","","","","","","636","rrd","Diagnostic trial","","f","11","1","false","false","LEFT","f","1","","LEFT","true","","",""
"","html-keyboard-response","359","907539","0.0-595.0","4zye67zy","1680","1050","","","","","","","","","","","null","+","Fixation - short","","null","","","","","","","","","","","","",""
"","html-keyboard-response","360","908425","0.0-596.0","4zye67zy","1680","1050","","","","","","","","","","","886","ila","Diagnostic trial","","f","11","2","false","false","LEFT","f","1","","RIGHT","false","","",""
"","html-keyboard-response","361","909185","0.0-599.0","4zye67zy","1680","1050","","","","","","","","","","","null","+","Fixation - short","","null","","","","","","","","","","","","",""
"","html-keyboard-response","362","909732","0.0-600.0","4zye67zy","1680","1050","","","","","","","","","","","546","rrd","Diagnostic trial","","j","11","3","false","true","RIGHT","j","1","","LEFT","false","","",""
"","html-keyboard-response","363","910486","0.0-603.0","4zye67zy","1680","1050","","","","","","","","","","","null","+","Fixation - short","","null","","","","","","","","","","","","",""
"","html-keyboard-response","364","911089","0.0-604.0","4zye67zy","1680","1050","","","","","","","","","","","603","ila","Diagnostic trial","","j","11","4","false","true","RIGHT","j","1","","RIGHT","true","","",""
"","html-keyboard-response","365","911849","0.0-607.0","4zye67zy","1680","1050","","","","","","","","","","","null","+","Fixation - short","","null","","","","","","","","","","","","",""
"","html-keyboard-response","366","912495","0.0-608.0","4zye67zy","1680","1050","","","","","","","","","","","645","ila","Diagnostic trial","","f","11","5","false","false","LEFT","f","1","","RIGHT","false","","",""
"","html-keyboard-response","367","913258","0.0-611.0","4zye67zy","1680","1050","","","","","","","","","","","null","+","Fixation - short","","null","","","","","","","","","","","","",""
"","html-keyboard-response","368","913868","0.0-612.0","4zye67zy","1680","1050","","","","","","","","","","","610","rrd","Diagnostic trial","","j","11","6","false","true","RIGHT","j","1","","LEFT","false","","",""
"","html-keyboard-response","369","914622","0.0-615.0","4zye67zy","1680","1050","","","","","","","","","","","null","+","Fixation - short","","null","","","","","","","","","","","","",""
"","html-keyboard-response","370","915122","0.0-616.0","4zye67zy","1680","1050","","","","","","","","","","","499","rrd","Diagnostic trial","","j","11","7","false","true","RIGHT","j","1","","LEFT","false","","",""
"","html-keyboard-response","371","915883","0.0-619.0","4zye67zy","1680","1050","","","","","","","","","","","null","+","Fixation - short","","null","","","","","","","","","","","","",""
"","html-keyboard-response","372","916542","0.0-620.0","4zye67zy","1680","1050","","","","","","","","","","","658","rrd","Inducer trial","","f","11","","true","","","j","0","RIGHT","","","","",""
"","call-function","373","916542","0.0-622.0-0.0","4zye67zy","","","","","","","","","","","","","","","","","","","","","","","","","","","","","",""
"","html-keyboard-response","374","916847","0.0-622.0-1.0","4zye67zy","1680","1050","","","","","","","","","","","null","Wrong","Feedback","","null","","","","","","","","","","","","",""
"","call-function","375","916847","0.0-622.0-2.0","4zye67zy","","","","","","","","","","","","","","","","","","","","","","","","","","","","","",""
"","html-keyboard-response","376","918352","0.0-623.0","4zye67zy","1680","1050","","","","","","","","","","","null","+","Fixation - long","","null","","","","","","","","","","","","",""
"","html-keyboard-response","377","918971","0.0-624.0","4zye67zy","1680","1050","","","","","","","","","","","618","If psl press RIGHT | If hfs press LEFT","Inducer instructions",""," ","12","","","","","","","","","","","",""
"","html-keyboard-response","378","919728","0.0-625.0","4zye67zy","1680","1050","","","","","","","","","","","null","+","Fixation - short","","null","","","","","","","","","","","","",""
"","html-keyboard-response","379","920453","0.0-626.0","4zye67zy","1680","1050","","","","","","","","","","","725","psl","Diagnostic trial","","j","12","0","false","true","RIGHT","j","1","","LEFT","false","","",""
"","html-keyboard-response","380","921211","0.0-629.0","4zye67zy","1680","1050","","","","","","","","","","","null","+","Fixation - short","","null","","","","","","","","","","","","",""
"","html-keyboard-response","381","921777","0.0-630.0","4zye67zy","1680","1050","","","","","","","","","","","565","psl","Diagnostic trial","","f","12","1","false","false","LEFT","f","1","","LEFT","true","","",""
"","html-keyboard-response","382","922538","0.0-633.0","4zye67zy","1680","1050","","","","","","","","","","","null","+","Fixation - short","","null","","","","","","","","","","","","",""
"","html-keyboard-response","383","923167","0.0-634.0","4zye67zy","1680","1050","","","","","","","","","","","628","hfs","Diagnostic trial","","f","12","2","false","false","LEFT","f","1","","RIGHT","false","","",""
"","html-keyboard-response","384","923922","0.0-637.0","4zye67zy","1680","1050","","","","","","","","","","","null","+","Fixation - short","","null","","","","","","","","","","","","",""
"","html-keyboard-response","385","924597","0.0-638.0","4zye67zy","1680","1050","","","","","","","","","","","674","psl","Diagnostic trial","","f","12","3","false","false","LEFT","f","1","","LEFT","true","","",""
"","html-keyboard-response","386","925352","0.0-641.0","4zye67zy","1680","1050","","","","","","","","","","","null","+","Fixation - short","","null","","","","","","","","","","","","",""
"","html-keyboard-response","387","926066","0.0-642.0","4zye67zy","1680","1050","","","","","","","","","","","714","psl","Diagnostic trial","","j","12","4","false","true","RIGHT","j","1","","LEFT","false","","",""
"","html-keyboard-response","388","926827","0.0-645.0","4zye67zy","1680","1050","","","","","","","","","","","null","+","Fixation - short","","null","","","","","","","","","","","","",""
"","html-keyboard-response","389","927403","0.0-646.0","4zye67zy","1680","1050","","","","","","","","","","","576","hfs","Inducer trial","","f","12","","true","","","f","1","LEFT","","","","",""
"","html-keyboard-response","390","928911","0.0-649.0","4zye67zy","1680","1050","","","","","","","","","","","null","+","Fixation - long","","null","","","","","","","","","","","","",""
"","html-keyboard-response","391","929408","0.0-650.0","4zye67zy","1680","1050","","","","","","","","","","","496","If mvv press RIGHT | If upf press LEFT","Inducer instructions",""," ","13","","","","","","","","","","","",""
"","html-keyboard-response","392","930162","0.0-651.0","4zye67zy","1680","1050","","","","","","","","","","","null","+","Fixation - short","","null","","","","","","","","","","","","",""
"","html-keyboard-response","393","930754","0.0-652.0","4zye67zy","1680","1050","","","","","","","","","","","591","upf","Diagnostic trial","","f","13","0","false","false","LEFT","f","1","","RIGHT","false","","",""
"","html-keyboard-response","394","931510","0.0-655.0","4zye67zy","1680","1050","","","","","","","","","","","null","+","Fixation - short","","null","","","","","","","","","","","","",""
"","html-keyboard-response","395","932326","0.0-656.0","4zye67zy","1680","1050","","","","","","","","","","","815","mvv","Diagnostic trial","","j","13","1","false","true","RIGHT","j","1","","LEFT","false","","",""
"","html-keyboard-response","396","933083","0.0-659.0","4zye67zy","1680","1050","","","","","","","","","","","null","+","Fixation - short","","null","","","","","","","","","","","","",""
"","html-keyboard-response","397","933577","0.0-660.0","4zye67zy","1680","1050","","","","","","","","","","","494","upf","Diagnostic trial","","j","13","2","false","true","RIGHT","j","1","","RIGHT","true","","",""
"","html-keyboard-response","398","934334","0.0-663.0","4zye67zy","1680","1050","","","","","","","","","","","null","+","Fixation - short","","null","","","","","","","","","","","","",""
"","html-keyboard-response","399","934825","0.0-664.0","4zye67zy","1680","1050","","","","","","","","","","","490","mvv","Diagnostic trial","","j","13","3","false","true","RIGHT","j","1","","LEFT","false","","",""
"","html-keyboard-response","400","935585","0.0-667.0","4zye67zy","1680","1050","","","","","","","","","","","null","+","Fixation - short","","null","","","","","","","","","","","","",""
"","html-keyboard-response","401","936123","0.0-668.0","4zye67zy","1680","1050","","","","","","","","","","","537","mvv","Diagnostic trial","","j","13","4","false","true","RIGHT","j","1","","LEFT","false","","",""
"","html-keyboard-response","402","936882","0.0-671.0","4zye67zy","1680","1050","","","","","","","","","","","null","+","Fixation - short","","null","","","","","","","","","","","","",""
"","html-keyboard-response","403","937455","0.0-672.0","4zye67zy","1680","1050","","","","","","","","","","","573","upf","Diagnostic trial","","j","13","5","false","true","RIGHT","j","1","","RIGHT","true","","",""
"","html-keyboard-response","404","938211","0.0-675.0","4zye67zy","1680","1050","","","","","","","","","","","null","+","Fixation - short","","null","","","","","","","","","","","","",""
"","html-keyboard-response","405","938855","0.0-676.0","4zye67zy","1680","1050","","","","","","","","","","","644","upf","Diagnostic trial","","f","13","6","false","false","LEFT","f","1","","RIGHT","false","","",""
"","html-keyboard-response","406","939618","0.0-679.0","4zye67zy","1680","1050","","","","","","","","","","","null","+","Fixation - short","","null","","","","","","","","","","","","",""
"","html-keyboard-response","407","940795","0.0-680.0","4zye67zy","1680","1050","","","","","","","","","","","1176","mvv","Diagnostic trial","","j","13","7","false","true","RIGHT","j","1","","LEFT","false","","",""
"","html-keyboard-response","408","941553","0.0-683.0","4zye67zy","1680","1050","","","","","","","","","","","null","+","Fixation - short","","null","","","","","","","","","","","","",""
"","html-keyboard-response","409","942060","0.0-684.0","4zye67zy","1680","1050","","","","","","","","","","","507","upf","Inducer trial","","f","13","","true","","","f","1","LEFT","","","","",""
"","html-keyboard-response","410","943568","0.0-687.0","4zye67zy","1680","1050","","","","","","","","","","","null","+","Fixation - long","","null","","","","","","","","","","","","",""
"","html-keyboard-response","411","944156","0.0-688.0","4zye67zy","1680","1050","","","","","","","","","","","588","If tkb press RIGHT | If bwe press LEFT","Inducer instructions",""," ","14","","","","","","","","","","","",""
"","html-keyboard-response","412","944910","0.0-689.0","4zye67zy","1680","1050","","","","","","","","","","","null","+","Fixation - short","","null","","","","","","","","","","","","",""
"","html-keyboard-response","413","945734","0.0-690.0","4zye67zy","1680","1050","","","","","","","","","","","823","bwe","Diagnostic trial","","f","14","0","false","false","LEFT","f","1","","RIGHT","false","","",""
"","html-keyboard-response","414","946489","0.0-693.0","4zye67zy","1680","1050","","","","","","","","","","","null","+","Fixation - short","","null","","","","","","","","","","","","",""
"","html-keyboard-response","415","947048","0.0-694.0","4zye67zy","1680","1050","","","","","","","","","","","559","bwe","Diagnostic trial","","j","14","1","false","true","RIGHT","j","1","","RIGHT","true","","",""
"","html-keyboard-response","416","947810","0.0-697.0","4zye67zy","1680","1050","","","","","","","","","","","null","+","Fixation - short","","null","","","","","","","","","","","","",""
"","html-keyboard-response","417","948420","0.0-698.0","4zye67zy","1680","1050","","","","","","","","","","","609","tkb","Diagnostic trial","","j","14","2","false","true","RIGHT","j","1","","LEFT","false","","",""
"","html-keyboard-response","418","949177","0.0-701.0","4zye67zy","1680","1050","","","","","","","","","","","null","+","Fixation - short","","null","","","","","","","","","","","","",""
"","html-keyboard-response","419","949906","0.0-702.0","4zye67zy","1680","1050","","","","","","","","","","","728","tkb","Diagnostic trial","","f","14","3","false","false","LEFT","f","1","","LEFT","true","","",""
"","html-keyboard-response","420","950666","0.0-705.0","4zye67zy","1680","1050","","","","","","","","","","","null","+","Fixation - short","","null","","","","","","","","","","","","",""
"","html-keyboard-response","421","951372","0.0-706.0","4zye67zy","1680","1050","","","","","","","","","","","705","tkb","Diagnostic trial","","j","14","4","false","true","RIGHT","j","1","","LEFT","false","","",""
"","html-keyboard-response","422","952130","0.0-709.0","4zye67zy","1680","1050","","","","","","","","","","","null","+","Fixation - short","","null","","","","","","","","","","","","",""
"","html-keyboard-response","423","952718","0.0-710.0","4zye67zy","1680","1050","","","","","","","","","","","588","bwe","Diagnostic trial","","f","14","5","false","false","LEFT","f","1","","RIGHT","false","","",""
"","html-keyboard-response","424","953472","0.0-713.0","4zye67zy","1680","1050","","","","","","","","","","","null","+","Fixation - short","","null","","","","","","","","","","","","",""
"","html-keyboard-response","425","954067","0.0-714.0","4zye67zy","1680","1050","","","","","","","","","","","594","bwe","Diagnostic trial","","f","14","6","false","false","LEFT","f","1","","RIGHT","false","","",""
"","html-keyboard-response","426","954824","0.0-717.0","4zye67zy","1680","1050","","","","","","","","","","","null","+","Fixation - short","","null","","","","","","","","","","","","",""
"","html-keyboard-response","427","955496","0.0-718.0","4zye67zy","1680","1050","","","","","","","","","","","671","tkb","Diagnostic trial","","f","14","7","false","false","LEFT","f","1","","LEFT","true","","",""
"","html-keyboard-response","428","956258","0.0-721.0","4zye67zy","1680","1050","","","","","","","","","","","null","+","Fixation - short","","null","","","","","","","","","","","","",""
"","html-keyboard-response","429","956704","0.0-722.0","4zye67zy","1680","1050","","","","","","","","","","","445","tkb","Diagnostic trial","","f","14","8","false","false","LEFT","f","1","","LEFT","true","","",""
"","html-keyboard-response","430","957463","0.0-725.0","4zye67zy","1680","1050","","","","","","","","","","","null","+","Fixation - short","","null","","","","","","","","","","","","",""
"","html-keyboard-response","431","957944","0.0-726.0","4zye67zy","1680","1050","","","","","","","","","","","480","bwe","Diagnostic trial","","j","14","9","false","true","RIGHT","j","1","","RIGHT","true","","",""
"","html-keyboard-response","432","958705","0.0-729.0","4zye67zy","1680","1050","","","","","","","","","","","null","+","Fixation - short","","null","","","","","","","","","","","","",""
"","html-keyboard-response","433","959129","0.0-730.0","4zye67zy","1680","1050","","","","","","","","","","","423","bwe","Diagnostic trial","","j","14","10","false","true","RIGHT","j","1","","RIGHT","true","","",""
"","html-keyboard-response","434","959890","0.0-733.0","4zye67zy","1680","1050","","","","","","","","","","","null","+","Fixation - short","","null","","","","","","","","","","","","",""
"","html-keyboard-response","435","960714","0.0-734.0","4zye67zy","1680","1050","","","","","","","","","","","824","bwe","Diagnostic trial","","f","14","11","false","false","LEFT","f","1","","RIGHT","false","","",""
"","html-keyboard-response","436","961474","0.0-737.0","4zye67zy","1680","1050","","","","","","","","","","","null","+","Fixation - short","","null","","","","","","","","","","","","",""
"","html-keyboard-response","437","962001","0.0-738.0","4zye67zy","1680","1050","","","","","","","","","","","526","bwe","Diagnostic trial","","f","14","12","false","false","LEFT","f","1","","RIGHT","false","","",""
"","html-keyboard-response","438","962762","0.0-741.0","4zye67zy","1680","1050","","","","","","","","","","","null","+","Fixation - short","","null","","","","","","","","","","","","",""
"","html-keyboard-response","439","963493","0.0-742.0","4zye67zy","1680","1050","","","","","","","","","","","730","bwe","Inducer trial","","f","14","","true","","","f","1","LEFT","","","","",""
"","html-keyboard-response","440","965000","0.0-745.0","4zye67zy","1680","1050","","","","","","","","","","","null","+","Fixation - long","","null","","","","","","","","","","","","",""
"","html-keyboard-response","441","965798","0.0-746.0","4zye67zy","1680","1050","","","","","","","","","","","797","If ydi press RIGHT | If dpa press LEFT","Inducer instructions",""," ","15","","","","","","","","","","","",""
"","html-keyboard-response","442","966554","0.0-747.0","4zye67zy","1680","1050","","","","","","","","","","","null","+","Fixation - short","","null","","","","","","","","","","","","",""
"","html-keyboard-response","443","967224","0.0-748.0","4zye67zy","1680","1050","","","","","","","","","","","670","ydi","Diagnostic trial","","j","15","0","false","true","RIGHT","j","1","","LEFT","false","","",""
"","html-keyboard-response","444","967985","0.0-751.0","4zye67zy","1680","1050","","","","","","","","","","","null","+","Fixation - short","","null","","","","","","","","","","","","",""
"","html-keyboard-response","445","968488","0.0-752.0","4zye67zy","1680","1050","","","","","","","","","","","502","dpa","Diagnostic trial","","j","15","1","false","true","RIGHT","j","1","","RIGHT","true","","",""
"","html-keyboard-response","446","969250","0.0-755.0","4zye67zy","1680","1050","","","","","","","","","","","null","+","Fixation - short","","null","","","","","","","","","","","","",""
"","html-keyboard-response","447","969775","0.0-756.0","4zye67zy","1680","1050","","","","","","","","","","","524","dpa","Diagnostic trial","","f","15","2","false","false","LEFT","f","1","","RIGHT","false","","",""
"","html-keyboard-response","448","970527","0.0-759.0","4zye67zy","1680","1050","","","","","","","","","","","null","+","Fixation - short","","null","","","","","","","","","","","","",""
"","html-keyboard-response","449","971224","0.0-760.0","4zye67zy","1680","1050","","","","","","","","","","","696","ydi","Diagnostic trial","","f","15","3","false","false","LEFT","f","1","","LEFT","true","","",""
"","html-keyboard-response","450","971985","0.0-763.0","4zye67zy","1680","1050","","","","","","","","","","","null","+","Fixation - short","","null","","","","","","","","","","","","",""
"","html-keyboard-response","451","973262","0.0-764.0","4zye67zy","1680","1050","","","","","","","","","","","1276","dpa","Diagnostic trial","","j","15","4","false","true","RIGHT","j","1","","RIGHT","true","","",""
"","html-keyboard-response","452","974019","0.0-767.0","4zye67zy","1680","1050","","","","","","","","","","","null","+","Fixation - short","","null","","","","","","","","","","","","",""
"","html-keyboard-response","453","974708","0.0-768.0","4zye67zy","1680","1050","","","","","","","","","","","688","ydi","Diagnostic trial","","f","15","5","false","false","LEFT","f","1","","LEFT","true","","",""
"","html-keyboard-response","454","975465","0.0-771.0","4zye67zy","1680","1050","","","","","","","","","","","null","+","Fixation - short","","null","","","","","","","","","","","","",""
"","html-keyboard-response","455","976086","0.0-772.0","4zye67zy","1680","1050","","","","","","","","","","","620","dpa","Inducer trial","","f","15","","true","","","f","1","LEFT","","","","",""
"","html-keyboard-response","456","977592","0.0-775.0","4zye67zy","1680","1050","","","","","","","","","","","null","+","Fixation - long","","null","","","","","","","","","","","","",""
"","html-keyboard-response","457","978505","0.0-776.0","4zye67zy","1680","1050","","","","","","","","","","","912","If ivr press RIGHT | If rpw press LEFT","Inducer instructions",""," ","16","","","","","","","","","","","",""
"","html-keyboard-response","458","979265","0.0-777.0","4zye67zy","1680","1050","","","","","","","","","","","null","+","Fixation - short","","null","","","","","","","","","","","","",""
"","html-keyboard-response","459","979883","0.0-778.0","4zye67zy","1680","1050","","","","","","","","","","","618","ivr","Diagnostic trial","","f","16","0","false","false","LEFT","f","1","","LEFT","true","","",""
"","html-keyboard-response","460","980642","0.0-781.0","4zye67zy","1680","1050","","","","","","","","","","","null","+","Fixation - short","","null","","","","","","","","","","","","",""
"","html-keyboard-response","461","981337","0.0-782.0","4zye67zy","1680","1050","","","","","","","","","","","695","ivr","Diagnostic trial","","j","16","1","false","true","RIGHT","j","1","","LEFT","false","","",""
"","html-keyboard-response","462","982099","0.0-785.0","4zye67zy","1680","1050","","","","","","","","","","","null","+","Fixation - short","","null","","","","","","","","","","","","",""
"","html-keyboard-response","463","982704","0.0-786.0","4zye67zy","1680","1050","","","","","","","","","","","604","ivr","Diagnostic trial","","f","16","2","false","false","LEFT","f","1","","LEFT","true","","",""
"","html-keyboard-response","464","983464","0.0-789.0","4zye67zy","1680","1050","","","","","","","","","","","null","+","Fixation - short","","null","","","","","","","","","","","","",""
"","html-keyboard-response","465","984128","0.0-790.0","4zye67zy","1680","1050","","","","","","","","","","","663","ivr","Diagnostic trial","","j","16","3","false","true","RIGHT","j","1","","LEFT","false","","",""
"","html-keyboard-response","466","984889","0.0-793.0","4zye67zy","1680","1050","","","","","","","","","","","null","+","Fixation - short","","null","","","","","","","","","","","","",""
"","html-keyboard-response","467","985675","0.0-794.0","4zye67zy","1680","1050","","","","","","","","","","","785","rpw","Diagnostic trial","","f","16","4","false","false","LEFT","f","1","","RIGHT","false","","",""
"","html-keyboard-response","468","986435","0.0-797.0","4zye67zy","1680","1050","","","","","","","","","","","null","+","Fixation - short","","null","","","","","","","","","","","","",""
"","html-keyboard-response","469","987277","0.0-798.0","4zye67zy","1680","1050","","","","","","","","","","","841","rpw","Diagnostic trial","","j","16","5","false","true","RIGHT","j","1","","RIGHT","true","","",""
"","html-keyboard-response","470","988034","0.0-801.0","4zye67zy","1680","1050","","","","","","","","","","","null","+","Fixation - short","","null","","","","","","","","","","","","",""
"","html-keyboard-response","471","988705","0.0-802.0","4zye67zy","1680","1050","","","","","","","","","","","670","rpw","Diagnostic trial","","f","16","6","false","false","LEFT","f","1","","RIGHT","false","","",""
"","html-keyboard-response","472","989467","0.0-805.0","4zye67zy","1680","1050","","","","","","","","","","","null","+","Fixation - short","","null","","","","","","","","","","","","",""
"","html-keyboard-response","473","990049","0.0-806.0","4zye67zy","1680","1050","","","","","","","","","","","581","ivr","Diagnostic trial","","j","16","7","false","true","RIGHT","j","1","","LEFT","false","","",""
"","html-keyboard-response","474","990811","0.0-809.0","4zye67zy","1680","1050","","","","","","","","","","","null","+","Fixation - short","","null","","","","","","","","","","","","",""
"","html-keyboard-response","475","991404","0.0-810.0","4zye67zy","1680","1050","","","","","","","","","","","593","rpw","Diagnostic trial","","f","16","8","false","false","LEFT","f","1","","RIGHT","false","","",""
"","html-keyboard-response","476","992160","0.0-813.0","4zye67zy","1680","1050","","","","","","","","","","","null","+","Fixation - short","","null","","","","","","","","","","","","",""
"","html-keyboard-response","477","992829","0.0-814.0","4zye67zy","1680","1050","","","","","","","","","","","668","ivr","Diagnostic trial","","j","16","9","false","true","RIGHT","j","1","","LEFT","false","","",""
"","html-keyboard-response","478","993586","0.0-817.0","4zye67zy","1680","1050","","","","","","","","","","","null","+","Fixation - short","","null","","","","","","","","","","","","",""
"","html-keyboard-response","479","994414","0.0-818.0","4zye67zy","1680","1050","","","","","","","","","","","827","ivr","Diagnostic trial","","f","16","10","false","false","LEFT","f","1","","LEFT","true","","",""
"","html-keyboard-response","480","995167","0.0-821.0","4zye67zy","1680","1050","","","","","","","","","","","null","+","Fixation - short","","null","","","","","","","","","","","","",""
"","html-keyboard-response","481","995852","0.0-822.0","4zye67zy","1680","1050","","","","","","","","","","","684","rpw","Diagnostic trial","","j","16","11","false","true","RIGHT","j","1","","RIGHT","true","","",""
"","html-keyboard-response","482","996611","0.0-825.0","4zye67zy","1680","1050","","","","","","","","","","","null","+","Fixation - short","","null","","","","","","","","","","","","",""
"","html-keyboard-response","483","997220","0.0-826.0","4zye67zy","1680","1050","","","","","","","","","","","609","ivr","Diagnostic trial","","j","16","12","false","true","RIGHT","j","1","","LEFT","false","","",""
"","html-keyboard-response","484","997976","0.0-829.0","4zye67zy","1680","1050","","","","","","","","","","","null","+","Fixation - short","","null","","","","","","","","","","","","",""
"","html-keyboard-response","485","998635","0.0-830.0","4zye67zy","1680","1050","","","","","","","","","","","658","rpw","Diagnostic trial","","f","16","13","false","false","LEFT","f","1","","RIGHT","false","","",""
"","html-keyboard-response","486","999391","0.0-833.0","4zye67zy","1680","1050","","","","","","","","","","","null","+","Fixation - short","","null","","","","","","","","","","","","",""
"","html-keyboard-response","487","1000126","0.0-834.0","4zye67zy","1680","1050","","","","","","","","","","","734","rpw","Diagnostic trial","","f","16","14","false","false","LEFT","f","1","","RIGHT","false","","",""
"","html-keyboard-response","488","1000882","0.0-837.0","4zye67zy","1680","1050","","","","","","","","","","","null","+","Fixation - short","","null","","","","","","","","","","","","",""
"","html-keyboard-response","489","1001531","0.0-838.0","4zye67zy","1680","1050","","","","","","","","","","","648","ivr","Diagnostic trial","","j","16","15","false","true","RIGHT","j","1","","LEFT","false","","",""
"","html-keyboard-response","490","1002289","0.0-841.0","4zye67zy","1680","1050","","","","","","","","","","","null","+","Fixation - short","","null","","","","","","","","","","","","",""
"","html-keyboard-response","491","1003711","0.0-842.0","4zye67zy","1680","1050","","","","","","","","","","","1421","ivr","Inducer trial","","f","16","","true","","","j","0","RIGHT","","","","",""
"","call-function","492","1003711","0.0-844.0-0.0","4zye67zy","","","","","","","","","","","","","","","","","","","","","","","","","","","","","",""
"","html-keyboard-response","493","1004019","0.0-844.0-1.0","4zye67zy","1680","1050","","","","","","","","","","","null","Wrong","Feedback","","null","","","","","","","","","","","","",""
"","call-function","494","1004019","0.0-844.0-2.0","4zye67zy","","","","","","","","","","","","","","","","","","","","","","","","","","","","","",""
"","html-keyboard-response","495","1005532","0.0-845.0","4zye67zy","1680","1050","","","","","","","","","","","null","+","Fixation - long","","null","","","","","","","","","","","","",""
"","html-keyboard-response","496","1006596","0.0-846.0","4zye67zy","1680","1050","","","","","","","","","","","1063","If dgv press RIGHT | If kho press LEFT","Inducer instructions",""," ","17","","","","","","","","","","","",""
"","html-keyboard-response","497","1007356","0.0-847.0","4zye67zy","1680","1050","","","","","","","","","","","null","+","Fixation - short","","null","","","","","","","","","","","","",""
"","html-keyboard-response","498","1008056","0.0-848.0","4zye67zy","1680","1050","","","","","","","","","","","700","kho","Diagnostic trial","","j","17","0","false","true","RIGHT","j","1","","RIGHT","true","","",""
"","html-keyboard-response","499","1008815","0.0-851.0","4zye67zy","1680","1050","","","","","","","","","","","null","+","Fixation - short","","null","","","","","","","","","","","","",""
"","html-keyboard-response","500","1009449","0.0-852.0","4zye67zy","1680","1050","","","","","","","","","","","633","dgv","Diagnostic trial","","f","17","1","false","false","LEFT","f","1","","LEFT","true","","",""
