"value","trial_type","trial_index","time_elapsed","internal_node_id","id","width","height","webaudio","browser","browser_version","mobile","os","fullscreen","vsync_rate","webcam","microphone","view_history","rt","stimulus","trial_info","success","response","inducer_run","diagnostic_run","inducer_trial","italic","correct_diag_response_side","correct_response_key","correct_response","correct_indu_response_side","correct_inducer_response_side","congruent","accuracy","open_feedback","interactive"
"","call-function","0","2","0.0-0.0","tmp7bwa5","","","","","","","","","","","","","","","","","","","","","","","","","","","","","",""
"","browser-check","1","2688","0.0-1.0","tmp7bwa5","1116","1186","true","chrome","121.0.0","false","Linux","true","59.37","false","true","","","","","","","","","","","","","","","","","","",""
"","instructions","2","79687","0.0-2.0","tmp7bwa5","","","","","","","","","","","","[{""page_index"":0,""viewing_time"":42023},{""page_index"":1,""viewing_time"":29731},{""page_index"":2,""viewing_time"":5243}]","76998","The experiment and consent","The experiment and consent","","","","","","","","","","","","","","",""
"","fullscreen","3","107157","0.0-3.0","tmp7bwa5","3440","1440","","","","","","","","","","","26467","","Full screen","true","","","","","","","","","","","","","",""
"","instructions","4","165305","0.0-4.0","tmp7bwa5","3440","1440","","","","","","","","","","[{""page_index"":0,""viewing_time"":32652},{""page_index"":1,""viewing_time"":25495}]","58147","Instructions","Basic overview explanation","","","","","","","","","","","","","","",""
"","html-keyboard-response","5","174238","0.0-5.0","tmp7bwa5","3440","1440","","","","","","","","","","","7430","If italic press LEFT | If upright press RIGHT","Diagnostic instructions",""," ","","","","","","","","","","","","",""
"","html-keyboard-response","6","174989","0.0-6.0","tmp7bwa5","3440","1440","","","","","","","","","","","null","+","Fixation - short","","null","","","","","","","","","","","","",""
"","html-keyboard-response","7","175609","0.0-7.0","tmp7bwa5","3440","1440","","","","","","","","","","","618","feg","Practice diganostic trial","","j","practice","0","false","0","RIGHT","j","1","","","","","",""
"","html-keyboard-response","8","176360","0.0-10.0","tmp7bwa5","3440","1440","","","","","","","","","","","null","+","Fixation - short","","null","","","","","","","","","","","","",""
"","html-keyboard-response","9","176868","0.0-11.0","tmp7bwa5","3440","1440","","","","","","","","","","","507","feg","Practice diganostic trial","","f","practice","1","false","1","LEFT","f","1","","","","","",""
"","html-keyboard-response","10","177620","0.0-14.0","tmp7bwa5","3440","1440","","","","","","","","","","","null","+","Fixation - short","","null","","","","","","","","","","","","",""
"","html-keyboard-response","11","178237","0.0-15.0","tmp7bwa5","3440","1440","","","","","","","","","","","617","feg","Practice diganostic trial","","j","practice","2","false","0","RIGHT","j","1","","","","","",""
"","html-keyboard-response","12","178988","0.0-18.0","tmp7bwa5","3440","1440","","","","","","","","","","","null","+","Fixation - short","","null","","","","","","","","","","","","",""
"","html-keyboard-response","13","179761","0.0-19.0","tmp7bwa5","3440","1440","","","","","","","","","","","772","efg","Practice diganostic trial","","j","practice","3","false","0","RIGHT","j","1","","","","","",""
"","html-keyboard-response","14","180513","0.0-22.0","tmp7bwa5","3440","1440","","","","","","","","","","","null","+","Fixation - short","","null","","","","","","","","","","","","",""
"","html-keyboard-response","15","181126","0.0-23.0","tmp7bwa5","3440","1440","","","","","","","","","","","612","feg","Practice diganostic trial","","f","practice","4","false","1","LEFT","f","1","","","","","",""
"","html-keyboard-response","16","181877","0.0-26.0","tmp7bwa5","3440","1440","","","","","","","","","","","null","+","Fixation - short","","null","","","","","","","","","","","","",""
"","html-keyboard-response","17","182435","0.0-27.0","tmp7bwa5","3440","1440","","","","","","","","","","","558","feg","Practice diganostic trial","","j","practice","5","false","0","RIGHT","j","1","","","","","",""
"","html-keyboard-response","18","183186","0.0-30.0","tmp7bwa5","3440","1440","","","","","","","","","","","null","+","Fixation - short","","null","","","","","","","","","","","","",""
"","html-keyboard-response","19","183588","0.0-31.0","tmp7bwa5","3440","1440","","","","","","","","","","","400","feg","Practice diganostic trial","","f","practice","6","false","1","LEFT","f","1","","","","","",""
"","html-keyboard-response","20","184339","0.0-34.0","tmp7bwa5","3440","1440","","","","","","","","","","","null","+","Fixation - short","","null","","","","","","","","","","","","",""
"","html-keyboard-response","21","184980","0.0-35.0","tmp7bwa5","3440","1440","","","","","","","","","","","640","feg","Practice diganostic trial","","j","practice","7","false","0","RIGHT","j","1","","","","","",""
"","html-keyboard-response","22","185731","0.0-38.0","tmp7bwa5","3440","1440","","","","","","","","","","","null","+","Fixation - short","","null","","","","","","","","","","","","",""
"","html-keyboard-response","23","186300","0.0-39.0","tmp7bwa5","3440","1440","","","","","","","","","","","569","feg","Practice diganostic trial","","f","practice","8","false","1","LEFT","f","1","","","","","",""
"","html-keyboard-response","24","187051","0.0-42.0","tmp7bwa5","3440","1440","","","","","","","","","","","null","+","Fixation - short","","null","","","","","","","","","","","","",""
"","html-keyboard-response","25","187770","0.0-43.0","tmp7bwa5","3440","1440","","","","","","","","","","","718","efg","Practice diganostic trial","","j","practice","9","false","0","RIGHT","j","1","","","","","",""
"","html-keyboard-response","26","188521","0.0-46.0","tmp7bwa5","3440","1440","","","","","","","","","","","null","+","Fixation - short","","null","","","","","","","","","","","","",""
"","html-keyboard-response","27","189383","0.0-47.0","tmp7bwa5","3440","1440","","","","","","","","","","","861","efg","Practice diganostic trial","","j","practice","10","false","0","RIGHT","j","1","","","","","",""
"","html-keyboard-response","28","190134","0.0-50.0","tmp7bwa5","3440","1440","","","","","","","","","","","null","+","Fixation - short","","null","","","","","","","","","","","","",""
"","html-keyboard-response","29","190653","0.0-51.0","tmp7bwa5","3440","1440","","","","","","","","","","","518","efg","Practice diganostic trial","","f","practice","11","false","1","LEFT","f","1","","","","","",""
"","html-keyboard-response","30","191404","0.0-54.0","tmp7bwa5","3440","1440","","","","","","","","","","","null","+","Fixation - short","","null","","","","","","","","","","","","",""
"","html-keyboard-response","31","192157","0.0-55.0","tmp7bwa5","3440","1440","","","","","","","","","","","752","feg","Practice diganostic trial","","f","practice","12","false","1","LEFT","f","1","","","","","",""
"","html-keyboard-response","32","192908","0.0-58.0","tmp7bwa5","3440","1440","","","","","","","","","","","null","+","Fixation - short","","null","","","","","","","","","","","","",""
"","html-keyboard-response","33","193600","0.0-59.0","tmp7bwa5","3440","1440","","","","","","","","","","","691","efg","Practice diganostic trial","","j","practice","13","false","0","RIGHT","j","1","","","","","",""
"","html-keyboard-response","34","194351","0.0-62.0","tmp7bwa5","3440","1440","","","","","","","","","","","null","+","Fixation - short","","null","","","","","","","","","","","","",""
"","html-keyboard-response","35","195065","0.0-63.0","tmp7bwa5","3440","1440","","","","","","","","","","","713","feg","Practice diganostic trial","","f","practice","14","false","1","LEFT","f","1","","","","","",""
"","html-keyboard-response","36","195816","0.0-66.0","tmp7bwa5","3440","1440","","","","","","","","","","","null","+","Fixation - short","","null","","","","","","","","","","","","",""
"","html-keyboard-response","37","196659","0.0-67.0","tmp7bwa5","3440","1440","","","","","","","","","","","843","feg","Practice diganostic trial","","f","practice","15","false","1","LEFT","f","1","","","","","",""
"","html-keyboard-response","38","197410","0.0-70.0","tmp7bwa5","3440","1440","","","","","","","","","","","null","+","Fixation - short","","null","","","","","","","","","","","","",""
"","instructions","39","226292","0.0-71.0","tmp7bwa5","3440","1440","","","","","","","","","","[{""page_index"":0,""viewing_time"":28881}]","28881","Instructions","Final experiment explanation","","","","","","","","","","","","","","",""
"","html-keyboard-response","40","234569","0.0-72.0","tmp7bwa5","3440","1440","","","","","","","","","","","6774","If kmh press LEFT | If gfm press RIGHT","Practice inducer instructions",""," ","practice","","","","","","","","","","","",""
"","html-keyboard-response","41","235571","0.0-73.0","tmp7bwa5","3440","1440","","","","","","","","","","","1000","","Practice inducer trial","","j","practice","","true","","","j","1","RIGHT","","","","",""
"","html-keyboard-response","42","236322","0.0-76.0","tmp7bwa5","3440","1440","","","","","","","","","","","null","+","Fixation - short","","null","","","","","","","","","","","","",""
"","html-keyboard-response","43","241281","0.0-77.0","tmp7bwa5","3440","1440","","","","","","","","","","","4959","If vsc press LEFT | If guf press RIGHT","Practice inducer instructions",""," ","practice","","","","","","","","","","","",""
"","html-keyboard-response","44","242337","0.0-78.0","tmp7bwa5","3440","1440","","","","","","","","","","","1055","","Practice inducer trial","","j","practice","","true","","","j","1","RIGHT","","","","",""
"","html-keyboard-response","45","243088","0.0-81.0","tmp7bwa5","3440","1440","","","","","","","","","","","null","+","Fixation - short","","null","","","","","","","","","","","","",""
"","html-keyboard-response","46","246506","0.0-82.0","tmp7bwa5","3440","1440","","","","","","","","","","","3418","If quy press LEFT | If hfs press RIGHT","Practice inducer instructions",""," ","practice","","","","","","","","","","","",""
"","html-keyboard-response","47","246954","0.0-83.0","tmp7bwa5","3440","1440","","","","","","","","","","","447","","Practice inducer trial","","f","practice","","true","","","j","0","RIGHT","","","","",""
"","call-function","48","246955","0.0-85.0-0.0","tmp7bwa5","","","","","","","","","","","","","","","","","","","","","","","","","","","","","",""
"","html-keyboard-response","49","247256","0.0-85.0-1.0","tmp7bwa5","3440","1440","","","","","","","","","","","null","Wrong","Feedback","","null","","","","","","","","","","","","",""
"","call-function","50","247257","0.0-85.0-2.0","tmp7bwa5","","","","","","","","","","","","","","","","","","","","","","","","","","","","","",""
"","html-keyboard-response","51","248008","0.0-86.0","tmp7bwa5","3440","1440","","","","","","","","","","","null","+","Fixation - short","","null","","","","","","","","","","","","",""
"","html-keyboard-response","52","250225","0.0-87.0","tmp7bwa5","3440","1440","","","","","","","","","","","2216","If ecl press LEFT | If cta press RIGHT","Practice inducer instructions",""," ","practice","","","","","","","","","","","",""
"","html-keyboard-response","53","250818","0.0-88.0","tmp7bwa5","3440","1440","","","","","","","","","","","593","","Practice inducer trial","","f","practice","","true","","","f","1","LEFT","","","","",""
"","html-keyboard-response","54","251569","0.0-91.0","tmp7bwa5","3440","1440","","","","","","","","","","","null","+","Fixation - short","","null","","","","","","","","","","","","",""
"","html-keyboard-response","55","253363","0.0-92.0","tmp7bwa5","3440","1440","","","","","","","","","","","1793","If eht press LEFT | If crf press RIGHT","Practice inducer instructions",""," ","practice","","","","","","","","","","","",""
"","html-keyboard-response","56","253755","0.0-93.0","tmp7bwa5","3440","1440","","","","","","","","","","","392","","Practice inducer trial","","f","practice","","true","","","f","1","LEFT","","","","",""
"","html-keyboard-response","57","254506","0.0-96.0","tmp7bwa5","3440","1440","","","","","","","","","","","null","+","Fixation - short","","null","","","","","","","","","","","","",""
"","html-keyboard-response","58","256769","0.0-97.0","tmp7bwa5","3440","1440","","","","","","","","","","","2261","If cmj press LEFT | If cpt press RIGHT","Practice inducer instructions",""," ","practice","","","","","","","","","","","",""
"","html-keyboard-response","59","257400","0.0-98.0","tmp7bwa5","3440","1440","","","","","","","","","","","630","","Practice inducer trial","","f","practice","","true","","","f","1","LEFT","","","","",""
"","html-keyboard-response","60","258150","0.0-101.0","tmp7bwa5","3440","1440","","","","","","","","","","","null","+","Fixation - short","","null","","","","","","","","","","","","",""
"","html-keyboard-response","61","273835","0.0-102.0","tmp7bwa5","3440","1440","","","","","","","","","","","15683","End practice","End of practice",""," ","","","","","","","","","","","","",""
"","html-keyboard-response","62","275336","0.0-103.0","tmp7bwa5","3440","1440","","","","","","","","","","","null","+","Fixation - long","","null","","","","","","","","","","","","",""
"","html-keyboard-response","63","277473","0.0-104.0","tmp7bwa5","3440","1440","","","","","","","","","","","2135","If dgv press LEFT | If hrc press RIGHT","Inducer instructions",""," ","0","","","","","","","","","","","",""
"","html-keyboard-response","64","278224","0.0-105.0","tmp7bwa5","3440","1440","","","","","","","","","","","null","+","Fixation - short","","null","","","","","","","","","","","","",""
"","html-keyboard-response","65","279060","0.0-106.0","tmp7bwa5","3440","1440","","","","","","","","","","","835","hrc","Diagnostic trial","","j","0","0","false","true","LEFT","f","0","","RIGHT","false","","",""
"","call-function","66","279061","0.0-108.0-0.0","tmp7bwa5","","","","","","","","","","","","","","","","","","","","","","","","","","","","","",""
"","html-keyboard-response","67","279361","0.0-108.0-1.0","tmp7bwa5","3440","1440","","","","","","","","","","","null","Wrong","Feedback","","null","","","","","","","","","","","","",""
"","call-function","68","279362","0.0-108.0-2.0","tmp7bwa5","","","","","","","","","","","","","","","","","","","","","","","","","","","","","",""
"","html-keyboard-response","69","280113","0.0-109.0","tmp7bwa5","3440","1440","","","","","","","","","","","null","+","Fixation - short","","null","","","","","","","","","","","","",""
"","html-keyboard-response","70","282076","0.0-110.0","tmp7bwa5","3440","1440","","","","","","","","","","","1962","dgv","Diagnostic trial","","f","0","1","false","true","LEFT","f","1","","LEFT","true","","",""
"","html-keyboard-response","71","282827","0.0-113.0","tmp7bwa5","3440","1440","","","","","","","","","","","null","+","Fixation - short","","null","","","","","","","","","","","","",""
"","html-keyboard-response","72","283501","0.0-114.0","tmp7bwa5","3440","1440","","","","","","","","","","","673","dgv","Diagnostic trial","","f","0","2","false","true","LEFT","f","1","","LEFT","true","","",""
"","html-keyboard-response","73","284252","0.0-117.0","tmp7bwa5","3440","1440","","","","","","","","","","","null","+","Fixation - short","","null","","","","","","","","","","","","",""
"","html-keyboard-response","74","284979","0.0-118.0","tmp7bwa5","3440","1440","","","","","","","","","","","726","dgv","Diagnostic trial","","f","0","3","false","true","LEFT","f","1","","LEFT","true","","",""
"","html-keyboard-response","75","285730","0.0-121.0","tmp7bwa5","3440","1440","","","","","","","","","","","null","+","Fixation - short","","null","","","","","","","","","","","","",""
"","html-keyboard-response","76","286242","0.0-122.0","tmp7bwa5","3440","1440","","","","","","","","","","","512","dgv","Diagnostic trial","","f","0","4","false","false","RIGHT","j","0","","LEFT","false","","",""
"","call-function","77","286243","0.0-124.0-0.0","tmp7bwa5","","","","","","","","","","","","","","","","","","","","","","","","","","","","","",""
"","html-keyboard-response","78","286543","0.0-124.0-1.0","tmp7bwa5","3440","1440","","","","","","","","","","","null","Wrong","Feedback","","null","","","","","","","","","","","","",""
"","call-function","79","286544","0.0-124.0-2.0","tmp7bwa5","","","","","","","","","","","","","","","","","","","","","","","","","","","","","",""
"","html-keyboard-response","80","287295","0.0-125.0","tmp7bwa5","3440","1440","","","","","","","","","","","null","+","Fixation - short","","null","","","","","","","","","","","","",""
"","html-keyboard-response","81","288176","0.0-126.0","tmp7bwa5","3440","1440","","","","","","","","","","","881","dgv","Diagnostic trial","","j","0","5","false","false","RIGHT","j","1","","LEFT","false","","",""
"","html-keyboard-response","82","288927","0.0-129.0","tmp7bwa5","3440","1440","","","","","","","","","","","null","+","Fixation - short","","null","","","","","","","","","","","","",""
"","html-keyboard-response","83","290206","0.0-130.0","tmp7bwa5","3440","1440","","","","","","","","","","","1278","hrc","Diagnostic trial","","j","0","6","false","false","RIGHT","j","1","","RIGHT","true","","",""
"","html-keyboard-response","84","290957","0.0-133.0","tmp7bwa5","3440","1440","","","","","","","","","","","null","+","Fixation - short","","null","","","","","","","","","","","","",""
"","html-keyboard-response","85","291454","0.0-134.0","tmp7bwa5","3440","1440","","","","","","","","","","","496","hrc","Diagnostic trial","","j","0","7","false","false","RIGHT","j","1","","RIGHT","true","","",""
"","html-keyboard-response","86","292205","0.0-137.0","tmp7bwa5","3440","1440","","","","","","","","","","","null","+","Fixation - short","","null","","","","","","","","","","","","",""
"","html-keyboard-response","87","292973","0.0-138.0","tmp7bwa5","3440","1440","","","","","","","","","","","767","hrc","Diagnostic trial","","j","0","8","false","false","RIGHT","j","1","","RIGHT","true","","",""
"","html-keyboard-response","88","293724","0.0-141.0","tmp7bwa5","3440","1440","","","","","","","","","","","null","+","Fixation - short","","null","","","","","","","","","","","","",""
"","html-keyboard-response","89","294162","0.0-142.0","tmp7bwa5","3440","1440","","","","","","","","","","","437","dgv","Diagnostic trial","","f","0","9","false","true","LEFT","f","1","","LEFT","true","","",""
"","html-keyboard-response","90","294913","0.0-145.0","tmp7bwa5","3440","1440","","","","","","","","","","","null","+","Fixation - short","","null","","","","","","","","","","","","",""
"","html-keyboard-response","91","295875","0.0-146.0","tmp7bwa5","3440","1440","","","","","","","","","","","961","dgv","Diagnostic trial","","f","0","10","false","true","LEFT","f","1","","LEFT","true","","",""
"","html-keyboard-response","92","296626","0.0-149.0","tmp7bwa5","3440","1440","","","","","","","","","","","null","+","Fixation - short","","null","","","","","","","","","","","","",""
"","html-keyboard-response","93","297048","0.0-150.0","tmp7bwa5","3440","1440","","","","","","","","","","","421","dgv","Diagnostic trial","","f","0","11","false","true","LEFT","f","1","","LEFT","true","","",""
"","html-keyboard-response","94","297799","0.0-153.0","tmp7bwa5","3440","1440","","","","","","","","","","","null","+","Fixation - short","","null","","","","","","","","","","","","",""
"","html-keyboard-response","95","299007","0.0-154.0","tmp7bwa5","3440","1440","","","","","","","","","","","1207","dgv","Inducer trial","","j","0","","true","","","f","0","LEFT","","","","",""
"","call-function","96","299007","0.0-156.0-0.0","tmp7bwa5","","","","","","","","","","","","","","","","","","","","","","","","","","","","","",""
"","html-keyboard-response","97","299308","0.0-156.0-1.0","tmp7bwa5","3440","1440","","","","","","","","","","","null","Wrong","Feedback","","null","","","","","","","","","","","","",""
"","call-function","98","299309","0.0-156.0-2.0","tmp7bwa5","","","","","","","","","","","","","","","","","","","","","","","","","","","","","",""
"","html-keyboard-response","99","300810","0.0-157.0","tmp7bwa5","3440","1440","","","","","","","","","","","null","+","Fixation - long","","null","","","","","","","","","","","","",""
"","html-keyboard-response","100","308479","0.0-158.0","tmp7bwa5","3440","1440","","","","","","","","","","","7668","If cnl press LEFT | If imm press RIGHT","Inducer instructions",""," ","1","","","","","","","","","","","",""
"","html-keyboard-response","101","309230","0.0-159.0","tmp7bwa5","3440","1440","","","","","","","","","","","null","+","Fixation - short","","null","","","","","","","","","","","","",""
"","html-keyboard-response","102","310024","0.0-160.0","tmp7bwa5","3440","1440","","","","","","","","","","","793","imm","Diagnostic trial","","f","1","0","false","true","LEFT","f","1","","RIGHT","false","","",""
"","html-keyboard-response","103","310775","0.0-163.0","tmp7bwa5","3440","1440","","","","","","","","","","","null","+","Fixation - short","","null","","","","","","","","","","","","",""
"","html-keyboard-response","104","311514","0.0-164.0","tmp7bwa5","3440","1440","","","","","","","","","","","738","cnl","Diagnostic trial","","f","1","1","false","true","LEFT","f","1","","LEFT","true","","",""
"","html-keyboard-response","105","312265","0.0-167.0","tmp7bwa5","3440","1440","","","","","","","","","","","null","+","Fixation - short","","null","","","","","","","","","","","","",""
"","html-keyboard-response","106","313434","0.0-168.0","tmp7bwa5","3440","1440","","","","","","","","","","","1168","imm","Diagnostic trial","","f","1","2","false","true","LEFT","f","1","","RIGHT","false","","",""
"","html-keyboard-response","107","314185","0.0-171.0","tmp7bwa5","3440","1440","","","","","","","","","","","null","+","Fixation - short","","null","","","","","","","","","","","","",""
"","html-keyboard-response","108","315192","0.0-172.0","tmp7bwa5","3440","1440","","","","","","","","","","","1006","cnl","Diagnostic trial","","j","1","3","false","false","RIGHT","j","1","","LEFT","false","","",""
"","html-keyboard-response","109","315943","0.0-175.0","tmp7bwa5","3440","1440","","","","","","","","","","","null","+","Fixation - short","","null","","","","","","","","","","","","",""
"","html-keyboard-response","110","317145","0.0-176.0","tmp7bwa5","3440","1440","","","","","","","","","","","1200","imm","Diagnostic trial","","j","1","4","false","false","RIGHT","j","1","","RIGHT","true","","",""
"","html-keyboard-response","111","317896","0.0-179.0","tmp7bwa5","3440","1440","","","","","","","","","","","null","+","Fixation - short","","null","","","","","","","","","","","","",""
"","html-keyboard-response","112","318776","0.0-180.0","tmp7bwa5","3440","1440","","","","","","","","","","","880","cnl","Diagnostic trial","","f","1","5","false","true","LEFT","f","1","","LEFT","true","","",""
"","html-keyboard-response","113","319527","0.0-183.0","tmp7bwa5","3440","1440","","","","","","","","","","","null","+","Fixation - short","","null","","","","","","","","","","","","",""
"","html-keyboard-response","114","320312","0.0-184.0","tmp7bwa5","3440","1440","","","","","","","","","","","784","imm","Diagnostic trial","","f","1","6","false","true","LEFT","f","1","","RIGHT","false","","",""
"","html-keyboard-response","115","321063","0.0-187.0","tmp7bwa5","3440","1440","","","","","","","","","","","null","+","Fixation - short","","null","","","","","","","","","","","","",""
"","html-keyboard-response","116","322479","0.0-188.0","tmp7bwa5","3440","1440","","","","","","","","","","","1416","imm","Diagnostic trial","","f","1","7","false","true","LEFT","f","1","","RIGHT","false","","",""
"","html-keyboard-response","117","323230","0.0-191.0","tmp7bwa5","3440","1440","","","","","","","","","","","null","+","Fixation - short","","null","","","","","","","","","","","","",""
"","html-keyboard-response","118","324372","0.0-192.0","tmp7bwa5","3440","1440","","","","","","","","","","","1141","imm","Inducer trial","","j","1","","true","","","j","1","RIGHT","","","","",""
"","html-keyboard-response","119","325873","0.0-195.0","tmp7bwa5","3440","1440","","","","","","","","","","","null","+","Fixation - long","","null","","","","","","","","","","","","",""
"","html-keyboard-response","120","328770","0.0-196.0","tmp7bwa5","3440","1440","","","","","","","","","","","2896","If pxv press LEFT | If bsh press RIGHT","Inducer instructions",""," ","2","","","","","","","","","","","",""
"","html-keyboard-response","121","329521","0.0-197.0","tmp7bwa5","3440","1440","","","","","","","","","","","null","+","Fixation - short","","null","","","","","","","","","","","","",""
"","html-keyboard-response","122","330693","0.0-198.0","tmp7bwa5","3440","1440","","","","","","","","","","","1171","bsh","Diagnostic trial","","j","2","0","false","false","RIGHT","j","1","","RIGHT","true","","",""
"","html-keyboard-response","123","331444","0.0-201.0","tmp7bwa5","3440","1440","","","","","","","","","","","null","+","Fixation - short","","null","","","","","","","","","","","","",""
"","html-keyboard-response","124","332422","0.0-202.0","tmp7bwa5","3440","1440","","","","","","","","","","","978","bsh","Diagnostic trial","","f","2","1","false","true","LEFT","f","1","","RIGHT","false","","",""
"","html-keyboard-response","125","333173","0.0-205.0","tmp7bwa5","3440","1440","","","","","","","","","","","null","+","Fixation - short","","null","","","","","","","","","","","","",""
"","html-keyboard-response","126","333881","0.0-206.0","tmp7bwa5","3440","1440","","","","","","","","","","","707","pxv","Diagnostic trial","","f","2","2","false","true","LEFT","f","1","","LEFT","true","","",""
"","html-keyboard-response","127","334632","0.0-209.0","tmp7bwa5","3440","1440","","","","","","","","","","","null","+","Fixation - short","","null","","","","","","","","","","","","",""
"","html-keyboard-response","128","335107","0.0-210.0","tmp7bwa5","3440","1440","","","","","","","","","","","474","bsh","Diagnostic trial","","j","2","3","false","false","RIGHT","j","1","","RIGHT","true","","",""
"","html-keyboard-response","129","335858","0.0-213.0","tmp7bwa5","3440","1440","","","","","","","","","","","null","+","Fixation - short","","null","","","","","","","","","","","","",""
"","html-keyboard-response","130","336457","0.0-214.0","tmp7bwa5","3440","1440","","","","","","","","","","","597","bsh","Diagnostic trial","","f","2","4","false","true","LEFT","f","1","","RIGHT","false","","",""
"","html-keyboard-response","131","337207","0.0-217.0","tmp7bwa5","3440","1440","","","","","","","","","","","null","+","Fixation - short","","null","","","","","","","","","","","","",""
"","html-keyboard-response","132","338028","0.0-218.0","tmp7bwa5","3440","1440","","","","","","","","","","","819","bsh","Diagnostic trial","","j","2","5","false","false","RIGHT","j","1","","RIGHT","true","","",""
"","html-keyboard-response","133","338779","0.0-221.0","tmp7bwa5","3440","1440","","","","","","","","","","","null","+","Fixation - short","","null","","","","","","","","","","","","",""
"","html-keyboard-response","134","339878","0.0-222.0","tmp7bwa5","3440","1440","","","","","","","","","","","1098","pxv","Inducer trial","","f","2","","true","","","f","1","LEFT","","","","",""
"","html-keyboard-response","135","341379","0.0-225.0","tmp7bwa5","3440","1440","","","","","","","","","","","null","+","Fixation - long","","null","","","","","","","","","","","","",""
"","html-keyboard-response","136","343547","0.0-226.0","tmp7bwa5","3440","1440","","","","","","","","","","","2167","If jcr press LEFT | If swr press RIGHT","Inducer instructions",""," ","3","","","","","","","","","","","",""
"","html-keyboard-response","137","344298","0.0-227.0","tmp7bwa5","3440","1440","","","","","","","","","","","null","+","Fixation - short","","null","","","","","","","","","","","","",""
"","html-keyboard-response","138","345352","0.0-228.0","tmp7bwa5","3440","1440","","","","","","","","","","","1053","swr","Diagnostic trial","","j","3","0","false","false","RIGHT","j","1","","RIGHT","true","","",""
"","html-keyboard-response","139","346103","0.0-231.0","tmp7bwa5","3440","1440","","","","","","","","","","","null","+","Fixation - short","","null","","","","","","","","","","","","",""
"","html-keyboard-response","140","347711","0.0-232.0","tmp7bwa5","3440","1440","","","","","","","","","","","1607","jcr","Diagnostic trial","","f","3","1","false","true","LEFT","f","1","","LEFT","true","","",""
"","html-keyboard-response","141","348462","0.0-235.0","tmp7bwa5","3440","1440","","","","","","","","","","","null","+","Fixation - short","","null","","","","","","","","","","","","",""
"","html-keyboard-response","142","349513","0.0-236.0","tmp7bwa5","3440","1440","","","","","","","","","","","1050","swr","Diagnostic trial","","j","3","2","false","false","RIGHT","j","1","","RIGHT","true","","",""
"","html-keyboard-response","143","350264","0.0-239.0","tmp7bwa5","3440","1440","","","","","","","","","","","null","+","Fixation - short","","null","","","","","","","","","","","","",""
"","html-keyboard-response","144","350876","0.0-240.0","tmp7bwa5","3440","1440","","","","","","","","","","","611","swr","Diagnostic trial","","f","3","3","false","true","LEFT","f","1","","RIGHT","false","","",""
"","html-keyboard-response","145","351627","0.0-243.0","tmp7bwa5","3440","1440","","","","","","","","","","","null","+","Fixation - short","","null","","","","","","","","","","","","",""
"","html-keyboard-response","146","352858","0.0-244.0","tmp7bwa5","3440","1440","","","","","","","","","","","1230","jcr","Inducer trial","","f","3","","true","","","f","1","LEFT","","","","",""
"","html-keyboard-response","147","354359","0.0-247.0","tmp7bwa5","3440","1440","","","","","","","","","","","null","+","Fixation - long","","null","","","","","","","","","","","","",""
"","html-keyboard-response","148","356339","0.0-248.0","tmp7bwa5","3440","1440","","","","","","","","","","","1979","If fuc press LEFT | If bms press RIGHT","Inducer instructions",""," ","4","","","","","","","","","","","",""
"","html-keyboard-response","149","357090","0.0-249.0","tmp7bwa5","3440","1440","","","","","","","","","","","null","+","Fixation - short","","null","","","","","","","","","","","","",""
"","html-keyboard-response","150","358066","0.0-250.0","tmp7bwa5","3440","1440","","","","","","","","","","","975","bms","Diagnostic trial","","j","4","0","false","false","RIGHT","j","1","","RIGHT","true","","",""
"","html-keyboard-response","151","358816","0.0-253.0","tmp7bwa5","3440","1440","","","","","","","","","","","null","+","Fixation - short","","null","","","","","","","","","","","","",""
"","html-keyboard-response","152","360452","0.0-254.0","tmp7bwa5","3440","1440","","","","","","","","","","","1634","bms","Diagnostic trial","","j","4","1","false","false","RIGHT","j","1","","RIGHT","true","","",""
"","html-keyboard-response","153","361203","0.0-257.0","tmp7bwa5","3440","1440","","","","","","","","","","","null","+","Fixation - short","","null","","","","","","","","","","","","",""
"","html-keyboard-response","154","362262","0.0-258.0","tmp7bwa5","3440","1440","","","","","","","","","","","1058","bms","Diagnostic trial","","f","4","2","false","true","LEFT","f","1","","RIGHT","false","","",""
"","html-keyboard-response","155","363013","0.0-261.0","tmp7bwa5","3440","1440","","","","","","","","","","","null","+","Fixation - short","","null","","","","","","","","","","","","",""
"","html-keyboard-response","156","364175","0.0-262.0","tmp7bwa5","3440","1440","","","","","","","","","","","1161","fuc","Diagnostic trial","","j","4","3","false","false","RIGHT","j","1","","LEFT","false","","",""
"","html-keyboard-response","157","364926","0.0-265.0","tmp7bwa5","3440","1440","","","","","","","","","","","null","+","Fixation - short","","null","","","","","","","","","","","","",""
"","html-keyboard-response","158","365869","0.0-266.0","tmp7bwa5","3440","1440","","","","","","","","","","","942","bms","Diagnostic trial","","f","4","4","false","true","LEFT","f","1","","RIGHT","false","","",""
"","html-keyboard-response","159","366620","0.0-269.0","tmp7bwa5","3440","1440","","","","","","","","","","","null","+","Fixation - short","","null","","","","","","","","","","","","",""
"","html-keyboard-response","160","367731","0.0-270.0","tmp7bwa5","3440","1440","","","","","","","","","","","1110","fuc","Diagnostic trial","","f","4","5","false","true","LEFT","f","1","","LEFT","true","","",""
"","html-keyboard-response","161","368482","0.0-273.0","tmp7bwa5","3440","1440","","","","","","","","","","","null","+","Fixation - short","","null","","","","","","","","","","","","",""
"","html-keyboard-response","162","370206","0.0-274.0","tmp7bwa5","3440","1440","","","","","","","","","","","1724","bms","Diagnostic trial","","f","4","6","false","true","LEFT","f","1","","RIGHT","false","","",""
"","html-keyboard-response","163","370957","0.0-277.0","tmp7bwa5","3440","1440","","","","","","","","","","","null","+","Fixation - short","","null","","","","","","","","","","","","",""
"","html-keyboard-response","164","372147","0.0-278.0","tmp7bwa5","3440","1440","","","","","","","","","","","1189","bms","Inducer trial","","j","4","","true","","","j","1","RIGHT","","","","",""
"","html-keyboard-response","165","373648","0.0-281.0","tmp7bwa5","3440","1440","","","","","","","","","","","null","+","Fixation - long","","null","","","","","","","","","","","","",""
"","html-keyboard-response","166","375316","0.0-282.0","tmp7bwa5","3440","1440","","","","","","","","","","","1666","If vrm press LEFT | If dof press RIGHT","Inducer instructions",""," ","5","","","","","","","","","","","",""
"","html-keyboard-response","167","376067","0.0-283.0","tmp7bwa5","3440","1440","","","","","","","","","","","null","+","Fixation - short","","null","","","","","","","","","","","","",""
"","html-keyboard-response","168","376721","0.0-284.0","tmp7bwa5","3440","1440","","","","","","","","","","","653","vrm","Diagnostic trial","","f","5","0","false","true","LEFT","f","1","","LEFT","true","","",""
"","html-keyboard-response","169","377472","0.0-287.0","tmp7bwa5","3440","1440","","","","","","","","","","","null","+","Fixation - short","","null","","","","","","","","","","","","",""
"","html-keyboard-response","170","378205","0.0-288.0","tmp7bwa5","3440","1440","","","","","","","","","","","732","dof","Diagnostic trial","","f","5","1","false","true","LEFT","f","1","","RIGHT","false","","",""
"","html-keyboard-response","171","378956","0.0-291.0","tmp7bwa5","3440","1440","","","","","","","","","","","null","+","Fixation - short","","null","","","","","","","","","","","","",""
"","html-keyboard-response","172","379561","0.0-292.0","tmp7bwa5","3440","1440","","","","","","","","","","","604","vrm","Diagnostic trial","","j","5","2","false","false","RIGHT","j","1","","LEFT","false","","",""
"","html-keyboard-response","173","380312","0.0-295.0","tmp7bwa5","3440","1440","","","","","","","","","","","null","+","Fixation - short","","null","","","","","","","","","","","","",""
"","html-keyboard-response","174","381606","0.0-296.0","tmp7bwa5","3440","1440","","","","","","","","","","","1293","dof","Diagnostic trial","","j","5","3","false","false","RIGHT","j","1","","RIGHT","true","","",""
"","html-keyboard-response","175","382357","0.0-299.0","tmp7bwa5","3440","1440","","","","","","","","","","","null","+","Fixation - short","","null","","","","","","","","","","","","",""
"","html-keyboard-response","176","383112","0.0-300.0","tmp7bwa5","3440","1440","","","","","","","","","","","754","vrm","Diagnostic trial","","f","5","4","false","true","LEFT","f","1","","LEFT","true","","",""
"","html-keyboard-response","177","383863","0.0-303.0","tmp7bwa5","3440","1440","","","","","","","","","","","null","+","Fixation - short","","null","","","","","","","","","","","","",""
"","html-keyboard-response","178","384270","0.0-304.0","tmp7bwa5","3440","1440","","","","","","","","","","","406","dof","Diagnostic trial","","j","5","5","false","false","RIGHT","j","1","","RIGHT","true","","",""
"","html-keyboard-response","179","385021","0.0-307.0","tmp7bwa5","3440","1440","","","","","","","","","","","null","+","Fixation - short","","null","","","","","","","","","","","","",""
"","html-keyboard-response","180","385560","0.0-308.0","tmp7bwa5","3440","1440","","","","","","","","","","","538","vrm","Diagnostic trial","","f","5","6","false","false","RIGHT","j","0","","LEFT","false","","",""
"","call-function","181","385561","0.0-310.0-0.0","tmp7bwa5","","","","","","","","","","","","","","","","","","","","","","","","","","","","","",""
"","html-keyboard-response","182","385861","0.0-310.0-1.0","tmp7bwa5","3440","1440","","","","","","","","","","","null","Wrong","Feedback","","null","","","","","","","","","","","","",""
"","call-function","183","385862","0.0-310.0-2.0","tmp7bwa5","","","","","","","","","","","","","","","","","","","","","","","","","","","","","",""
"","html-keyboard-response","184","386613","0.0-311.0","tmp7bwa5","3440","1440","","","","","","","","","","","null","+","Fixation - short","","null","","","","","","","","","","","","",""
"","html-keyboard-response","185","387072","0.0-312.0","tmp7bwa5","3440","1440","","","","","","","","","","","458","vrm","Diagnostic trial","","f","5","7","false","true","LEFT","f","1","","LEFT","true","","",""
"","html-keyboard-response","186","387823","0.0-315.0","tmp7bwa5","3440","1440","","","","","","","","","","","null","+","Fixation - short","","null","","","","","","","","","","","","",""
"","html-keyboard-response","187","388673","0.0-316.0","tmp7bwa5","3440","1440","","","","","","","","","","","849","dof","Diagnostic trial","","f","5","8","false","true","LEFT","f","1","","RIGHT","false","","",""
"","html-keyboard-response","188","389424","0.0-319.0","tmp7bwa5","3440","1440","","","","","","","","","","","null","+","Fixation - short","","null","","","","","","","","","","","","",""
"","html-keyboard-response","189","390092","0.0-320.0","tmp7bwa5","3440","1440","","","","","","","","","","","668","vrm","Diagnostic trial","","f","5","9","false","true","LEFT","f","1","","LEFT","true","","",""
"","html-keyboard-response","190","390843","0.0-323.0","tmp7bwa5","3440","1440","","","","","","","","","","","null","+","Fixation - short","","null","","","","","","","","","","","","",""
"","html-keyboard-response","191","391602","0.0-324.0","tmp7bwa5","3440","1440","","","","","","","","","","","758","dof","Diagnostic trial","","j","5","10","false","false","RIGHT","j","1","","RIGHT","true","","",""
"","html-keyboard-response","192","392353","0.0-327.0","tmp7bwa5","3440","1440","","","","","","","","","","","null","+","Fixation - short","","null","","","","","","","","","","","","",""
"","html-keyboard-response","193","393102","0.0-328.0","tmp7bwa5","3440","1440","","","","","","","","","","","747","dof","Diagnostic trial","","f","5","11","false","true","LEFT","f","1","","RIGHT","false","","",""
"","html-keyboard-response","194","393852","0.0-331.0","tmp7bwa5","3440","1440","","","","","","","","","","","null","+","Fixation - short","","null","","","","","","","","","","","","",""
"","html-keyboard-response","195","394733","0.0-332.0","tmp7bwa5","3440","1440","","","","","","","","","","","879","vrm","Diagnostic trial","","j","5","12","false","false","RIGHT","j","1","","LEFT","false","","",""
"","html-keyboard-response","196","395483","0.0-335.0","tmp7bwa5","3440","1440","","","","","","","","","","","null","+","Fixation - short","","null","","","","","","","","","","","","",""
"","html-keyboard-response","197","396152","0.0-336.0","tmp7bwa5","3440","1440","","","","","","","","","","","667","vrm","Diagnostic trial","","j","5","13","false","false","RIGHT","j","1","","LEFT","false","","",""
"","html-keyboard-response","198","396902","0.0-339.0","tmp7bwa5","3440","1440","","","","","","","","","","","null","+","Fixation - short","","null","","","","","","","","","","","","",""
"","html-keyboard-response","199","397436","0.0-340.0","tmp7bwa5","3440","1440","","","","","","","","","","","532","vrm","Diagnostic trial","","f","5","14","false","true","LEFT","f","1","","LEFT","true","","",""
"","html-keyboard-response","200","398186","0.0-343.0","tmp7bwa5","3440","1440","","","","","","","","","","","null","+","Fixation - short","","null","","","","","","","","","","","","",""
"","html-keyboard-response","201","398815","0.0-344.0","tmp7bwa5","3440","1440","","","","","","","","","","","628","vrm","Diagnostic trial","","f","5","15","false","true","LEFT","f","1","","LEFT","true","","",""
"","html-keyboard-response","202","399566","0.0-347.0","tmp7bwa5","3440","1440","","","","","","","","","","","null","+","Fixation - short","","null","","","","","","","","","","","","",""
"","html-keyboard-response","203","400711","0.0-348.0","tmp7bwa5","3440","1440","","","","","","","","","","","1144","vrm","Inducer trial","","f","5","","true","","","f","1","LEFT","","","","",""
"","html-keyboard-response","204","402212","0.0-351.0","tmp7bwa5","3440","1440","","","","","","","","","","","null","+","Fixation - long","","null","","","","","","","","","","","","",""
"","html-keyboard-response","205","404829","0.0-352.0","tmp7bwa5","3440","1440","","","","","","","","","","","2616","If ivr press LEFT | If yna press RIGHT","Inducer instructions",""," ","6","","","","","","","","","","","",""
"","html-keyboard-response","206","405580","0.0-353.0","tmp7bwa5","3440","1440","","","","","","","","","","","null","+","Fixation - short","","null","","","","","","","","","","","","",""
"","html-keyboard-response","207","406502","0.0-354.0","tmp7bwa5","3440","1440","","","","","","","","","","","921","ivr","Diagnostic trial","","j","6","0","false","false","RIGHT","j","1","","LEFT","false","","",""
"","html-keyboard-response","208","407253","0.0-357.0","tmp7bwa5","3440","1440","","","","","","","","","","","null","+","Fixation - short","","null","","","","","","","","","","","","",""
"","html-keyboard-response","209","408019","0.0-358.0","tmp7bwa5","3440","1440","","","","","","","","","","","765","ivr","Diagnostic trial","","j","6","1","false","false","RIGHT","j","1","","LEFT","false","","",""
"","html-keyboard-response","210","408770","0.0-361.0","tmp7bwa5","3440","1440","","","","","","","","","","","null","+","Fixation - short","","null","","","","","","","","","","","","",""
"","html-keyboard-response","211","409626","0.0-362.0","tmp7bwa5","3440","1440","","","","","","","","","","","855","yna","Diagnostic trial","","j","6","2","false","false","RIGHT","j","1","","RIGHT","true","","",""
"","html-keyboard-response","212","410377","0.0-365.0","tmp7bwa5","3440","1440","","","","","","","","","","","null","+","Fixation - short","","null","","","","","","","","","","","","",""
"","html-keyboard-response","213","411568","0.0-366.0","tmp7bwa5","3440","1440","","","","","","","","","","","1191","yna","Diagnostic trial","","j","6","3","false","false","RIGHT","j","1","","RIGHT","true","","",""
"","html-keyboard-response","214","412319","0.0-369.0","tmp7bwa5","3440","1440","","","","","","","","","","","null","+","Fixation - short","","null","","","","","","","","","","","","",""
"","html-keyboard-response","215","413102","0.0-370.0","tmp7bwa5","3440","1440","","","","","","","","","","","782","ivr","Diagnostic trial","","f","6","4","false","true","LEFT","f","1","","LEFT","true","","",""
"","html-keyboard-response","216","413853","0.0-373.0","tmp7bwa5","3440","1440","","","","","","","","","","","null","+","Fixation - short","","null","","","","","","","","","","","","",""
"","html-keyboard-response","217","414388","0.0-374.0","tmp7bwa5","3440","1440","","","","","","","","","","","534","ivr","Diagnostic trial","","f","6","5","false","true","LEFT","f","1","","LEFT","true","","",""
"","html-keyboard-response","218","415139","0.0-377.0","tmp7bwa5","3440","1440","","","","","","","","","","","null","+","Fixation - short","","null","","","","","","","","","","","","",""
"","html-keyboard-response","219","415619","0.0-378.0","tmp7bwa5","3440","1440","","","","","","","","","","","478","ivr","Diagnostic trial","","j","6","6","false","false","RIGHT","j","1","","LEFT","false","","",""
"","html-keyboard-response","220","416370","0.0-381.0","tmp7bwa5","3440","1440","","","","","","","","","","","null","+","Fixation - short","","null","","","","","","","","","","","","",""
"","html-keyboard-response","221","417248","0.0-382.0","tmp7bwa5","3440","1440","","","","","","","","","","","877","ivr","Diagnostic trial","","j","6","7","false","false","RIGHT","j","1","","LEFT","false","","",""
"","html-keyboard-response","222","417999","0.0-385.0","tmp7bwa5","3440","1440","","","","","","","","","","","null","+","Fixation - short","","null","","","","","","","","","","","","",""
"","html-keyboard-response","223","418478","0.0-386.0","tmp7bwa5","3440","1440","","","","","","","","","","","478","ivr","Diagnostic trial","","j","6","8","false","false","RIGHT","j","1","","LEFT","false","","",""
"","html-keyboard-response","224","419229","0.0-389.0","tmp7bwa5","3440","1440","","","","","","","","","","","null","+","Fixation - short","","null","","","","","","","","","","","","",""
"","html-keyboard-response","225","420087","0.0-390.0","tmp7bwa5","3440","1440","","","","","","","","","","","858","ivr","Diagnostic trial","","j","6","9","false","false","RIGHT","j","1","","LEFT","false","","",""
"","html-keyboard-response","226","420838","0.0-393.0","tmp7bwa5","3440","1440","","","","","","","","","","","null","+","Fixation - short","","null","","","","","","","","","","","","",""
"","html-keyboard-response","227","421570","0.0-394.0","tmp7bwa5","3440","1440","","","","","","","","","","","731","ivr","Inducer trial","","f","6","","true","","","f","1","LEFT","","","","",""
"","html-keyboard-response","228","423071","0.0-397.0","tmp7bwa5","3440","1440","","","","","","","","","","","null","+","Fixation - long","","null","","","","","","","","","","","","",""
"","html-keyboard-response","229","424564","0.0-398.0","tmp7bwa5","3440","1440","","","","","","","","","","","1492","If gdn press LEFT | If jil press RIGHT","Inducer instructions",""," ","7","","","","","","","","","","","",""
"","html-keyboard-response","230","425315","0.0-399.0","tmp7bwa5","3440","1440","","","","","","","","","","","null","+","Fixation - short","","null","","","","","","","","","","","","",""
"","html-keyboard-response","231","425941","0.0-400.0","tmp7bwa5","3440","1440","","","","","","","","","","","625","gdn","Diagnostic trial","","j","7","0","false","false","RIGHT","j","1","","LEFT","false","","",""
"","html-keyboard-response","232","426692","0.0-403.0","tmp7bwa5","3440","1440","","","","","","","","","","","null","+","Fixation - short","","null","","","","","","","","","","","","",""
"","html-keyboard-response","233","427167","0.0-404.0","tmp7bwa5","3440","1440","","","","","","","","","","","474","gdn","Diagnostic trial","","f","7","1","false","true","LEFT","f","1","","LEFT","true","","",""
"","html-keyboard-response","234","427918","0.0-407.0","tmp7bwa5","3440","1440","","","","","","","","","","","null","+","Fixation - short","","null","","","","","","","","","","","","",""
"","html-keyboard-response","235","428500","0.0-408.0","tmp7bwa5","3440","1440","","","","","","","","","","","581","gdn","Diagnostic trial","","j","7","2","false","false","RIGHT","j","1","","LEFT","false","","",""
"","html-keyboard-response","236","429251","0.0-411.0","tmp7bwa5","3440","1440","","","","","","","","","","","null","+","Fixation - short","","null","","","","","","","","","","","","",""
"","html-keyboard-response","237","430103","0.0-412.0","tmp7bwa5","3440","1440","","","","","","","","","","","851","gdn","Diagnostic trial","","j","7","3","false","false","RIGHT","j","1","","LEFT","false","","",""
"","html-keyboard-response","238","430854","0.0-415.0","tmp7bwa5","3440","1440","","","","","","","","","","","null","+","Fixation - short","","null","","","","","","","","","","","","",""
"","html-keyboard-response","239","431528","0.0-416.0","tmp7bwa5","3440","1440","","","","","","","","","","","674","jil","Diagnostic trial","","f","7","4","false","false","RIGHT","j","0","","RIGHT","true","","",""
"","call-function","240","431529","0.0-418.0-0.0","tmp7bwa5","","","","","","","","","","","","","","","","","","","","","","","","","","","","","",""
"","html-keyboard-response","241","431830","0.0-418.0-1.0","tmp7bwa5","3440","1440","","","","","","","","","","","null","Wrong","Feedback","","null","","","","","","","","","","","","",""
"","call-function","242","431830","0.0-418.0-2.0","tmp7bwa5","","","","","","","","","","","","","","","","","","","","","","","","","","","","","",""
"","html-keyboard-response","243","432581","0.0-419.0","tmp7bwa5","3440","1440","","","","","","","","","","","null","+","Fixation - short","","null","","","","","","","","","","","","",""
"","html-keyboard-response","244","433431","0.0-420.0","tmp7bwa5","3440","1440","","","","","","","","","","","849","gdn","Diagnostic trial","","j","7","5","false","false","RIGHT","j","1","","LEFT","false","","",""
"","html-keyboard-response","245","434181","0.0-423.0","tmp7bwa5","3440","1440","","","","","","","","","","","null","+","Fixation - short","","null","","","","","","","","","","","","",""
"","html-keyboard-response","246","434677","0.0-424.0","tmp7bwa5","3440","1440","","","","","","","","","","","494","jil","Diagnostic trial","","j","7","6","false","false","RIGHT","j","1","","RIGHT","true","","",""
"","html-keyboard-response","247","435428","0.0-427.0","tmp7bwa5","3440","1440","","","","","","","","","","","null","+","Fixation - short","","null","","","","","","","","","","","","",""
"","html-keyboard-response","248","436240","0.0-428.0","tmp7bwa5","3440","1440","","","","","","","","","","","811","jil","Inducer trial","","j","7","","true","","","j","1","RIGHT","","","","",""
"","html-keyboard-response","249","437741","0.0-431.0","tmp7bwa5","3440","1440","","","","","","","","","","","null","+","Fixation - long","","null","","","","","","","","","","","","",""
"","html-keyboard-response","250","439889","0.0-432.0","tmp7bwa5","3440","1440","","","","","","","","","","","2147","If eeu press LEFT | If anz press RIGHT","Inducer instructions",""," ","8","","","","","","","","","","","",""
"","html-keyboard-response","251","440640","0.0-433.0","tmp7bwa5","3440","1440","","","","","","","","","","","null","+","Fixation - short","","null","","","","","","","","","","","","",""
"","html-keyboard-response","252","441168","0.0-434.0","tmp7bwa5","3440","1440","","","","","","","","","","","527","eeu","Diagnostic trial","","j","8","0","false","false","RIGHT","j","1","","LEFT","false","","",""
"","html-keyboard-response","253","441919","0.0-437.0","tmp7bwa5","3440","1440","","","","","","","","","","","null","+","Fixation - short","","null","","","","","","","","","","","","",""
"","html-keyboard-response","254","442482","0.0-438.0","tmp7bwa5","3440","1440","","","","","","","","","","","563","eeu","Diagnostic trial","","f","8","1","false","true","LEFT","f","1","","LEFT","true","","",""
"","html-keyboard-response","255","443233","0.0-441.0","tmp7bwa5","3440","1440","","","","","","","","","","","null","+","Fixation - short","","null","","","","","","","","","","","","",""
"","html-keyboard-response","256","443848","0.0-442.0","tmp7bwa5","3440","1440","","","","","","","","","","","614","eeu","Diagnostic trial","","f","8","2","false","true","LEFT","f","1","","LEFT","true","","",""
"","html-keyboard-response","257","444599","0.0-445.0","tmp7bwa5","3440","1440","","","","","","","","","","","null","+","Fixation - short","","null","","","","","","","","","","","","",""
"","html-keyboard-response","258","446094","0.0-446.0","tmp7bwa5","3440","1440","","","","","","","","","","","1494","anz","Diagnostic trial","","j","8","3","false","false","RIGHT","j","1","","RIGHT","true","","",""
"","html-keyboard-response","259","446845","0.0-449.0","tmp7bwa5","3440","1440","","","","","","","","","","","null","+","Fixation - short","","null","","","","","","","","","","","","",""
"","html-keyboard-response","260","447629","0.0-450.0","tmp7bwa5","3440","1440","","","","","","","","","","","783","eeu","Diagnostic trial","","f","8","4","false","true","LEFT","f","1","","LEFT","true","","",""
"","html-keyboard-response","261","448380","0.0-453.0","tmp7bwa5","3440","1440","","","","","","","","","","","null","+","Fixation - short","","null","","","","","","","","","","","","",""
"","html-keyboard-response","262","448976","0.0-454.0","tmp7bwa5","3440","1440","","","","","","","","","","","595","anz","Diagnostic trial","","j","8","5","false","false","RIGHT","j","1","","RIGHT","true","","",""
"","html-keyboard-response","263","449727","0.0-457.0","tmp7bwa5","3440","1440","","","","","","","","","","","null","+","Fixation - short","","null","","","","","","","","","","","","",""
"","html-keyboard-response","264","451566","0.0-458.0","tmp7bwa5","3440","1440","","","","","","","","","","","1838","eeu","Diagnostic trial","","f","8","6","false","true","LEFT","f","1","","LEFT","true","","",""
"","html-keyboard-response","265","452317","0.0-461.0","tmp7bwa5","3440","1440","","","","","","","","","","","null","+","Fixation - short","","null","","","","","","","","","","","","",""
"","html-keyboard-response","266","453166","0.0-462.0","tmp7bwa5","3440","1440","","","","","","","","","","","848","eeu","Diagnostic trial","","f","8","7","false","true","LEFT","f","1","","LEFT","true","","",""
"","html-keyboard-response","267","453917","0.0-465.0","tmp7bwa5","3440","1440","","","","","","","","","","","null","+","Fixation - short","","null","","","","","","","","","","","","",""
"","html-keyboard-response","268","454891","0.0-466.0","tmp7bwa5","3440","1440","","","","","","","","","","","973","eeu","Diagnostic trial","","f","8","8","false","true","LEFT","f","1","","LEFT","true","","",""
"","html-keyboard-response","269","455642","0.0-469.0","tmp7bwa5","3440","1440","","","","","","","","","","","null","+","Fixation - short","","null","","","","","","","","","","","","",""
"","html-keyboard-response","270","456835","0.0-470.0","tmp7bwa5","3440","1440","","","","","","","","","","","1192","anz","Diagnostic trial","","j","8","9","false","false","RIGHT","j","1","","RIGHT","true","","",""
"","html-keyboard-response","271","457586","0.0-473.0","tmp7bwa5","3440","1440","","","","","","","","","","","null","+","Fixation - short","","null","","","","","","","","","","","","",""
"","html-keyboard-response","272","458509","0.0-474.0","tmp7bwa5","3440","1440","","","","","","","","","","","922","eeu","Inducer trial","","f","8","","true","","","f","1","LEFT","","","","",""
"","html-keyboard-response","273","460010","0.0-477.0","tmp7bwa5","3440","1440","","","","","","","","","","","null","+","Fixation - long","","null","","","","","","","","","","","","",""
"","html-keyboard-response","274","463726","0.0-478.0","tmp7bwa5","3440","1440","","","","","","","","","","","3715","If tkb press LEFT | If drk press RIGHT","Inducer instructions",""," ","9","","","","","","","","","","","",""
"","html-keyboard-response","275","464477","0.0-479.0","tmp7bwa5","3440","1440","","","","","","","","","","","null","+","Fixation - short","","null","","","","","","","","","","","","",""
"","html-keyboard-response","276","465589","0.0-480.0","tmp7bwa5","3440","1440","","","","","","","","","","","1111","drk","Diagnostic trial","","j","9","0","false","false","RIGHT","j","1","","RIGHT","true","","",""
"","html-keyboard-response","277","466340","0.0-483.0","tmp7bwa5","3440","1440","","","","","","","","","","","null","+","Fixation - short","","null","","","","","","","","","","","","",""
"","html-keyboard-response","278","467017","0.0-484.0","tmp7bwa5","3440","1440","","","","","","","","","","","675","drk","Diagnostic trial","","f","9","1","false","true","LEFT","f","1","","RIGHT","false","","",""
"","html-keyboard-response","279","467767","0.0-487.0","tmp7bwa5","3440","1440","","","","","","","","","","","null","+","Fixation - short","","null","","","","","","","","","","","","",""
"","html-keyboard-response","280","468621","0.0-488.0","tmp7bwa5","3440","1440","","","","","","","","","","","853","tkb","Diagnostic trial","","j","9","2","false","false","RIGHT","j","1","","LEFT","false","","",""
"","html-keyboard-response","281","469372","0.0-491.0","tmp7bwa5","3440","1440","","","","","","","","","","","null","+","Fixation - short","","null","","","","","","","","","","","","",""
"","html-keyboard-response","282","470386","0.0-492.0","tmp7bwa5","3440","1440","","","","","","","","","","","1012","drk","Diagnostic trial","","j","9","3","false","false","RIGHT","j","1","","RIGHT","true","","",""
"","html-keyboard-response","283","471137","0.0-495.0","tmp7bwa5","3440","1440","","","","","","","","","","","null","+","Fixation - short","","null","","","","","","","","","","","","",""
"","html-keyboard-response","284","471914","0.0-496.0","tmp7bwa5","3440","1440","","","","","","","","","","","776","drk","Diagnostic trial","","j","9","4","false","false","RIGHT","j","1","","RIGHT","true","","",""
"","html-keyboard-response","285","472665","0.0-499.0","tmp7bwa5","3440","1440","","","","","","","","","","","null","+","Fixation - short","","null","","","","","","","","","","","","",""
"","html-keyboard-response","286","473299","0.0-500.0","tmp7bwa5","3440","1440","","","","","","","","","","","633","tkb","Diagnostic trial","","j","9","5","false","false","RIGHT","j","1","","LEFT","false","","",""
"","html-keyboard-response","287","474050","0.0-503.0","tmp7bwa5","3440","1440","","","","","","","","","","","null","+","Fixation - short","","null","","","","","","","","","","","","",""
"","html-keyboard-response","288","474659","0.0-504.0","tmp7bwa5","3440","1440","","","","","","","","","","","609","tkb","Diagnostic trial","","f","9","6","false","true","LEFT","f","1","","LEFT","true","","",""
"","html-keyboard-response","289","475410","0.0-507.0","tmp7bwa5","3440","1440","","","","","","","","","","","null","+","Fixation - short","","null","","","","","","","","","","","","",""
"","html-keyboard-response","290","475991","0.0-508.0","tmp7bwa5","3440","1440","","","","","","","","","","","580","drk","Diagnostic trial","","f","9","7","false","true","LEFT","f","1","","RIGHT","false","","",""
"","html-keyboard-response","291","476742","0.0-511.0","tmp7bwa5","3440","1440","","","","","","","","","","","null","+","Fixation - short","","null","","","","","","","","","","","","",""
"","html-keyboard-response","292","477323","0.0-512.0","tmp7bwa5","3440","1440","","","","","","","","","","","580","tkb","Diagnostic trial","","f","9","8","false","true","LEFT","f","1","","LEFT","true","","",""
"","html-keyboard-response","293","478074","0.0-515.0","tmp7bwa5","3440","1440","","","","","","","","","","","null","+","Fixation - short","","null","","","","","","","","","","","","",""
"","html-keyboard-response","294","478628","0.0-516.0","tmp7bwa5","3440","1440","","","","","","","","","","","553","tkb","Diagnostic trial","","j","9","9","false","false","RIGHT","j","1","","LEFT","false","","",""
"","html-keyboard-response","295","479379","0.0-519.0","tmp7bwa5","3440","1440","","","","","","","","","","","null","+","Fixation - short","","null","","","","","","","","","","","","",""
"","html-keyboard-response","296","480204","0.0-520.0","tmp7bwa5","3440","1440","","","","","","","","","","","824","tkb","Diagnostic trial","","j","9","10","false","false","RIGHT","j","1","","LEFT","false","","",""
"","html-keyboard-response","297","480955","0.0-523.0","tmp7bwa5","3440","1440","","","","","","","","","","","null","+","Fixation - short","","null","","","","","","","","","","","","",""
"","html-keyboard-response","298","481413","0.0-524.0","tmp7bwa5","3440","1440","","","","","","","","","","","457","tkb","Diagnostic trial","","j","9","11","false","false","RIGHT","j","1","","LEFT","false","","",""
"","html-keyboard-response","299","482164","0.0-527.0","tmp7bwa5","3440","1440","","","","","","","","","","","null","+","Fixation - short","","null","","","","","","","","","","","","",""
"","html-keyboard-response","300","482913","0.0-528.0","tmp7bwa5","3440","1440","","","","","","","","","","","749","tkb","Diagnostic trial","","f","9","12","false","true","LEFT","f","1","","LEFT","true","","",""
"","html-keyboard-response","301","483664","0.0-531.0","tmp7bwa5","3440","1440","","","","","","","","","","","null","+","Fixation - short","","null","","","","","","","","","","","","",""
"","html-keyboard-response","302","484355","0.0-532.0","tmp7bwa5","3440","1440","","","","","","","","","","","690","tkb","Diagnostic trial","","f","9","13","false","true","LEFT","f","1","","LEFT","true","","",""
"","html-keyboard-response","303","485106","0.0-535.0","tmp7bwa5","3440","1440","","","","","","","","","","","null","+","Fixation - short","","null","","","","","","","","","","","","",""
"","html-keyboard-response","304","485662","0.0-536.0","tmp7bwa5","3440","1440","","","","","","","","","","","555","drk","Diagnostic trial","","f","9","14","false","true","LEFT","f","1","","RIGHT","false","","",""
"","html-keyboard-response","305","486413","0.0-539.0","tmp7bwa5","3440","1440","","","","","","","","","","","null","+","Fixation - short","","null","","","","","","","","","","","","",""
"","html-keyboard-response","306","487188","0.0-540.0","tmp7bwa5","3440","1440","","","","","","","","","","","774","tkb","Diagnostic trial","","f","9","15","false","true","LEFT","f","1","","LEFT","true","","",""
"","html-keyboard-response","307","487939","0.0-543.0","tmp7bwa5","3440","1440","","","","","","","","","","","null","+","Fixation - short","","null","","","","","","","","","","","","",""
"","html-keyboard-response","308","488498","0.0-544.0","tmp7bwa5","3440","1440","","","","","","","","","","","558","drk","Inducer trial","","j","9","","true","","","j","1","RIGHT","","","","",""
"","html-keyboard-response","309","489999","0.0-547.0","tmp7bwa5","3440","1440","","","","","","","","","","","null","+","Fixation - long","","null","","","","","","","","","","","","",""
"","html-keyboard-response","310","491204","0.0-548.0","tmp7bwa5","3440","1440","","","","","","","","","","","1204","If hlb press LEFT | If dul press RIGHT","Inducer instructions",""," ","10","","","","","","","","","","","",""
"","html-keyboard-response","311","491955","0.0-549.0","tmp7bwa5","3440","1440","","","","","","","","","","","null","+","Fixation - short","","null","","","","","","","","","","","","",""
"","html-keyboard-response","312","492741","0.0-550.0","tmp7bwa5","3440","1440","","","","","","","","","","","785","dul","Diagnostic trial","","j","10","0","false","false","RIGHT","j","1","","RIGHT","true","","",""
"","html-keyboard-response","313","493492","0.0-553.0","tmp7bwa5","3440","1440","","","","","","","","","","","null","+","Fixation - short","","null","","","","","","","","","","","","",""
"","html-keyboard-response","314","494306","0.0-554.0","tmp7bwa5","3440","1440","","","","","","","","","","","814","dul","Diagnostic trial","","j","10","1","false","false","RIGHT","j","1","","RIGHT","true","","",""
"","html-keyboard-response","315","495057","0.0-557.0","tmp7bwa5","3440","1440","","","","","","","","","","","null","+","Fixation - short","","null","","","","","","","","","","","","",""
"","html-keyboard-response","316","495594","0.0-558.0","tmp7bwa5","3440","1440","","","","","","","","","","","536","dul","Diagnostic trial","","f","10","2","false","true","LEFT","f","1","","RIGHT","false","","",""
"","html-keyboard-response","317","496345","0.0-561.0","tmp7bwa5","3440","1440","","","","","","","","","","","null","+","Fixation - short","","null","","","","","","","","","","","","",""
"","html-keyboard-response","318","497019","0.0-562.0","tmp7bwa5","3440","1440","","","","","","","","","","","673","hlb","Diagnostic trial","","f","10","3","false","true","LEFT","f","1","","LEFT","true","","",""
"","html-keyboard-response","319","497770","0.0-565.0","tmp7bwa5","3440","1440","","","","","","","","","","","null","+","Fixation - short","","null","","","","","","","","","","","","",""
"","html-keyboard-response","320","498582","0.0-566.0","tmp7bwa5","3440","1440","","","","","","","","","","","812","dul","Diagnostic trial","","f","10","4","false","true","LEFT","f","1","","RIGHT","false","","",""
"","html-keyboard-response","321","499333","0.0-569.0","tmp7bwa5","3440","1440","","","","","","","","","","","null","+","Fixation - short","","null","","","","","","","","","","","","",""
"","html-keyboard-response","322","500217","0.0-570.0","tmp7bwa5","3440","1440","","","","","","","","","","","883","hlb","Inducer trial","","f","10","","true","","","f","1","LEFT","","","","",""
"","html-keyboard-response","323","501718","0.0-573.0","tmp7bwa5","3440","1440","","","","","","","","","","","null","+","Fixation - long","","null","","","","","","","","","","","","",""
"","html-keyboard-response","324","503288","0.0-574.0","tmp7bwa5","3440","1440","","","","","","","","","","","1569","If lff press LEFT | If glp press RIGHT","Inducer instructions",""," ","11","","","","","","","","","","","",""
"","html-keyboard-response","325","504039","0.0-575.0","tmp7bwa5","3440","1440","","","","","","","","","","","null","+","Fixation - short","","null","","","","","","","","","","","","",""
"","html-keyboard-response","326","505099","0.0-576.0","tmp7bwa5","3440","1440","","","","","","","","","","","1059","lff","Diagnostic trial","","j","11","0","false","false","RIGHT","j","1","","LEFT","false","","",""
"","html-keyboard-response","327","505850","0.0-579.0","tmp7bwa5","3440","1440","","","","","","","","","","","null","+","Fixation - short","","null","","","","","","","","","","","","",""
"","html-keyboard-response","328","506541","0.0-580.0","tmp7bwa5","3440","1440","","","","","","","","","","","690","glp","Diagnostic trial","","f","11","1","false","true","LEFT","f","1","","RIGHT","false","","",""
"","html-keyboard-response","329","507292","0.0-583.0","tmp7bwa5","3440","1440","","","","","","","","","","","null","+","Fixation - short","","null","","","","","","","","","","","","",""
"","html-keyboard-response","330","508427","0.0-584.0","tmp7bwa5","3440","1440","","","","","","","","","","","1135","glp","Diagnostic trial","","j","11","2","false","false","RIGHT","j","1","","RIGHT","true","","",""
"","html-keyboard-response","331","509178","0.0-587.0","tmp7bwa5","3440","1440","","","","","","","","","","","null","+","Fixation - short","","null","","","","","","","","","","","","",""
"","html-keyboard-response","332","509746","0.0-588.0","tmp7bwa5","3440","1440","","","","","","","","","","","567","lff","Diagnostic trial","","f","11","3","false","true","LEFT","f","1","","LEFT","true","","",""
"","html-keyboard-response","333","510497","0.0-591.0","tmp7bwa5","3440","1440","","","","","","","","","","","null","+","Fixation - short","","null","","","","","","","","","","","","",""
"","html-keyboard-response","334","511104","0.0-592.0","tmp7bwa5","3440","1440","","","","","","","","","","","606","lff","Diagnostic trial","","j","11","4","false","false","RIGHT","j","1","","LEFT","false","","",""
"","html-keyboard-response","335","511855","0.0-595.0","tmp7bwa5","3440","1440","","","","","","","","","","","null","+","Fixation - short","","null","","","","","","","","","","","","",""
"","html-keyboard-response","336","512252","0.0-596.0","tmp7bwa5","3440","1440","","","","","","","","","","","396","lff","Diagnostic trial","","j","11","5","false","false","RIGHT","j","1","","LEFT","false","","",""
"","html-keyboard-response","337","513003","0.0-599.0","tmp7bwa5","3440","1440","","","","","","","","","","","null","+","Fixation - short","","null","","","","","","","","","","","","",""
"","html-keyboard-response","338","513459","0.0-600.0","tmp7bwa5","3440","1440","","","","","","","","","","","455","lff","Diagnostic trial","","j","11","6","false","false","RIGHT","j","1","","LEFT","false","","",""
"","html-keyboard-response","339","514210","0.0-603.0","tmp7bwa5","3440","1440","","","","","","","","","","","null","+","Fixation - short","","null","","","","","","","","","","","","",""
"","html-keyboard-response","340","515025","0.0-604.0","tmp7bwa5","3440","1440","","","","","","","","","","","814","glp","Diagnostic trial","","j","11","7","false","false","RIGHT","j","1","","RIGHT","true","","",""
"","html-keyboard-response","341","515776","0.0-607.0","tmp7bwa5","3440","1440","","","","","","","","","","","null","+","Fixation - short","","null","","","","","","","","","","","","",""
"","html-keyboard-response","342","516394","0.0-608.0","tmp7bwa5","3440","1440","","","","","","","","","","","617","glp","Diagnostic trial","","f","11","8","false","true","LEFT","f","1","","RIGHT","false","","",""
"","html-keyboard-response","343","517145","0.0-611.0","tmp7bwa5","3440","1440","","","","","","","","","","","null","+","Fixation - short","","null","","","","","","","","","","","","",""
"","html-keyboard-response","344","517680","0.0-612.0","tmp7bwa5","3440","1440","","","","","","","","","","","534","lff","Diagnostic trial","","j","11","9","false","false","RIGHT","j","1","","LEFT","false","","",""
"","html-keyboard-response","345","518431","0.0-615.0","tmp7bwa5","3440","1440","","","","","","","","","","","null","+","Fixation - short","","null","","","","","","","","","","","","",""
"","html-keyboard-response","346","518822","0.0-616.0","tmp7bwa5","3440","1440","","","","","","","","","","","390","lff","Diagnostic trial","","j","11","10","false","false","RIGHT","j","1","","LEFT","false","","",""
"","html-keyboard-response","347","519573","0.0-619.0","tmp7bwa5","3440","1440","","","","","","","","","","","null","+","Fixation - short","","null","","","","","","","","","","","","",""
"","html-keyboard-response","348","520316","0.0-620.0","tmp7bwa5","3440","1440","","","","","","","","","","","742","glp","Diagnostic trial","","j","11","11","false","false","RIGHT","j","1","","RIGHT","true","","",""
"","html-keyboard-response","349","521066","0.0-623.0","tmp7bwa5","3440","1440","","","","","","","","","","","null","+","Fixation - short","","null","","","","","","","","","","","","",""
"","html-keyboard-response","350","521487","0.0-624.0","tmp7bwa5","3440","1440","","","","","","","","","","","419","glp","Diagnostic trial","","j","11","12","false","false","RIGHT","j","1","","RIGHT","true","","",""
"","html-keyboard-response","351","522238","0.0-627.0","tmp7bwa5","3440","1440","","","","","","","","","","","null","+","Fixation - short","","null","","","","","","","","","","","","",""
"","html-keyboard-response","352","522837","0.0-628.0","tmp7bwa5","3440","1440","","","","","","","","","","","598","lff","Inducer trial","","f","11","","true","","","f","1","LEFT","","","","",""
"","html-keyboard-response","353","524338","0.0-631.0","tmp7bwa5","3440","1440","","","","","","","","","","","null","+","Fixation - long","","null","","","","","","","","","","","","",""
"","html-keyboard-response","354","525435","0.0-632.0","tmp7bwa5","3440","1440","","","","","","","","","","","1096","If jsf press LEFT | If mik press RIGHT","Inducer instructions",""," ","12","","","","","","","","","","","",""
"","html-keyboard-response","355","526186","0.0-633.0","tmp7bwa5","3440","1440","","","","","","","","","","","null","+","Fixation - short","","null","","","","","","","","","","","","",""
"","html-keyboard-response","356","526768","0.0-634.0","tmp7bwa5","3440","1440","","","","","","","","","","","581","jsf","Diagnostic trial","","f","12","0","false","true","LEFT","f","1","","LEFT","true","","",""
"","html-keyboard-response","357","527519","0.0-637.0","tmp7bwa5","3440","1440","","","","","","","","","","","null","+","Fixation - short","","null","","","","","","","","","","","","",""
"","html-keyboard-response","358","527937","0.0-638.0","tmp7bwa5","3440","1440","","","","","","","","","","","417","mik","Diagnostic trial","","j","12","1","false","false","RIGHT","j","1","","RIGHT","true","","",""
"","html-keyboard-response","359","528688","0.0-641.0","tmp7bwa5","3440","1440","","","","","","","","","","","null","+","Fixation - short","","null","","","","","","","","","","","","",""
"","html-keyboard-response","360","529255","0.0-642.0","tmp7bwa5","3440","1440","","","","","","","","","","","567","jsf","Diagnostic trial","","f","12","2","false","true","LEFT","f","1","","LEFT","true","","",""
"","html-keyboard-response","361","530006","0.0-645.0","tmp7bwa5","3440","1440","","","","","","","","","","","null","+","Fixation - short","","null","","","","","","","","","","","","",""
"","html-keyboard-response","362","530589","0.0-646.0","tmp7bwa5","3440","1440","","","","","","","","","","","582","jsf","Diagnostic trial","","f","12","3","false","true","LEFT","f","1","","LEFT","true","","",""
"","html-keyboard-response","363","531340","0.0-649.0","tmp7bwa5","3440","1440","","","","","","","","","","","null","+","Fixation - short","","null","","","","","","","","","","","","",""
"","html-keyboard-response","364","531741","0.0-650.0","tmp7bwa5","3440","1440","","","","","","","","","","","400","jsf","Diagnostic trial","","f","12","4","false","true","LEFT","f","1","","LEFT","true","","",""
"","html-keyboard-response","365","532492","0.0-653.0","tmp7bwa5","3440","1440","","","","","","","","","","","null","+","Fixation - short","","null","","","","","","","","","","","","",""
"","html-keyboard-response","366","533174","0.0-654.0","tmp7bwa5","3440","1440","","","","","","","","","","","681","jsf","Diagnostic trial","","j","12","5","false","false","RIGHT","j","1","","LEFT","false","","",""
"","html-keyboard-response","367","533925","0.0-657.0","tmp7bwa5","3440","1440","","","","","","","","","","","null","+","Fixation - short","","null","","","","","","","","","","","","",""
"","html-keyboard-response","368","534544","0.0-658.0","tmp7bwa5","3440","1440","","","","","","","","","","","618","jsf","Diagnostic trial","","f","12","6","false","true","LEFT","f","1","","LEFT","true","","",""
"","html-keyboard-response","369","535295","0.0-661.0","tmp7bwa5","3440","1440","","","","","","","","","","","null","+","Fixation - short","","null","","","","","","","","","","","","",""
"","html-keyboard-response","370","536407","0.0-662.0","tmp7bwa5","3440","1440","","","","","","","","","","","1112","mik","Diagnostic trial","","j","12","7","false","false","RIGHT","j","1","","RIGHT","true","","",""
"","html-keyboard-response","371","537158","0.0-665.0","tmp7bwa5","3440","1440","","","","","","","","","","","null","+","Fixation - short","","null","","","","","","","","","","","","",""
"","html-keyboard-response","372","537710","0.0-666.0","tmp7bwa5","3440","1440","","","","","","","","","","","551","jsf","Diagnostic trial","","f","12","8","false","true","LEFT","f","1","","LEFT","true","","",""
"","html-keyboard-response","373","538461","0.0-669.0","tmp7bwa5","3440","1440","","","","","","","","","","","null","+","Fixation - short","","null","","","","","","","","","","","","",""
"","html-keyboard-response","374","539733","0.0-670.0","tmp7bwa5","3440","1440","","","","","","","","","","","1271","mik","Diagnostic trial","","f","12","9","false","true","LEFT","f","1","","RIGHT","false","","",""
"","html-keyboard-response","375","540484","0.0-673.0","tmp7bwa5","3440","1440","","","","","","","","","","","null","+","Fixation - short","","null","","","","","","","","","","","","",""
"","html-keyboard-response","376","541572","0.0-674.0","tmp7bwa5","3440","1440","","","","","","","","","","","1087","jsf","Diagnostic trial","","j","12","10","false","false","RIGHT","j","1","","LEFT","false","","",""
"","html-keyboard-response","377","542323","0.0-677.0","tmp7bwa5","3440","1440","","","","","","","","","","","null","+","Fixation - short","","null","","","","","","","","","","","","",""
"","html-keyboard-response","378","542929","0.0-678.0","tmp7bwa5","3440","1440","","","","","","","","","","","605","mik","Diagnostic trial","","j","12","11","false","false","RIGHT","j","1","","RIGHT","true","","",""
"","html-keyboard-response","379","543680","0.0-681.0","tmp7bwa5","3440","1440","","","","","","","","","","","null","+","Fixation - short","","null","","","","","","","","","","","","",""
"","html-keyboard-response","380","544266","0.0-682.0","tmp7bwa5","3440","1440","","","","","","","","","","","585","mik","Diagnostic trial","","f","12","12","false","true","LEFT","f","1","","RIGHT","false","","",""
"","html-keyboard-response","381","545017","0.0-685.0","tmp7bwa5","3440","1440","","","","","","","","","","","null","+","Fixation - short","","null","","","","","","","","","","","","",""
"","html-keyboard-response","382","545562","0.0-686.0","tmp7bwa5","3440","1440","","","","","","","","","","","544","mik","Diagnostic trial","","j","12","13","false","false","RIGHT","j","1","","RIGHT","true","","",""
"","html-keyboard-response","383","546313","0.0-689.0","tmp7bwa5","3440","1440","","","","","","","","","","","null","+","Fixation - short","","null","","","","","","","","","","","","",""
"","html-keyboard-response","384","546812","0.0-690.0","tmp7bwa5","3440","1440","","","","","","","","","","","498","jsf","Diagnostic trial","","f","12","14","false","true","LEFT","f","1","","LEFT","true","","",""
"","html-keyboard-response","385","547563","0.0-693.0","tmp7bwa5","3440","1440","","","","","","","","","","","null","+","Fixation - short","","null","","","","","","","","","","","","",""
"","html-keyboard-response","386","548306","0.0-694.0","tmp7bwa5","3440","1440","","","","","","","","","","","742","mik","Inducer trial","","j","12","","true","","","j","1","RIGHT","","","","",""
"","html-keyboard-response","387","549807","0.0-697.0","tmp7bwa5","3440","1440","","","","","","","","","","","null","+","Fixation - long","","null","","","","","","","","","","","","",""
"","html-keyboard-response","388","550632","0.0-698.0","tmp7bwa5","3440","1440","","","","","","","","","","","824","If nga press LEFT | If jey press RIGHT","Inducer instructions",""," ","13","","","","","","","","","","","",""
"","html-keyboard-response","389","551383","0.0-699.0","tmp7bwa5","3440","1440","","","","","","","","","","","null","+","Fixation - short","","null","","","","","","","","","","","","",""
"","html-keyboard-response","390","552079","0.0-700.0","tmp7bwa5","3440","1440","","","","","","","","","","","695","nga","Diagnostic trial","","f","13","0","false","true","LEFT","f","1","","LEFT","true","","",""
"","html-keyboard-response","391","552830","0.0-703.0","tmp7bwa5","3440","1440","","","","","","","","","","","null","+","Fixation - short","","null","","","","","","","","","","","","",""
"","html-keyboard-response","392","553256","0.0-704.0","tmp7bwa5","3440","1440","","","","","","","","","","","425","nga","Diagnostic trial","","f","13","1","false","true","LEFT","f","1","","LEFT","true","","",""
"","html-keyboard-response","393","554007","0.0-707.0","tmp7bwa5","3440","1440","","","","","","","","","","","null","+","Fixation - short","","null","","","","","","","","","","","","",""
"","html-keyboard-response","394","554573","0.0-708.0","tmp7bwa5","3440","1440","","","","","","","","","","","565","nga","Diagnostic trial","","j","13","2","false","false","RIGHT","j","1","","LEFT","false","","",""
"","html-keyboard-response","395","555324","0.0-711.0","tmp7bwa5","3440","1440","","","","","","","","","","","null","+","Fixation - short","","null","","","","","","","","","","","","",""
"","html-keyboard-response","396","555833","0.0-712.0","tmp7bwa5","3440","1440","","","","","","","","","","","508","nga","Diagnostic trial","","f","13","3","false","true","LEFT","f","1","","LEFT","true","","",""
"","html-keyboard-response","397","556584","0.0-715.0","tmp7bwa5","3440","1440","","","","","","","","","","","null","+","Fixation - short","","null","","","","","","","","","","","","",""
"","html-keyboard-response","398","557361","0.0-716.0","tmp7bwa5","3440","1440","","","","","","","","","","","775","jey","Diagnostic trial","","j","13","4","false","false","RIGHT","j","1","","RIGHT","true","","",""
"","html-keyboard-response","399","558111","0.0-719.0","tmp7bwa5","3440","1440","","","","","","","","","","","null","+","Fixation - short","","null","","","","","","","","","","","","",""
"","html-keyboard-response","400","558742","0.0-720.0","tmp7bwa5","3440","1440","","","","","","","","","","","630","jey","Diagnostic trial","","j","13","5","false","false","RIGHT","j","1","","RIGHT","true","","",""
"","html-keyboard-response","401","559493","0.0-723.0","tmp7bwa5","3440","1440","","","","","","","","","","","null","+","Fixation - short","","null","","","","","","","","","","","","",""
"","html-keyboard-response","402","560025","0.0-724.0","tmp7bwa5","3440","1440","","","","","","","","","","","531","jey","Diagnostic trial","","j","13","6","false","false","RIGHT","j","1","","RIGHT","true","","",""
"","html-keyboard-response","403","560776","0.0-727.0","tmp7bwa5","3440","1440","","","","","","","","","","","null","+","Fixation - short","","null","","","","","","","","","","","","",""
"","html-keyboard-response","404","561311","0.0-728.0","tmp7bwa5","3440","1440","","","","","","","","","","","534","nga","Diagnostic trial","","f","13","7","false","true","LEFT","f","1","","LEFT","true","","",""
"","html-keyboard-response","405","562062","0.0-731.0","tmp7bwa5","3440","1440","","","","","","","","","","","null","+","Fixation - short","","null","","","","","","","","","","","","",""
"","html-keyboard-response","406","562907","0.0-732.0","tmp7bwa5","3440","1440","","","","","","","","","","","844","nga","Diagnostic trial","","f","13","8","false","true","LEFT","f","1","","LEFT","true","","",""
"","html-keyboard-response","407","563658","0.0-735.0","tmp7bwa5","3440","1440","","","","","","","","","","","null","+","Fixation - short","","null","","","","","","","","","","","","",""
"","html-keyboard-response","408","564359","0.0-736.0","tmp7bwa5","3440","1440","","","","","","","","","","","700","nga","Diagnostic trial","","j","13","9","false","false","RIGHT","j","1","","LEFT","false","","",""
"","html-keyboard-response","409","565110","0.0-739.0","tmp7bwa5","3440","1440","","","","","","","","","","","null","+","Fixation - short","","null","","","","","","","","","","","","",""
"","html-keyboard-response","410","566113","0.0-740.0","tmp7bwa5","3440","1440","","","","","","","","","","","1002","jey","Inducer trial","","j","13","","true","","","j","1","RIGHT","","","","",""
"","html-keyboard-response","411","567614","0.0-743.0","tmp7bwa5","3440","1440","","","","","","","","","","","null","+","Fixation - long","","null","","","","","","","","","","","","",""
"","html-keyboard-response","412","568861","0.0-744.0","tmp7bwa5","3440","1440","","","","","","","","","","","1246","If dlg press LEFT | If yrp press RIGHT","Inducer instructions",""," ","14","","","","","","","","","","","",""
"","html-keyboard-response","413","569612","0.0-745.0","tmp7bwa5","3440","1440","","","","","","","","","","","null","+","Fixation - short","","null","","","","","","","","","","","","",""
"","html-keyboard-response","414","570668","0.0-746.0","tmp7bwa5","3440","1440","","","","","","","","","","","1055","yrp","Diagnostic trial","","j","14","0","false","false","RIGHT","j","1","","RIGHT","true","","",""
"","html-keyboard-response","415","571419","0.0-749.0","tmp7bwa5","3440","1440","","","","","","","","","","","null","+","Fixation - short","","null","","","","","","","","","","","","",""
"","html-keyboard-response","416","571967","0.0-750.0","tmp7bwa5","3440","1440","","","","","","","","","","","546","dlg","Diagnostic trial","","f","14","1","false","true","LEFT","f","1","","LEFT","true","","",""
"","html-keyboard-response","417","572718","0.0-753.0","tmp7bwa5","3440","1440","","","","","","","","","","","null","+","Fixation - short","","null","","","","","","","","","","","","",""
"","html-keyboard-response","418","573355","0.0-754.0","tmp7bwa5","3440","1440","","","","","","","","","","","637","dlg","Diagnostic trial","","j","14","2","false","false","RIGHT","j","1","","LEFT","false","","",""
"","html-keyboard-response","419","574106","0.0-757.0","tmp7bwa5","3440","1440","","","","","","","","","","","null","+","Fixation - short","","null","","","","","","","","","","","","",""
"","html-keyboard-response","420","575767","0.0-758.0","tmp7bwa5","3440","1440","","","","","","","","","","","1660","dlg","Diagnostic trial","","j","14","3","false","false","RIGHT","j","1","","LEFT","false","","",""
"","html-keyboard-response","421","576518","0.0-761.0","tmp7bwa5","3440","1440","","","","","","","","","","","null","+","Fixation - short","","null","","","","","","","","","","","","",""
"","html-keyboard-response","422","576906","0.0-762.0","tmp7bwa5","3440","1440","","","","","","","","","","","387","yrp","Diagnostic trial","","f","14","4","false","true","LEFT","f","1","","RIGHT","false","","",""
"","html-keyboard-response","423","577657","0.0-765.0","tmp7bwa5","3440","1440","","","","","","","","","","","null","+","Fixation - short","","null","","","","","","","","","","","","",""
"","html-keyboard-response","424","578037","0.0-766.0","tmp7bwa5","3440","1440","","","","","","","","","","","379","dlg","Diagnostic trial","","f","14","5","false","true","LEFT","f","1","","LEFT","true","","",""
"","html-keyboard-response","425","578788","0.0-769.0","tmp7bwa5","3440","1440","","","","","","","","","","","null","+","Fixation - short","","null","","","","","","","","","","","","",""
"","html-keyboard-response","426","579301","0.0-770.0","tmp7bwa5","3440","1440","","","","","","","","","","","512","yrp","Diagnostic trial","","j","14","6","false","false","RIGHT","j","1","","RIGHT","true","","",""
"","html-keyboard-response","427","580052","0.0-773.0","tmp7bwa5","3440","1440","","","","","","","","","","","null","+","Fixation - short","","null","","","","","","","","","","","","",""
"","html-keyboard-response","428","580411","0.0-774.0","tmp7bwa5","3440","1440","","","","","","","","","","","358","yrp","Diagnostic trial","","f","14","7","false","true","LEFT","f","1","","RIGHT","false","","",""
"","html-keyboard-response","429","581162","0.0-777.0","tmp7bwa5","3440","1440","","","","","","","","","","","null","+","Fixation - short","","null","","","","","","","","","","","","",""
"","html-keyboard-response","430","581581","0.0-778.0","tmp7bwa5","3440","1440","","","","","","","","","","","418","dlg","Diagnostic trial","","j","14","8","false","false","RIGHT","j","1","","LEFT","false","","",""
"","html-keyboard-response","431","582332","0.0-781.0","tmp7bwa5","3440","1440","","","","","","","","","","","null","+","Fixation - short","","null","","","","","","","","","","","","",""
"","html-keyboard-response","432","582868","0.0-782.0","tmp7bwa5","3440","1440","","","","","","","","","","","535","yrp","Diagnostic trial","","f","14","9","false","true","LEFT","f","1","","RIGHT","false","","",""
"","html-keyboard-response","433","583618","0.0-785.0","tmp7bwa5","3440","1440","","","","","","","","","","","null","+","Fixation - short","","null","","","","","","","","","","","","",""
"","html-keyboard-response","434","584267","0.0-786.0","tmp7bwa5","3440","1440","","","","","","","","","","","648","dlg","Diagnostic trial","","j","14","10","false","false","RIGHT","j","1","","LEFT","false","","",""
"","html-keyboard-response","435","585018","0.0-789.0","tmp7bwa5","3440","1440","","","","","","","","","","","null","+","Fixation - short","","null","","","","","","","","","","","","",""
"","html-keyboard-response","436","585981","0.0-790.0","tmp7bwa5","3440","1440","","","","","","","","","","","962","dlg","Diagnostic trial","","f","14","11","false","true","LEFT","f","1","","LEFT","true","","",""
"","html-keyboard-response","437","586732","0.0-793.0","tmp7bwa5","3440","1440","","","","","","","","","","","null","+","Fixation - short","","null","","","","","","","","","","","","",""
"","html-keyboard-response","438","587419","0.0-794.0","tmp7bwa5","3440","1440","","","","","","","","","","","686","dlg","Diagnostic trial","","j","14","12","false","false","RIGHT","j","1","","LEFT","false","","",""
"","html-keyboard-response","439","588170","0.0-797.0","tmp7bwa5","3440","1440","","","","","","","","","","","null","+","Fixation - short","","null","","","","","","","","","","","","",""
"","html-keyboard-response","440","588905","0.0-798.0","tmp7bwa5","3440","1440","","","","","","","","","","","734","yrp","Inducer trial","","j","14","","true","","","j","1","RIGHT","","","","",""
"","html-keyboard-response","441","590406","0.0-801.0","tmp7bwa5","3440","1440","","","","","","","","","","","null","+","Fixation - long","","null","","","","","","","","","","","","",""
"","html-keyboard-response","442","592689","0.0-802.0","tmp7bwa5","3440","1440","","","","","","","","","","","2281","If dij press LEFT | If vpu press RIGHT","Inducer instructions",""," ","15","","","","","","","","","","","",""
"","html-keyboard-response","443","593439","0.0-803.0","tmp7bwa5","3440","1440","","","","","","","","","","","null","+","Fixation - short","","null","","","","","","","","","","","","",""
"","html-keyboard-response","444","594533","0.0-804.0","tmp7bwa5","3440","1440","","","","","","","","","","","1093","vpu","Diagnostic trial","","j","15","0","false","false","RIGHT","j","1","","RIGHT","true","","",""
"","html-keyboard-response","445","595284","0.0-807.0","tmp7bwa5","3440","1440","","","","","","","","","","","null","+","Fixation - short","","null","","","","","","","","","","","","",""
"","html-keyboard-response","446","595744","0.0-808.0","tmp7bwa5","3440","1440","","","","","","","","","","","459","dij","Diagnostic trial","","f","15","1","false","true","LEFT","f","1","","LEFT","true","","",""
"","html-keyboard-response","447","596495","0.0-811.0","tmp7bwa5","3440","1440","","","","","","","","","","","null","+","Fixation - short","","null","","","","","","","","","","","","",""
"","html-keyboard-response","448","597030","0.0-812.0","tmp7bwa5","3440","1440","","","","","","","","","","","534","vpu","Diagnostic trial","","f","15","2","false","true","LEFT","f","1","","RIGHT","false","","",""
"","html-keyboard-response","449","597781","0.0-815.0","tmp7bwa5","3440","1440","","","","","","","","","","","null","+","Fixation - short","","null","","","","","","","","","","","","",""
"","html-keyboard-response","450","598309","0.0-816.0","tmp7bwa5","3440","1440","","","","","","","","","","","527","vpu","Diagnostic trial","","j","15","3","false","false","RIGHT","j","1","","RIGHT","true","","",""
"","html-keyboard-response","451","599060","0.0-819.0","tmp7bwa5","3440","1440","","","","","","","","","","","null","+","Fixation - short","","null","","","","","","","","","","","","",""
"","html-keyboard-response","452","599636","0.0-820.0","tmp7bwa5","3440","1440","","","","","","","","","","","575","dij","Diagnostic trial","","j","15","4","false","false","RIGHT","j","1","","LEFT","false","","",""
"","html-keyboard-response","453","600387","0.0-823.0","tmp7bwa5","3440","1440","","","","","","","","","","","null","+","Fixation - short","","null","","","","","","","","","","","","",""
"","html-keyboard-response","454","601232","0.0-824.0","tmp7bwa5","3440","1440","","","","","","","","","","","844","vpu","Inducer trial","","j","15","","true","","","j","1","RIGHT","","","","",""
"","html-keyboard-response","455","602733","0.0-827.0","tmp7bwa5","3440","1440","","","","","","","","","","","null","+","Fixation - long","","null","","","","","","","","","","","","",""
"","html-keyboard-response","456","604015","0.0-828.0","tmp7bwa5","3440","1440","","","","","","","","","","","1281","If wrz press LEFT | If mmo press RIGHT","Inducer instructions",""," ","16","","","","","","","","","","","",""
"","html-keyboard-response","457","604766","0.0-829.0","tmp7bwa5","3440","1440","","","","","","","","","","","null","+","Fixation - short","","null","","","","","","","","","","","","",""
"","html-keyboard-response","458","605300","0.0-830.0","tmp7bwa5","3440","1440","","","","","","","","","","","533","wrz","Diagnostic trial","","f","16","0","false","true","LEFT","f","1","","LEFT","true","","",""
"","html-keyboard-response","459","606051","0.0-833.0","tmp7bwa5","3440","1440","","","","","","","","","","","null","+","Fixation - short","","null","","","","","","","","","","","","",""
"","html-keyboard-response","460","606651","0.0-834.0","tmp7bwa5","3440","1440","","","","","","","","","","","600","wrz","Diagnostic trial","","f","16","1","false","true","LEFT","f","1","","LEFT","true","","",""
"","html-keyboard-response","461","607402","0.0-837.0","tmp7bwa5","3440","1440","","","","","","","","","","","null","+","Fixation - short","","null","","","","","","","","","","","","",""
"","html-keyboard-response","462","608045","0.0-838.0","tmp7bwa5","3440","1440","","","","","","","","","","","641","wrz","Diagnostic trial","","f","16","2","false","true","LEFT","f","1","","LEFT","true","","",""
"","html-keyboard-response","463","608795","0.0-841.0","tmp7bwa5","3440","1440","","","","","","","","","","","null","+","Fixation - short","","null","","","","","","","","","","","","",""
"","html-keyboard-response","464","610083","0.0-842.0","tmp7bwa5","3440","1440","","","","","","","","","","","1286","mmo","Diagnostic trial","","f","16","3","false","true","LEFT","f","1","","RIGHT","false","","",""
"","html-keyboard-response","465","610834","0.0-845.0","tmp7bwa5","3440","1440","","","","","","","","","","","null","+","Fixation - short","","null","","","","","","","","","","","","",""
"","html-keyboard-response","466","611574","0.0-846.0","tmp7bwa5","3440","1440","","","","","","","","","","","739","wrz","Diagnostic trial","","j","16","4","false","false","RIGHT","j","1","","LEFT","false","","",""
"","html-keyboard-response","467","612325","0.0-849.0","tmp7bwa5","3440","1440","","","","","","","","","","","null","+","Fixation - short","","null","","","","","","","","","","","","",""
"","html-keyboard-response","468","612785","0.0-850.0","tmp7bwa5","3440","1440","","","","","","","","","","","459","mmo","Diagnostic trial","","f","16","5","false","true","LEFT","f","1","","RIGHT","false","","",""
"","html-keyboard-response","469","613536","0.0-853.0","tmp7bwa5","3440","1440","","","","","","","","","","","null","+","Fixation - short","","null","","","","","","","","","","","","",""
"","html-keyboard-response","470","614201","0.0-854.0","tmp7bwa5","3440","1440","","","","","","","","","","","664","wrz","Diagnostic trial","","f","16","6","false","true","LEFT","f","1","","LEFT","true","","",""
"","html-keyboard-response","471","614952","0.0-857.0","tmp7bwa5","3440","1440","","","","","","","","","","","null","+","Fixation - short","","null","","","","","","","","","","","","",""
"","html-keyboard-response","472","615695","0.0-858.0","tmp7bwa5","3440","1440","","","","","","","","","","","743","mmo","Diagnostic trial","","f","16","7","false","true","LEFT","f","1","","RIGHT","false","","",""
"","html-keyboard-response","473","616446","0.0-861.0","tmp7bwa5","3440","1440","","","","","","","","","","","null","+","Fixation - short","","null","","","","","","","","","","","","",""
"","html-keyboard-response","474","616994","0.0-862.0","tmp7bwa5","3440","1440","","","","","","","","","","","547","mmo","Diagnostic trial","","f","16","8","false","true","LEFT","f","1","","RIGHT","false","","",""
"","html-keyboard-response","475","617745","0.0-865.0","tmp7bwa5","3440","1440","","","","","","","","","","","null","+","Fixation - short","","null","","","","","","","","","","","","",""
"","html-keyboard-response","476","618351","0.0-866.0","tmp7bwa5","3440","1440","","","","","","","","","","","605","mmo","Inducer trial","","j","16","","true","","","j","1","RIGHT","","","","",""
"","html-keyboard-response","477","619852","0.0-869.0","tmp7bwa5","3440","1440","","","","","","","","","","","null","+","Fixation - long","","null","","","","","","","","","","","","",""
"","html-keyboard-response","478","621071","0.0-870.0","tmp7bwa5","3440","1440","","","","","","","","","","","1218","If wab press LEFT | If lct press RIGHT","Inducer instructions",""," ","17","","","","","","","","","","","",""
"","html-keyboard-response","479","621822","0.0-871.0","tmp7bwa5","3440","1440","","","","","","","","","","","null","+","Fixation - short","","null","","","","","","","","","","","","",""
"","html-keyboard-response","480","622311","0.0-872.0","tmp7bwa5","3440","1440","","","","","","","","","","","489","wab","Diagnostic trial","","f","17","0","false","true","LEFT","f","1","","LEFT","true","","",""
"","html-keyboard-response","481","623062","0.0-875.0","tmp7bwa5","3440","1440","","","","","","","","","","","null","+","Fixation - short","","null","","","","","","","","","","","","",""
"","html-keyboard-response","482","623459","0.0-876.0","tmp7bwa5","3440","1440","","","","","","","","","","","396","wab","Diagnostic trial","","f","17","1","false","false","RIGHT","j","0","","LEFT","false","","",""
"","call-function","483","623460","0.0-878.0-0.0","tmp7bwa5","","","","","","","","","","","","","","","","","","","","","","","","","","","","","",""
"","html-keyboard-response","484","623760","0.0-878.0-1.0","tmp7bwa5","3440","1440","","","","","","","","","","","null","Wrong","Feedback","","null","","","","","","","","","","","","",""
"","call-function","485","623761","0.0-878.0-2.0","tmp7bwa5","","","","","","","","","","","","","","","","","","","","","","","","","","","","","",""
"","html-keyboard-response","486","624512","0.0-879.0","tmp7bwa5","3440","1440","","","","","","","","","","","null","+","Fixation - short","","null","","","","","","","","","","","","",""
"","html-keyboard-response","487","625083","0.0-880.0","tmp7bwa5","3440","1440","","","","","","","","","","","571","lct","Diagnostic trial","","j","17","2","false","false","RIGHT","j","1","","RIGHT","true","","",""
"","html-keyboard-response","488","625834","0.0-883.0","tmp7bwa5","3440","1440","","","","","","","","","","","null","+","Fixation - short","","null","","","","","","","","","","","","",""
"","html-keyboard-response","489","626485","0.0-884.0","tmp7bwa5","3440","1440","","","","","","","","","","","650","wab","Diagnostic trial","","f","17","3","false","true","LEFT","f","1","","LEFT","true","","",""
"","html-keyboard-response","490","627236","0.0-887.0","tmp7bwa5","3440","1440","","","","","","","","","","","null","+","Fixation - short","","null","","","","","","","","","","","","",""
"","html-keyboard-response","491","627750","0.0-888.0","tmp7bwa5","3440","1440","","","","","","","","","","","513","wab","Diagnostic trial","","f","17","4","false","true","LEFT","f","1","","LEFT","true","","",""
"","html-keyboard-response","492","628501","0.0-891.0","tmp7bwa5","3440","1440","","","","","","","","","","","null","+","Fixation - short","","null","","","","","","","","","","","","",""
"","html-keyboard-response","493","629049","0.0-892.0","tmp7bwa5","3440","1440","","","","","","","","","","","547","wab","Diagnostic trial","","j","17","5","false","false","RIGHT","j","1","","LEFT","false","","",""
"","html-keyboard-response","494","629800","0.0-895.0","tmp7bwa5","3440","1440","","","","","","","","","","","null","+","Fixation - short","","null","","","","","","","","","","","","",""
"","html-keyboard-response","495","630288","0.0-896.0","tmp7bwa5","3440","1440","","","","","","","","","","","487","lct","Diagnostic trial","","f","17","6","false","true","LEFT","f","1","","RIGHT","false","","",""
