"value","trial_type","trial_index","time_elapsed","internal_node_id","id","width","height","webaudio","browser","browser_version","mobile","os","fullscreen","vsync_rate","webcam","microphone","view_history","rt","stimulus","trial_info","success","response","inducer_run","diagnostic_run","inducer_trial","italic","correct_diag_response_side","correct_response_key","correct_response","correct_indu_response_side","correct_inducer_response_side","congruent","accuracy","open_feedback","interactive"
"","call-function","0","12","0.0-0.0","6vufgput","","","","","","","","","","","","","","","","","","","","","","","","","","","","","",""
"","browser-check","1","18735","0.0-1.0","6vufgput","1536","703","true","chrome","120.0.0","false","Windows 10","true","60.9","true","true","","","","","","","","","","","","","","","","","","",""
"","instructions","2","58936","0.0-2.0","6vufgput","","","","","","","","","","","","[{""page_index"":0,""viewing_time"":24244},{""page_index"":1,""viewing_time"":11690},{""page_index"":2,""viewing_time"":4262}]","40198","The experiment and consent","The experiment and consent","","","","","","","","","","","","","","",""
"","fullscreen","3","64161","0.0-3.0","6vufgput","1536","864","","","","","","","","","","","4221","","Full screen","true","","","","","","","","","","","","","",""
"","instructions","4","86000","0.0-4.0","6vufgput","1536","864","","","","","","","","","","[{""page_index"":0,""viewing_time"":16195},{""page_index"":1,""viewing_time"":5642}]","21837","Instructions","Basic overview explanation","","","","","","","","","","","","","","",""
"","html-keyboard-response","5","96719","0.0-5.0","6vufgput","1536","864","","","","","","","","","","","9211","If italic press LEFT | If upright press RIGHT","Diagnostic instructions",""," ","","","","","","","","","","","","",""
"","html-keyboard-response","6","97472","0.0-6.0","6vufgput","1536","864","","","","","","","","","","","null","+","Fixation - short","","null","","","","","","","","","","","","",""
"","html-keyboard-response","7","98114","0.0-7.0","6vufgput","1536","864","","","","","","","","","","","639","wwt","Practice diganostic trial","","f","practice","0","false","1","LEFT","f","1","","","","","",""
"","html-keyboard-response","8","98870","0.0-10.0","6vufgput","1536","864","","","","","","","","","","","null","+","Fixation - short","","null","","","","","","","","","","","","",""
"","html-keyboard-response","9","99401","0.0-11.0","6vufgput","1536","864","","","","","","","","","","","527","wwt","Practice diganostic trial","","f","practice","1","false","1","LEFT","f","1","","","","","",""
"","html-keyboard-response","10","100154","0.0-14.0","6vufgput","1536","864","","","","","","","","","","","null","+","Fixation - short","","null","","","","","","","","","","","","",""
"","html-keyboard-response","11","100530","0.0-15.0","6vufgput","1536","864","","","","","","","","","","","375","wwt","Practice diganostic trial","","j","practice","2","false","0","RIGHT","j","1","","","","","",""
"","html-keyboard-response","12","101283","0.0-18.0","6vufgput","1536","864","","","","","","","","","","","null","+","Fixation - short","","null","","","","","","","","","","","","",""
"","html-keyboard-response","13","101777","0.0-19.0","6vufgput","1536","864","","","","","","","","","","","493","snx","Practice diganostic trial","","j","practice","3","false","0","RIGHT","j","1","","","","","",""
"","html-keyboard-response","14","102529","0.0-22.0","6vufgput","1536","864","","","","","","","","","","","null","+","Fixation - short","","null","","","","","","","","","","","","",""
"","html-keyboard-response","15","102978","0.0-23.0","6vufgput","1536","864","","","","","","","","","","","446","wwt","Practice diganostic trial","","f","practice","4","false","1","LEFT","f","1","","","","","",""
"","html-keyboard-response","16","103737","0.0-26.0","6vufgput","1536","864","","","","","","","","","","","null","+","Fixation - short","","null","","","","","","","","","","","","",""
"","html-keyboard-response","17","104398","0.0-27.0","6vufgput","1536","864","","","","","","","","","","","660","wwt","Practice diganostic trial","","f","practice","5","false","1","LEFT","f","1","","","","","",""
"","html-keyboard-response","18","105151","0.0-30.0","6vufgput","1536","864","","","","","","","","","","","null","+","Fixation - short","","null","","","","","","","","","","","","",""
"","html-keyboard-response","19","105574","0.0-31.0","6vufgput","1536","864","","","","","","","","","","","422","snx","Practice diganostic trial","","j","practice","6","false","0","RIGHT","j","1","","","","","",""
"","html-keyboard-response","20","106326","0.0-34.0","6vufgput","1536","864","","","","","","","","","","","null","+","Fixation - short","","null","","","","","","","","","","","","",""
"","html-keyboard-response","21","106757","0.0-35.0","6vufgput","1536","864","","","","","","","","","","","430","snx","Practice diganostic trial","","f","practice","7","false","1","LEFT","f","1","","","","","",""
"","html-keyboard-response","22","107509","0.0-38.0","6vufgput","1536","864","","","","","","","","","","","null","+","Fixation - short","","null","","","","","","","","","","","","",""
"","html-keyboard-response","23","108012","0.0-39.0","6vufgput","1536","864","","","","","","","","","","","502","snx","Practice diganostic trial","","f","practice","8","false","1","LEFT","f","1","","","","","",""
"","html-keyboard-response","24","108770","0.0-42.0","6vufgput","1536","864","","","","","","","","","","","null","+","Fixation - short","","null","","","","","","","","","","","","",""
"","html-keyboard-response","25","109177","0.0-43.0","6vufgput","1536","864","","","","","","","","","","","406","snx","Practice diganostic trial","","j","practice","9","false","1","LEFT","f","0","","","","","",""
"","call-function","26","109179","0.0-45.0-0.0","6vufgput","","","","","","","","","","","","","","","","","","","","","","","","","","","","","",""
"","html-keyboard-response","27","109481","0.0-45.0-1.0","6vufgput","1536","864","","","","","","","","","","","null","Wrong","Feedback","","null","","","","","","","","","","","","",""
"","call-function","28","109483","0.0-45.0-2.0","6vufgput","","","","","","","","","","","","","","","","","","","","","","","","","","","","","",""
"","html-keyboard-response","29","110235","0.0-46.0","6vufgput","1536","864","","","","","","","","","","","null","+","Fixation - short","","null","","","","","","","","","","","","",""
"","html-keyboard-response","30","110652","0.0-47.0","6vufgput","1536","864","","","","","","","","","","","415","wwt","Practice diganostic trial","","j","practice","10","false","0","RIGHT","j","1","","","","","",""
"","html-keyboard-response","31","111404","0.0-50.0","6vufgput","1536","864","","","","","","","","","","","null","+","Fixation - short","","null","","","","","","","","","","","","",""
"","html-keyboard-response","32","111815","0.0-51.0","6vufgput","1536","864","","","","","","","","","","","410","snx","Practice diganostic trial","","j","practice","11","false","0","RIGHT","j","1","","","","","",""
"","html-keyboard-response","33","112567","0.0-54.0","6vufgput","1536","864","","","","","","","","","","","null","+","Fixation - short","","null","","","","","","","","","","","","",""
"","html-keyboard-response","34","113007","0.0-55.0","6vufgput","1536","864","","","","","","","","","","","439","wwt","Practice diganostic trial","","j","practice","12","false","0","RIGHT","j","1","","","","","",""
"","html-keyboard-response","35","113762","0.0-58.0","6vufgput","1536","864","","","","","","","","","","","null","+","Fixation - short","","null","","","","","","","","","","","","",""
"","html-keyboard-response","36","114226","0.0-59.0","6vufgput","1536","864","","","","","","","","","","","461","snx","Practice diganostic trial","","j","practice","13","false","0","RIGHT","j","1","","","","","",""
"","html-keyboard-response","37","114978","0.0-62.0","6vufgput","1536","864","","","","","","","","","","","null","+","Fixation - short","","null","","","","","","","","","","","","",""
"","html-keyboard-response","38","115422","0.0-63.0","6vufgput","1536","864","","","","","","","","","","","443","wwt","Practice diganostic trial","","j","practice","14","false","0","RIGHT","j","1","","","","","",""
"","html-keyboard-response","39","116175","0.0-66.0","6vufgput","1536","864","","","","","","","","","","","null","+","Fixation - short","","null","","","","","","","","","","","","",""
"","html-keyboard-response","40","116625","0.0-67.0","6vufgput","1536","864","","","","","","","","","","","449","snx","Practice diganostic trial","","f","practice","15","false","1","LEFT","f","1","","","","","",""
"","html-keyboard-response","41","117376","0.0-70.0","6vufgput","1536","864","","","","","","","","","","","null","+","Fixation - short","","null","","","","","","","","","","","","",""
"","instructions","42","121679","0.0-71.0","6vufgput","1536","864","","","","","","","","","","[{""page_index"":0,""viewing_time"":4299}]","4301","Instructions","Final experiment explanation","","","","","","","","","","","","","","",""
"","html-keyboard-response","43","128892","0.0-72.0","6vufgput","1536","864","","","","","","","","","","","5710","If wrz press LEFT | If ois press RIGHT","Practice inducer instructions",""," ","practice","","","","","","","","","","","",""
"","html-keyboard-response","44","129635","0.0-73.0","6vufgput","1536","864","","","","","","","","","","","741","","Practice inducer trial","","j","practice","","true","","","j","1","RIGHT","","","","",""
"","html-keyboard-response","45","130387","0.0-76.0","6vufgput","1536","864","","","","","","","","","","","null","+","Fixation - short","","null","","","","","","","","","","","","",""
"","html-keyboard-response","46","134769","0.0-77.0","6vufgput","1536","864","","","","","","","","","","","4380","If dul press LEFT | If epy press RIGHT","Practice inducer instructions",""," ","practice","","","","","","","","","","","",""
"","html-keyboard-response","47","135492","0.0-78.0","6vufgput","1536","864","","","","","","","","","","","719","","Practice inducer trial","","j","practice","","true","","","j","1","RIGHT","","","","",""
"","html-keyboard-response","48","136246","0.0-81.0","6vufgput","1536","864","","","","","","","","","","","null","+","Fixation - short","","null","","","","","","","","","","","","",""
"","html-keyboard-response","49","139879","0.0-82.0","6vufgput","1536","864","","","","","","","","","","","3632","If hrc press LEFT | If fuc press RIGHT","Practice inducer instructions",""," ","practice","","","","","","","","","","","",""
"","html-keyboard-response","50","140568","0.0-83.0","6vufgput","1536","864","","","","","","","","","","","688","","Practice inducer trial","","f","practice","","true","","","f","1","LEFT","","","","",""
"","html-keyboard-response","51","141320","0.0-86.0","6vufgput","1536","864","","","","","","","","","","","null","+","Fixation - short","","null","","","","","","","","","","","","",""
"","html-keyboard-response","52","143263","0.0-87.0","6vufgput","1536","864","","","","","","","","","","","1941","If bgi press LEFT | If jsf press RIGHT","Practice inducer instructions",""," ","practice","","","","","","","","","","","",""
"","html-keyboard-response","53","144052","0.0-88.0","6vufgput","1536","864","","","","","","","","","","","788","","Practice inducer trial","","j","practice","","true","","","j","1","RIGHT","","","","",""
"","html-keyboard-response","54","144804","0.0-91.0","6vufgput","1536","864","","","","","","","","","","","null","+","Fixation - short","","null","","","","","","","","","","","","",""
"","html-keyboard-response","55","146714","0.0-92.0","6vufgput","1536","864","","","","","","","","","","","1908","If pph press LEFT | If gfm press RIGHT","Practice inducer instructions",""," ","practice","","","","","","","","","","","",""
"","html-keyboard-response","56","147277","0.0-93.0","6vufgput","1536","864","","","","","","","","","","","562","","Practice inducer trial","","f","practice","","true","","","f","1","LEFT","","","","",""
"","html-keyboard-response","57","148028","0.0-96.0","6vufgput","1536","864","","","","","","","","","","","null","+","Fixation - short","","null","","","","","","","","","","","","",""
"","html-keyboard-response","58","149409","0.0-97.0","6vufgput","1536","864","","","","","","","","","","","1379","If frn press LEFT | If crf press RIGHT","Practice inducer instructions",""," ","practice","","","","","","","","","","","",""
"","html-keyboard-response","59","149962","0.0-98.0","6vufgput","1536","864","","","","","","","","","","","552","","Practice inducer trial","","f","practice","","true","","","f","1","LEFT","","","","",""
"","html-keyboard-response","60","150717","0.0-101.0","6vufgput","1536","864","","","","","","","","","","","null","+","Fixation - short","","null","","","","","","","","","","","","",""
"","html-keyboard-response","61","172037","0.0-102.0","6vufgput","1536","864","","","","","","","","","","","21313","End practice","End of practice",""," ","","","","","","","","","","","","",""
"","html-keyboard-response","62","173540","0.0-103.0","6vufgput","1536","864","","","","","","","","","","","null","+","Fixation - long","","null","","","","","","","","","","","","",""
"","html-keyboard-response","63","176455","0.0-104.0","6vufgput","1536","864","","","","","","","","","","","2913","If vnn press LEFT | If ydi press RIGHT","Inducer instructions",""," ","0","","","","","","","","","","","",""
"","html-keyboard-response","64","177215","0.0-105.0","6vufgput","1536","864","","","","","","","","","","","null","+","Fixation - short","","null","","","","","","","","","","","","",""
"","html-keyboard-response","65","177693","0.0-106.0","6vufgput","1536","864","","","","","","","","","","","476","ydi","Diagnostic trial","","j","0","0","false","false","RIGHT","j","1","","RIGHT","true","","",""
"","html-keyboard-response","66","178447","0.0-109.0","6vufgput","1536","864","","","","","","","","","","","null","+","Fixation - short","","null","","","","","","","","","","","","",""
"","html-keyboard-response","67","179214","0.0-110.0","6vufgput","1536","864","","","","","","","","","","","766","ydi","Diagnostic trial","","f","0","1","false","true","LEFT","f","1","","RIGHT","false","","",""
"","html-keyboard-response","68","179966","0.0-113.0","6vufgput","1536","864","","","","","","","","","","","null","+","Fixation - short","","null","","","","","","","","","","","","",""
"","html-keyboard-response","69","180608","0.0-114.0","6vufgput","1536","864","","","","","","","","","","","639","vnn","Diagnostic trial","","j","0","2","false","false","RIGHT","j","1","","LEFT","false","","",""
"","html-keyboard-response","70","181361","0.0-117.0","6vufgput","1536","864","","","","","","","","","","","null","+","Fixation - short","","null","","","","","","","","","","","","",""
"","html-keyboard-response","71","181950","0.0-118.0","6vufgput","1536","864","","","","","","","","","","","587","vnn","Diagnostic trial","","j","0","3","false","true","LEFT","f","0","","LEFT","true","","",""
"","call-function","72","181951","0.0-120.0-0.0","6vufgput","","","","","","","","","","","","","","","","","","","","","","","","","","","","","",""
"","html-keyboard-response","73","182253","0.0-120.0-1.0","6vufgput","1536","864","","","","","","","","","","","null","Wrong","Feedback","","null","","","","","","","","","","","","",""
"","call-function","74","182254","0.0-120.0-2.0","6vufgput","","","","","","","","","","","","","","","","","","","","","","","","","","","","","",""
"","html-keyboard-response","75","183006","0.0-121.0","6vufgput","1536","864","","","","","","","","","","","null","+","Fixation - short","","null","","","","","","","","","","","","",""
"","html-keyboard-response","76","183585","0.0-122.0","6vufgput","1536","864","","","","","","","","","","","577","ydi","Diagnostic trial","","f","0","4","false","false","RIGHT","j","0","","RIGHT","true","","",""
"","call-function","77","183586","0.0-124.0-0.0","6vufgput","","","","","","","","","","","","","","","","","","","","","","","","","","","","","",""
"","html-keyboard-response","78","183888","0.0-124.0-1.0","6vufgput","1536","864","","","","","","","","","","","null","Wrong","Feedback","","null","","","","","","","","","","","","",""
"","call-function","79","183889","0.0-124.0-2.0","6vufgput","","","","","","","","","","","","","","","","","","","","","","","","","","","","","",""
"","html-keyboard-response","80","184641","0.0-125.0","6vufgput","1536","864","","","","","","","","","","","null","+","Fixation - short","","null","","","","","","","","","","","","",""
"","html-keyboard-response","81","185262","0.0-126.0","6vufgput","1536","864","","","","","","","","","","","616","vnn","Diagnostic trial","","f","0","5","false","true","LEFT","f","1","","LEFT","true","","",""
"","html-keyboard-response","82","186015","0.0-129.0","6vufgput","1536","864","","","","","","","","","","","null","+","Fixation - short","","null","","","","","","","","","","","","",""
"","html-keyboard-response","83","186468","0.0-130.0","6vufgput","1536","864","","","","","","","","","","","451","vnn","Diagnostic trial","","f","0","6","false","true","LEFT","f","1","","LEFT","true","","",""
"","html-keyboard-response","84","187223","0.0-133.0","6vufgput","1536","864","","","","","","","","","","","null","+","Fixation - short","","null","","","","","","","","","","","","",""
"","html-keyboard-response","85","187700","0.0-134.0","6vufgput","1536","864","","","","","","","","","","","476","vnn","Diagnostic trial","","f","0","7","false","true","LEFT","f","1","","LEFT","true","","",""
"","html-keyboard-response","86","188452","0.0-137.0","6vufgput","1536","864","","","","","","","","","","","null","+","Fixation - short","","null","","","","","","","","","","","","",""
"","html-keyboard-response","87","189009","0.0-138.0","6vufgput","1536","864","","","","","","","","","","","556","ydi","Diagnostic trial","","j","0","8","false","false","RIGHT","j","1","","RIGHT","true","","",""
"","html-keyboard-response","88","189761","0.0-141.0","6vufgput","1536","864","","","","","","","","","","","null","+","Fixation - short","","null","","","","","","","","","","","","",""
"","html-keyboard-response","89","190380","0.0-142.0","6vufgput","1536","864","","","","","","","","","","","617","ydi","Diagnostic trial","","j","0","9","false","false","RIGHT","j","1","","RIGHT","true","","",""
"","html-keyboard-response","90","191133","0.0-145.0","6vufgput","1536","864","","","","","","","","","","","null","+","Fixation - short","","null","","","","","","","","","","","","",""
"","html-keyboard-response","91","191972","0.0-146.0","6vufgput","1536","864","","","","","","","","","","","835","ydi","Diagnostic trial","","f","0","10","false","true","LEFT","f","1","","RIGHT","false","","",""
"","html-keyboard-response","92","192724","0.0-149.0","6vufgput","1536","864","","","","","","","","","","","null","+","Fixation - short","","null","","","","","","","","","","","","",""
"","html-keyboard-response","93","193353","0.0-150.0","6vufgput","1536","864","","","","","","","","","","","627","vnn","Inducer trial","","f","0","","true","","","f","1","LEFT","","","","",""
"","html-keyboard-response","94","194856","0.0-153.0","6vufgput","1536","864","","","","","","","","","","","null","+","Fixation - long","","null","","","","","","","","","","","","",""
"","html-keyboard-response","95","198683","0.0-154.0","6vufgput","1536","864","","","","","","","","","","","3826","If vbt press LEFT | If eht press RIGHT","Inducer instructions",""," ","1","","","","","","","","","","","",""
"","html-keyboard-response","96","199434","0.0-155.0","6vufgput","1536","864","","","","","","","","","","","null","+","Fixation - short","","null","","","","","","","","","","","","",""
"","html-keyboard-response","97","199914","0.0-156.0","6vufgput","1536","864","","","","","","","","","","","478","eht","Diagnostic trial","","j","1","0","false","true","LEFT","f","0","","RIGHT","false","","",""
"","call-function","98","199915","0.0-158.0-0.0","6vufgput","","","","","","","","","","","","","","","","","","","","","","","","","","","","","",""
"","html-keyboard-response","99","200220","0.0-158.0-1.0","6vufgput","1536","864","","","","","","","","","","","null","Wrong","Feedback","","null","","","","","","","","","","","","",""
"","call-function","100","200223","0.0-158.0-2.0","6vufgput","","","","","","","","","","","","","","","","","","","","","","","","","","","","","",""
"","html-keyboard-response","101","200975","0.0-159.0","6vufgput","1536","864","","","","","","","","","","","null","+","Fixation - short","","null","","","","","","","","","","","","",""
"","html-keyboard-response","102","201933","0.0-160.0","6vufgput","1536","864","","","","","","","","","","","955","vbt","Diagnostic trial","","f","1","1","false","true","LEFT","f","1","","LEFT","true","","",""
"","html-keyboard-response","103","202687","0.0-163.0","6vufgput","1536","864","","","","","","","","","","","null","+","Fixation - short","","null","","","","","","","","","","","","",""
"","html-keyboard-response","104","203537","0.0-164.0","6vufgput","1536","864","","","","","","","","","","","849","vbt","Diagnostic trial","","j","1","2","false","false","RIGHT","j","1","","LEFT","false","","",""
"","html-keyboard-response","105","204289","0.0-167.0","6vufgput","1536","864","","","","","","","","","","","null","+","Fixation - short","","null","","","","","","","","","","","","",""
"","html-keyboard-response","106","204907","0.0-168.0","6vufgput","1536","864","","","","","","","","","","","616","eht","Diagnostic trial","","f","1","3","false","true","LEFT","f","1","","RIGHT","false","","",""
"","html-keyboard-response","107","205660","0.0-171.0","6vufgput","1536","864","","","","","","","","","","","null","+","Fixation - short","","null","","","","","","","","","","","","",""
"","html-keyboard-response","108","206268","0.0-172.0","6vufgput","1536","864","","","","","","","","","","","607","vbt","Diagnostic trial","","j","1","4","false","false","RIGHT","j","1","","LEFT","false","","",""
"","html-keyboard-response","109","207020","0.0-175.0","6vufgput","1536","864","","","","","","","","","","","null","+","Fixation - short","","null","","","","","","","","","","","","",""
"","html-keyboard-response","110","207788","0.0-176.0","6vufgput","1536","864","","","","","","","","","","","766","eht","Diagnostic trial","","f","1","5","false","false","RIGHT","j","0","","RIGHT","true","","",""
"","call-function","111","207790","0.0-178.0-0.0","6vufgput","","","","","","","","","","","","","","","","","","","","","","","","","","","","","",""
"","html-keyboard-response","112","208092","0.0-178.0-1.0","6vufgput","1536","864","","","","","","","","","","","null","Wrong","Feedback","","null","","","","","","","","","","","","",""
"","call-function","113","208093","0.0-178.0-2.0","6vufgput","","","","","","","","","","","","","","","","","","","","","","","","","","","","","",""
"","html-keyboard-response","114","208844","0.0-179.0","6vufgput","1536","864","","","","","","","","","","","null","+","Fixation - short","","null","","","","","","","","","","","","",""
"","html-keyboard-response","115","209794","0.0-180.0","6vufgput","1536","864","","","","","","","","","","","947","vbt","Diagnostic trial","","j","1","6","false","false","RIGHT","j","1","","LEFT","false","","",""
"","html-keyboard-response","116","210546","0.0-183.0","6vufgput","1536","864","","","","","","","","","","","null","+","Fixation - short","","null","","","","","","","","","","","","",""
"","html-keyboard-response","117","211197","0.0-184.0","6vufgput","1536","864","","","","","","","","","","","650","vbt","Diagnostic trial","","j","1","7","false","false","RIGHT","j","1","","LEFT","false","","",""
"","html-keyboard-response","118","211950","0.0-187.0","6vufgput","1536","864","","","","","","","","","","","null","+","Fixation - short","","null","","","","","","","","","","","","",""
"","html-keyboard-response","119","212539","0.0-188.0","6vufgput","1536","864","","","","","","","","","","","587","eht","Inducer trial","","j","1","","true","","","j","1","RIGHT","","","","",""
"","html-keyboard-response","120","214041","0.0-191.0","6vufgput","1536","864","","","","","","","","","","","null","+","Fixation - long","","null","","","","","","","","","","","","",""
"","html-keyboard-response","121","216404","0.0-192.0","6vufgput","1536","864","","","","","","","","","","","2362","If glp press LEFT | If vpu press RIGHT","Inducer instructions",""," ","2","","","","","","","","","","","",""
"","html-keyboard-response","122","217164","0.0-193.0","6vufgput","1536","864","","","","","","","","","","","null","+","Fixation - short","","null","","","","","","","","","","","","",""
"","html-keyboard-response","123","217869","0.0-194.0","6vufgput","1536","864","","","","","","","","","","","703","glp","Diagnostic trial","","f","2","0","false","true","LEFT","f","1","","LEFT","true","","",""
"","html-keyboard-response","124","218622","0.0-197.0","6vufgput","1536","864","","","","","","","","","","","null","+","Fixation - short","","null","","","","","","","","","","","","",""
"","html-keyboard-response","125","219299","0.0-198.0","6vufgput","1536","864","","","","","","","","","","","675","glp","Diagnostic trial","","j","2","1","false","false","RIGHT","j","1","","LEFT","false","","",""
"","html-keyboard-response","126","220051","0.0-201.0","6vufgput","1536","864","","","","","","","","","","","null","+","Fixation - short","","null","","","","","","","","","","","","",""
"","html-keyboard-response","127","220717","0.0-202.0","6vufgput","1536","864","","","","","","","","","","","665","vpu","Diagnostic trial","","j","2","2","false","false","RIGHT","j","1","","RIGHT","true","","",""
"","html-keyboard-response","128","221471","0.0-205.0","6vufgput","1536","864","","","","","","","","","","","null","+","Fixation - short","","null","","","","","","","","","","","","",""
"","html-keyboard-response","129","222089","0.0-206.0","6vufgput","1536","864","","","","","","","","","","","615","glp","Diagnostic trial","","j","2","3","false","false","RIGHT","j","1","","LEFT","false","","",""
"","html-keyboard-response","130","222841","0.0-209.0","6vufgput","1536","864","","","","","","","","","","","null","+","Fixation - short","","null","","","","","","","","","","","","",""
"","html-keyboard-response","131","223600","0.0-210.0","6vufgput","1536","864","","","","","","","","","","","758","vpu","Diagnostic trial","","f","2","4","false","false","RIGHT","j","0","","RIGHT","true","","",""
"","call-function","132","223601","0.0-212.0-0.0","6vufgput","","","","","","","","","","","","","","","","","","","","","","","","","","","","","",""
"","html-keyboard-response","133","223903","0.0-212.0-1.0","6vufgput","1536","864","","","","","","","","","","","null","Wrong","Feedback","","null","","","","","","","","","","","","",""
"","call-function","134","223904","0.0-212.0-2.0","6vufgput","","","","","","","","","","","","","","","","","","","","","","","","","","","","","",""
"","html-keyboard-response","135","224656","0.0-213.0","6vufgput","1536","864","","","","","","","","","","","null","+","Fixation - short","","null","","","","","","","","","","","","",""
"","html-keyboard-response","136","225563","0.0-214.0","6vufgput","1536","864","","","","","","","","","","","904","glp","Inducer trial","","j","2","","true","","","f","0","LEFT","","","","",""
"","call-function","137","225564","0.0-216.0-0.0","6vufgput","","","","","","","","","","","","","","","","","","","","","","","","","","","","","",""
"","html-keyboard-response","138","225867","0.0-216.0-1.0","6vufgput","1536","864","","","","","","","","","","","null","Wrong","Feedback","","null","","","","","","","","","","","","",""
"","call-function","139","225867","0.0-216.0-2.0","6vufgput","","","","","","","","","","","","","","","","","","","","","","","","","","","","","",""
"","html-keyboard-response","140","227369","0.0-217.0","6vufgput","1536","864","","","","","","","","","","","null","+","Fixation - long","","null","","","","","","","","","","","","",""
"","html-keyboard-response","141","228468","0.0-218.0","6vufgput","1536","864","","","","","","","","","","","1097","If guf press LEFT | If mik press RIGHT","Inducer instructions",""," ","3","","","","","","","","","","","",""
"","html-keyboard-response","142","229221","0.0-219.0","6vufgput","1536","864","","","","","","","","","","","null","+","Fixation - short","","null","","","","","","","","","","","","",""
"","html-keyboard-response","143","229642","0.0-220.0","6vufgput","1536","864","","","","","","","","","","","418","guf","Diagnostic trial","","f","3","0","false","false","RIGHT","j","0","","LEFT","false","","",""
"","call-function","144","229644","0.0-222.0-0.0","6vufgput","","","","","","","","","","","","","","","","","","","","","","","","","","","","","",""
"","html-keyboard-response","145","229946","0.0-222.0-1.0","6vufgput","1536","864","","","","","","","","","","","null","Wrong","Feedback","","null","","","","","","","","","","","","",""
"","call-function","146","229947","0.0-222.0-2.0","6vufgput","","","","","","","","","","","","","","","","","","","","","","","","","","","","","",""
"","html-keyboard-response","147","230700","0.0-223.0","6vufgput","1536","864","","","","","","","","","","","null","+","Fixation - short","","null","","","","","","","","","","","","",""
"","html-keyboard-response","148","231152","0.0-224.0","6vufgput","1536","864","","","","","","","","","","","450","guf","Diagnostic trial","","j","3","1","false","false","RIGHT","j","1","","LEFT","false","","",""
"","html-keyboard-response","149","231906","0.0-227.0","6vufgput","1536","864","","","","","","","","","","","null","+","Fixation - short","","null","","","","","","","","","","","","",""
"","html-keyboard-response","150","232519","0.0-228.0","6vufgput","1536","864","","","","","","","","","","","612","guf","Diagnostic trial","","f","3","2","false","true","LEFT","f","1","","LEFT","true","","",""
"","html-keyboard-response","151","233272","0.0-231.0","6vufgput","1536","864","","","","","","","","","","","null","+","Fixation - short","","null","","","","","","","","","","","","",""
"","html-keyboard-response","152","234071","0.0-232.0","6vufgput","1536","864","","","","","","","","","","","797","guf","Diagnostic trial","","j","3","3","false","false","RIGHT","j","1","","LEFT","false","","",""
"","html-keyboard-response","153","234822","0.0-235.0","6vufgput","1536","864","","","","","","","","","","","null","+","Fixation - short","","null","","","","","","","","","","","","",""
"","html-keyboard-response","154","235418","0.0-236.0","6vufgput","1536","864","","","","","","","","","","","594","mik","Diagnostic trial","","j","3","4","false","false","RIGHT","j","1","","RIGHT","true","","",""
"","html-keyboard-response","155","236170","0.0-239.0","6vufgput","1536","864","","","","","","","","","","","null","+","Fixation - short","","null","","","","","","","","","","","","",""
"","html-keyboard-response","156","236691","0.0-240.0","6vufgput","1536","864","","","","","","","","","","","519","mik","Diagnostic trial","","j","3","5","false","false","RIGHT","j","1","","RIGHT","true","","",""
"","html-keyboard-response","157","237445","0.0-243.0","6vufgput","1536","864","","","","","","","","","","","null","+","Fixation - short","","null","","","","","","","","","","","","",""
"","html-keyboard-response","158","237970","0.0-244.0","6vufgput","1536","864","","","","","","","","","","","523","mik","Diagnostic trial","","j","3","6","false","false","RIGHT","j","1","","RIGHT","true","","",""
"","html-keyboard-response","159","238722","0.0-247.0","6vufgput","1536","864","","","","","","","","","","","null","+","Fixation - short","","null","","","","","","","","","","","","",""
"","html-keyboard-response","160","239248","0.0-248.0","6vufgput","1536","864","","","","","","","","","","","524","mik","Diagnostic trial","","j","3","7","false","false","RIGHT","j","1","","RIGHT","true","","",""
"","html-keyboard-response","161","240000","0.0-251.0","6vufgput","1536","864","","","","","","","","","","","null","+","Fixation - short","","null","","","","","","","","","","","","",""
"","html-keyboard-response","162","240754","0.0-252.0","6vufgput","1536","864","","","","","","","","","","","752","guf","Diagnostic trial","","j","3","8","false","false","RIGHT","j","1","","LEFT","false","","",""
"","html-keyboard-response","163","241508","0.0-255.0","6vufgput","1536","864","","","","","","","","","","","null","+","Fixation - short","","null","","","","","","","","","","","","",""
"","html-keyboard-response","164","242116","0.0-256.0","6vufgput","1536","864","","","","","","","","","","","607","mik","Diagnostic trial","","j","3","9","false","false","RIGHT","j","1","","RIGHT","true","","",""
"","html-keyboard-response","165","242870","0.0-259.0","6vufgput","1536","864","","","","","","","","","","","null","+","Fixation - short","","null","","","","","","","","","","","","",""
"","html-keyboard-response","166","243470","0.0-260.0","6vufgput","1536","864","","","","","","","","","","","598","guf","Diagnostic trial","","j","3","10","false","false","RIGHT","j","1","","LEFT","false","","",""
"","html-keyboard-response","167","244223","0.0-263.0","6vufgput","1536","864","","","","","","","","","","","null","+","Fixation - short","","null","","","","","","","","","","","","",""
"","html-keyboard-response","168","244715","0.0-264.0","6vufgput","1536","864","","","","","","","","","","","491","mik","Diagnostic trial","","j","3","11","false","false","RIGHT","j","1","","RIGHT","true","","",""
"","html-keyboard-response","169","245468","0.0-267.0","6vufgput","1536","864","","","","","","","","","","","null","+","Fixation - short","","null","","","","","","","","","","","","",""
"","html-keyboard-response","170","245918","0.0-268.0","6vufgput","1536","864","","","","","","","","","","","448","guf","Diagnostic trial","","j","3","12","false","false","RIGHT","j","1","","LEFT","false","","",""
"","html-keyboard-response","171","246670","0.0-271.0","6vufgput","1536","864","","","","","","","","","","","null","+","Fixation - short","","null","","","","","","","","","","","","",""
"","html-keyboard-response","172","247087","0.0-272.0","6vufgput","1536","864","","","","","","","","","","","415","mik","Diagnostic trial","","j","3","13","false","false","RIGHT","j","1","","RIGHT","true","","",""
"","html-keyboard-response","173","247839","0.0-275.0","6vufgput","1536","864","","","","","","","","","","","null","+","Fixation - short","","null","","","","","","","","","","","","",""
"","html-keyboard-response","174","248346","0.0-276.0","6vufgput","1536","864","","","","","","","","","","","504","guf","Inducer trial","","j","3","","true","","","f","0","LEFT","","","","",""
"","call-function","175","248347","0.0-278.0-0.0","6vufgput","","","","","","","","","","","","","","","","","","","","","","","","","","","","","",""
"","html-keyboard-response","176","248649","0.0-278.0-1.0","6vufgput","1536","864","","","","","","","","","","","null","Wrong","Feedback","","null","","","","","","","","","","","","",""
"","call-function","177","248650","0.0-278.0-2.0","6vufgput","","","","","","","","","","","","","","","","","","","","","","","","","","","","","",""
"","html-keyboard-response","178","250152","0.0-279.0","6vufgput","1536","864","","","","","","","","","","","null","+","Fixation - long","","null","","","","","","","","","","","","",""
"","html-keyboard-response","179","251995","0.0-280.0","6vufgput","1536","864","","","","","","","","","","","1842","If mts press LEFT | If ume press RIGHT","Inducer instructions",""," ","4","","","","","","","","","","","",""
"","html-keyboard-response","180","252747","0.0-281.0","6vufgput","1536","864","","","","","","","","","","","null","+","Fixation - short","","null","","","","","","","","","","","","",""
"","html-keyboard-response","181","253170","0.0-282.0","6vufgput","1536","864","","","","","","","","","","","419","ume","Diagnostic trial","","j","4","0","false","true","LEFT","f","0","","RIGHT","false","","",""
"","call-function","182","253171","0.0-284.0-0.0","6vufgput","","","","","","","","","","","","","","","","","","","","","","","","","","","","","",""
"","html-keyboard-response","183","253473","0.0-284.0-1.0","6vufgput","1536","864","","","","","","","","","","","null","Wrong","Feedback","","null","","","","","","","","","","","","",""
"","call-function","184","253474","0.0-284.0-2.0","6vufgput","","","","","","","","","","","","","","","","","","","","","","","","","","","","","",""
"","html-keyboard-response","185","254226","0.0-285.0","6vufgput","1536","864","","","","","","","","","","","null","+","Fixation - short","","null","","","","","","","","","","","","",""
"","html-keyboard-response","186","254739","0.0-286.0","6vufgput","1536","864","","","","","","","","","","","512","mts","Diagnostic trial","","f","4","1","false","true","LEFT","f","1","","LEFT","true","","",""
"","html-keyboard-response","187","255491","0.0-289.0","6vufgput","1536","864","","","","","","","","","","","null","+","Fixation - short","","null","","","","","","","","","","","","",""
"","html-keyboard-response","188","255975","0.0-290.0","6vufgput","1536","864","","","","","","","","","","","482","ume","Diagnostic trial","","f","4","2","false","true","LEFT","f","1","","RIGHT","false","","",""
"","html-keyboard-response","189","256728","0.0-293.0","6vufgput","1536","864","","","","","","","","","","","null","+","Fixation - short","","null","","","","","","","","","","","","",""
"","html-keyboard-response","190","257314","0.0-294.0","6vufgput","1536","864","","","","","","","","","","","585","ume","Diagnostic trial","","j","4","3","false","false","RIGHT","j","1","","RIGHT","true","","",""
"","html-keyboard-response","191","258067","0.0-297.0","6vufgput","1536","864","","","","","","","","","","","null","+","Fixation - short","","null","","","","","","","","","","","","",""
"","html-keyboard-response","192","258596","0.0-298.0","6vufgput","1536","864","","","","","","","","","","","529","ume","Diagnostic trial","","j","4","4","false","false","RIGHT","j","1","","RIGHT","true","","",""
"","html-keyboard-response","193","259350","0.0-301.0","6vufgput","1536","864","","","","","","","","","","","null","+","Fixation - short","","null","","","","","","","","","","","","",""
"","html-keyboard-response","194","259845","0.0-302.0","6vufgput","1536","864","","","","","","","","","","","490","ume","Diagnostic trial","","j","4","5","false","false","RIGHT","j","1","","RIGHT","true","","",""
"","html-keyboard-response","195","260598","0.0-305.0","6vufgput","1536","864","","","","","","","","","","","null","+","Fixation - short","","null","","","","","","","","","","","","",""
"","html-keyboard-response","196","261202","0.0-306.0","6vufgput","1536","864","","","","","","","","","","","602","ume","Diagnostic trial","","f","4","6","false","true","LEFT","f","1","","RIGHT","false","","",""
"","html-keyboard-response","197","261954","0.0-309.0","6vufgput","1536","864","","","","","","","","","","","null","+","Fixation - short","","null","","","","","","","","","","","","",""
"","html-keyboard-response","198","262520","0.0-310.0","6vufgput","1536","864","","","","","","","","","","","563","mts","Diagnostic trial","","j","4","7","false","false","RIGHT","j","1","","LEFT","false","","",""
"","html-keyboard-response","199","263273","0.0-313.0","6vufgput","1536","864","","","","","","","","","","","null","+","Fixation - short","","null","","","","","","","","","","","","",""
"","html-keyboard-response","200","263830","0.0-314.0","6vufgput","1536","864","","","","","","","","","","","555","mts","Inducer trial","","j","4","","true","","","f","0","LEFT","","","","",""
"","call-function","201","263831","0.0-316.0-0.0","6vufgput","","","","","","","","","","","","","","","","","","","","","","","","","","","","","",""
"","html-keyboard-response","202","264157","0.0-316.0-1.0","6vufgput","1536","864","","","","","","","","","","","null","Wrong","Feedback","","null","","","","","","","","","","","","",""
"","call-function","203","264157","0.0-316.0-2.0","6vufgput","","","","","","","","","","","","","","","","","","","","","","","","","","","","","",""
"","html-keyboard-response","204","265659","0.0-317.0","6vufgput","1536","864","","","","","","","","","","","null","+","Fixation - long","","null","","","","","","","","","","","","",""
"","html-keyboard-response","205","268679","0.0-318.0","6vufgput","1536","864","","","","","","","","","","","3019","If pte press LEFT | If jup press RIGHT","Inducer instructions",""," ","5","","","","","","","","","","","",""
"","html-keyboard-response","206","269432","0.0-319.0","6vufgput","1536","864","","","","","","","","","","","null","+","Fixation - short","","null","","","","","","","","","","","","",""
"","html-keyboard-response","207","269859","0.0-320.0","6vufgput","1536","864","","","","","","","","","","","425","pte","Diagnostic trial","","f","5","0","false","true","LEFT","f","1","","LEFT","true","","",""
"","html-keyboard-response","208","270612","0.0-323.0","6vufgput","1536","864","","","","","","","","","","","null","+","Fixation - short","","null","","","","","","","","","","","","",""
"","html-keyboard-response","209","271164","0.0-324.0","6vufgput","1536","864","","","","","","","","","","","549","jup","Diagnostic trial","","j","5","1","false","true","LEFT","f","0","","RIGHT","false","","",""
"","call-function","210","271165","0.0-326.0-0.0","6vufgput","","","","","","","","","","","","","","","","","","","","","","","","","","","","","",""
"","html-keyboard-response","211","271467","0.0-326.0-1.0","6vufgput","1536","864","","","","","","","","","","","null","Wrong","Feedback","","null","","","","","","","","","","","","",""
"","call-function","212","271468","0.0-326.0-2.0","6vufgput","","","","","","","","","","","","","","","","","","","","","","","","","","","","","",""
"","html-keyboard-response","213","272221","0.0-327.0","6vufgput","1536","864","","","","","","","","","","","null","+","Fixation - short","","null","","","","","","","","","","","","",""
"","html-keyboard-response","214","273234","0.0-328.0","6vufgput","1536","864","","","","","","","","","","","1010","pte","Diagnostic trial","","j","5","2","false","false","RIGHT","j","1","","LEFT","false","","",""
"","html-keyboard-response","215","273988","0.0-331.0","6vufgput","1536","864","","","","","","","","","","","null","+","Fixation - short","","null","","","","","","","","","","","","",""
"","html-keyboard-response","216","274439","0.0-332.0","6vufgput","1536","864","","","","","","","","","","","448","pte","Diagnostic trial","","f","5","3","false","false","RIGHT","j","0","","LEFT","false","","",""
"","call-function","217","274440","0.0-334.0-0.0","6vufgput","","","","","","","","","","","","","","","","","","","","","","","","","","","","","",""
"","html-keyboard-response","218","274741","0.0-334.0-1.0","6vufgput","1536","864","","","","","","","","","","","null","Wrong","Feedback","","null","","","","","","","","","","","","",""
"","call-function","219","274742","0.0-334.0-2.0","6vufgput","","","","","","","","","","","","","","","","","","","","","","","","","","","","","",""
"","html-keyboard-response","220","275494","0.0-335.0","6vufgput","1536","864","","","","","","","","","","","null","+","Fixation - short","","null","","","","","","","","","","","","",""
"","html-keyboard-response","221","276443","0.0-336.0","6vufgput","1536","864","","","","","","","","","","","948","jup","Diagnostic trial","","j","5","4","false","true","LEFT","f","0","","RIGHT","false","","",""
"","call-function","222","276444","0.0-338.0-0.0","6vufgput","","","","","","","","","","","","","","","","","","","","","","","","","","","","","",""
"","html-keyboard-response","223","276750","0.0-338.0-1.0","6vufgput","1536","864","","","","","","","","","","","null","Wrong","Feedback","","null","","","","","","","","","","","","",""
"","call-function","224","276751","0.0-338.0-2.0","6vufgput","","","","","","","","","","","","","","","","","","","","","","","","","","","","","",""
"","html-keyboard-response","225","277505","0.0-339.0","6vufgput","1536","864","","","","","","","","","","","null","+","Fixation - short","","null","","","","","","","","","","","","",""
"","html-keyboard-response","226","278231","0.0-340.0","6vufgput","1536","864","","","","","","","","","","","724","pte","Diagnostic trial","","j","5","5","false","false","RIGHT","j","1","","LEFT","false","","",""
"","html-keyboard-response","227","278984","0.0-343.0","6vufgput","1536","864","","","","","","","","","","","null","+","Fixation - short","","null","","","","","","","","","","","","",""
"","html-keyboard-response","228","279622","0.0-344.0","6vufgput","1536","864","","","","","","","","","","","636","jup","Diagnostic trial","","f","5","6","false","true","LEFT","f","1","","RIGHT","false","","",""
"","html-keyboard-response","229","280376","0.0-347.0","6vufgput","1536","864","","","","","","","","","","","null","+","Fixation - short","","null","","","","","","","","","","","","",""
"","html-keyboard-response","230","281284","0.0-348.0","6vufgput","1536","864","","","","","","","","","","","907","pte","Diagnostic trial","","j","5","7","false","true","LEFT","f","0","","LEFT","true","","",""
"","call-function","231","281285","0.0-350.0-0.0","6vufgput","","","","","","","","","","","","","","","","","","","","","","","","","","","","","",""
"","html-keyboard-response","232","281589","0.0-350.0-1.0","6vufgput","1536","864","","","","","","","","","","","null","Wrong","Feedback","","null","","","","","","","","","","","","",""
"","call-function","233","281592","0.0-350.0-2.0","6vufgput","","","","","","","","","","","","","","","","","","","","","","","","","","","","","",""
"","html-keyboard-response","234","282345","0.0-351.0","6vufgput","1536","864","","","","","","","","","","","null","+","Fixation - short","","null","","","","","","","","","","","","",""
"","html-keyboard-response","235","283007","0.0-352.0","6vufgput","1536","864","","","","","","","","","","","661","pte","Diagnostic trial","","j","5","8","false","false","RIGHT","j","1","","LEFT","false","","",""
"","html-keyboard-response","236","283760","0.0-355.0","6vufgput","1536","864","","","","","","","","","","","null","+","Fixation - short","","null","","","","","","","","","","","","",""
"","html-keyboard-response","237","284342","0.0-356.0","6vufgput","1536","864","","","","","","","","","","","581","pte","Diagnostic trial","","f","5","9","false","true","LEFT","f","1","","LEFT","true","","",""
"","html-keyboard-response","238","285095","0.0-359.0","6vufgput","1536","864","","","","","","","","","","","null","+","Fixation - short","","null","","","","","","","","","","","","",""
"","html-keyboard-response","239","285840","0.0-360.0","6vufgput","1536","864","","","","","","","","","","","744","jup","Diagnostic trial","","j","5","10","false","false","RIGHT","j","1","","RIGHT","true","","",""
"","html-keyboard-response","240","286593","0.0-363.0","6vufgput","1536","864","","","","","","","","","","","null","+","Fixation - short","","null","","","","","","","","","","","","",""
"","html-keyboard-response","241","287663","0.0-364.0","6vufgput","1536","864","","","","","","","","","","","1069","jup","Inducer trial","","j","5","","true","","","j","1","RIGHT","","","","",""
"","html-keyboard-response","242","289165","0.0-367.0","6vufgput","1536","864","","","","","","","","","","","null","+","Fixation - long","","null","","","","","","","","","","","","",""
"","html-keyboard-response","243","290268","0.0-368.0","6vufgput","1536","864","","","","","","","","","","","1102","If cmj press LEFT | If aor press RIGHT","Inducer instructions",""," ","6","","","","","","","","","","","",""
"","html-keyboard-response","244","291021","0.0-369.0","6vufgput","1536","864","","","","","","","","","","","null","+","Fixation - short","","null","","","","","","","","","","","","",""
"","html-keyboard-response","245","291502","0.0-370.0","6vufgput","1536","864","","","","","","","","","","","479","aor","Diagnostic trial","","j","6","0","false","false","RIGHT","j","1","","RIGHT","true","","",""
"","html-keyboard-response","246","292255","0.0-373.0","6vufgput","1536","864","","","","","","","","","","","null","+","Fixation - short","","null","","","","","","","","","","","","",""
"","html-keyboard-response","247","292721","0.0-374.0","6vufgput","1536","864","","","","","","","","","","","465","aor","Diagnostic trial","","j","6","1","false","false","RIGHT","j","1","","RIGHT","true","","",""
"","html-keyboard-response","248","293474","0.0-377.0","6vufgput","1536","864","","","","","","","","","","","null","+","Fixation - short","","null","","","","","","","","","","","","",""
"","html-keyboard-response","249","294454","0.0-378.0","6vufgput","1536","864","","","","","","","","","","","979","cmj","Diagnostic trial","","j","6","2","false","false","RIGHT","j","1","","LEFT","false","","",""
"","html-keyboard-response","250","295207","0.0-381.0","6vufgput","1536","864","","","","","","","","","","","null","+","Fixation - short","","null","","","","","","","","","","","","",""
"","html-keyboard-response","251","295847","0.0-382.0","6vufgput","1536","864","","","","","","","","","","","638","aor","Diagnostic trial","","j","6","3","false","false","RIGHT","j","1","","RIGHT","true","","",""
"","html-keyboard-response","252","296605","0.0-385.0","6vufgput","1536","864","","","","","","","","","","","null","+","Fixation - short","","null","","","","","","","","","","","","",""
"","html-keyboard-response","253","297097","0.0-386.0","6vufgput","1536","864","","","","","","","","","","","491","cmj","Diagnostic trial","","f","6","4","false","true","LEFT","f","1","","LEFT","true","","",""
"","html-keyboard-response","254","297850","0.0-389.0","6vufgput","1536","864","","","","","","","","","","","null","+","Fixation - short","","null","","","","","","","","","","","","",""
"","html-keyboard-response","255","298388","0.0-390.0","6vufgput","1536","864","","","","","","","","","","","536","cmj","Diagnostic trial","","f","6","5","false","true","LEFT","f","1","","LEFT","true","","",""
"","html-keyboard-response","256","299141","0.0-393.0","6vufgput","1536","864","","","","","","","","","","","null","+","Fixation - short","","null","","","","","","","","","","","","",""
"","html-keyboard-response","257","299857","0.0-394.0","6vufgput","1536","864","","","","","","","","","","","715","aor","Diagnostic trial","","j","6","6","false","true","LEFT","f","0","","RIGHT","false","","",""
"","call-function","258","299859","0.0-396.0-0.0","6vufgput","","","","","","","","","","","","","","","","","","","","","","","","","","","","","",""
"","html-keyboard-response","259","300162","0.0-396.0-1.0","6vufgput","1536","864","","","","","","","","","","","null","Wrong","Feedback","","null","","","","","","","","","","","","",""
"","call-function","260","300162","0.0-396.0-2.0","6vufgput","","","","","","","","","","","","","","","","","","","","","","","","","","","","","",""
"","html-keyboard-response","261","300915","0.0-397.0","6vufgput","1536","864","","","","","","","","","","","null","+","Fixation - short","","null","","","","","","","","","","","","",""
"","html-keyboard-response","262","301864","0.0-398.0","6vufgput","1536","864","","","","","","","","","","","948","aor","Diagnostic trial","","j","6","7","false","true","LEFT","f","0","","RIGHT","false","","",""
"","call-function","263","301864","0.0-400.0-0.0","6vufgput","","","","","","","","","","","","","","","","","","","","","","","","","","","","","",""
"","html-keyboard-response","264","302166","0.0-400.0-1.0","6vufgput","1536","864","","","","","","","","","","","null","Wrong","Feedback","","null","","","","","","","","","","","","",""
"","call-function","265","302167","0.0-400.0-2.0","6vufgput","","","","","","","","","","","","","","","","","","","","","","","","","","","","","",""
"","html-keyboard-response","266","302920","0.0-401.0","6vufgput","1536","864","","","","","","","","","","","null","+","Fixation - short","","null","","","","","","","","","","","","",""
"","html-keyboard-response","267","303550","0.0-402.0","6vufgput","1536","864","","","","","","","","","","","629","aor","Diagnostic trial","","j","6","8","false","false","RIGHT","j","1","","RIGHT","true","","",""
"","html-keyboard-response","268","304304","0.0-405.0","6vufgput","1536","864","","","","","","","","","","","null","+","Fixation - short","","null","","","","","","","","","","","","",""
"","html-keyboard-response","269","304938","0.0-406.0","6vufgput","1536","864","","","","","","","","","","","631","cmj","Diagnostic trial","","f","6","9","false","true","LEFT","f","1","","LEFT","true","","",""
"","html-keyboard-response","270","305690","0.0-409.0","6vufgput","1536","864","","","","","","","","","","","null","+","Fixation - short","","null","","","","","","","","","","","","",""
"","html-keyboard-response","271","306362","0.0-410.0","6vufgput","1536","864","","","","","","","","","","","671","cmj","Diagnostic trial","","f","6","10","false","true","LEFT","f","1","","LEFT","true","","",""
"","html-keyboard-response","272","307120","0.0-413.0","6vufgput","1536","864","","","","","","","","","","","null","+","Fixation - short","","null","","","","","","","","","","","","",""
"","html-keyboard-response","273","307681","0.0-414.0","6vufgput","1536","864","","","","","","","","","","","560","cmj","Diagnostic trial","","f","6","11","false","true","LEFT","f","1","","LEFT","true","","",""
"","html-keyboard-response","274","308434","0.0-417.0","6vufgput","1536","864","","","","","","","","","","","null","+","Fixation - short","","null","","","","","","","","","","","","",""
"","html-keyboard-response","275","309030","0.0-418.0","6vufgput","1536","864","","","","","","","","","","","594","aor","Diagnostic trial","","j","6","12","false","true","LEFT","f","0","","RIGHT","false","","",""
"","call-function","276","309031","0.0-420.0-0.0","6vufgput","","","","","","","","","","","","","","","","","","","","","","","","","","","","","",""
"","html-keyboard-response","277","309334","0.0-420.0-1.0","6vufgput","1536","864","","","","","","","","","","","null","Wrong","Feedback","","null","","","","","","","","","","","","",""
"","call-function","278","309334","0.0-420.0-2.0","6vufgput","","","","","","","","","","","","","","","","","","","","","","","","","","","","","",""
"","html-keyboard-response","279","310086","0.0-421.0","6vufgput","1536","864","","","","","","","","","","","null","+","Fixation - short","","null","","","","","","","","","","","","",""
"","html-keyboard-response","280","310750","0.0-422.0","6vufgput","1536","864","","","","","","","","","","","662","cmj","Diagnostic trial","","j","6","13","false","false","RIGHT","j","1","","LEFT","false","","",""
"","html-keyboard-response","281","311502","0.0-425.0","6vufgput","1536","864","","","","","","","","","","","null","+","Fixation - short","","null","","","","","","","","","","","","",""
"","html-keyboard-response","282","312193","0.0-426.0","6vufgput","1536","864","","","","","","","","","","","690","cmj","Inducer trial","","j","6","","true","","","f","0","LEFT","","","","",""
"","call-function","283","312194","0.0-428.0-0.0","6vufgput","","","","","","","","","","","","","","","","","","","","","","","","","","","","","",""
"","html-keyboard-response","284","312496","0.0-428.0-1.0","6vufgput","1536","864","","","","","","","","","","","null","Wrong","Feedback","","null","","","","","","","","","","","","",""
"","call-function","285","312496","0.0-428.0-2.0","6vufgput","","","","","","","","","","","","","","","","","","","","","","","","","","","","","",""
"","html-keyboard-response","286","313999","0.0-429.0","6vufgput","1536","864","","","","","","","","","","","null","+","Fixation - long","","null","","","","","","","","","","","","",""
"","html-keyboard-response","287","315310","0.0-430.0","6vufgput","1536","864","","","","","","","","","","","1310","If kmh press LEFT | If feg press RIGHT","Inducer instructions",""," ","7","","","","","","","","","","","",""
"","html-keyboard-response","288","316062","0.0-431.0","6vufgput","1536","864","","","","","","","","","","","null","+","Fixation - short","","null","","","","","","","","","","","","",""
"","html-keyboard-response","289","316893","0.0-432.0","6vufgput","1536","864","","","","","","","","","","","829","kmh","Diagnostic trial","","j","7","0","false","false","RIGHT","j","1","","LEFT","false","","",""
"","html-keyboard-response","290","317646","0.0-435.0","6vufgput","1536","864","","","","","","","","","","","null","+","Fixation - short","","null","","","","","","","","","","","","",""
"","html-keyboard-response","291","318460","0.0-436.0","6vufgput","1536","864","","","","","","","","","","","812","kmh","Diagnostic trial","","f","7","1","false","true","LEFT","f","1","","LEFT","true","","",""
"","html-keyboard-response","292","319213","0.0-439.0","6vufgput","1536","864","","","","","","","","","","","null","+","Fixation - short","","null","","","","","","","","","","","","",""
"","html-keyboard-response","293","319836","0.0-440.0","6vufgput","1536","864","","","","","","","","","","","622","kmh","Diagnostic trial","","j","7","2","false","false","RIGHT","j","1","","LEFT","false","","",""
"","html-keyboard-response","294","320588","0.0-443.0","6vufgput","1536","864","","","","","","","","","","","null","+","Fixation - short","","null","","","","","","","","","","","","",""
"","html-keyboard-response","295","321134","0.0-444.0","6vufgput","1536","864","","","","","","","","","","","544","kmh","Diagnostic trial","","j","7","3","false","false","RIGHT","j","1","","LEFT","false","","",""
"","html-keyboard-response","296","321886","0.0-447.0","6vufgput","1536","864","","","","","","","","","","","null","+","Fixation - short","","null","","","","","","","","","","","","",""
"","html-keyboard-response","297","322493","0.0-448.0","6vufgput","1536","864","","","","","","","","","","","606","feg","Diagnostic trial","","f","7","4","false","true","LEFT","f","1","","RIGHT","false","","",""
"","html-keyboard-response","298","323245","0.0-451.0","6vufgput","1536","864","","","","","","","","","","","null","+","Fixation - short","","null","","","","","","","","","","","","",""
"","html-keyboard-response","299","323762","0.0-452.0","6vufgput","1536","864","","","","","","","","","","","516","kmh","Diagnostic trial","","j","7","5","false","false","RIGHT","j","1","","LEFT","false","","",""
"","html-keyboard-response","300","324515","0.0-455.0","6vufgput","1536","864","","","","","","","","","","","null","+","Fixation - short","","null","","","","","","","","","","","","",""
"","html-keyboard-response","301","325256","0.0-456.0","6vufgput","1536","864","","","","","","","","","","","740","feg","Diagnostic trial","","j","7","6","false","false","RIGHT","j","1","","RIGHT","true","","",""
"","html-keyboard-response","302","326008","0.0-459.0","6vufgput","1536","864","","","","","","","","","","","null","+","Fixation - short","","null","","","","","","","","","","","","",""
"","html-keyboard-response","303","326578","0.0-460.0","6vufgput","1536","864","","","","","","","","","","","568","kmh","Diagnostic trial","","j","7","7","false","false","RIGHT","j","1","","LEFT","false","","",""
"","html-keyboard-response","304","327331","0.0-463.0","6vufgput","1536","864","","","","","","","","","","","null","+","Fixation - short","","null","","","","","","","","","","","","",""
"","html-keyboard-response","305","328139","0.0-464.0","6vufgput","1536","864","","","","","","","","","","","806","kmh","Diagnostic trial","","f","7","8","false","true","LEFT","f","1","","LEFT","true","","",""
"","html-keyboard-response","306","328891","0.0-467.0","6vufgput","1536","864","","","","","","","","","","","null","+","Fixation - short","","null","","","","","","","","","","","","",""
"","html-keyboard-response","307","329674","0.0-468.0","6vufgput","1536","864","","","","","","","","","","","781","feg","Diagnostic trial","","f","7","9","false","true","LEFT","f","1","","RIGHT","false","","",""
"","html-keyboard-response","308","330427","0.0-471.0","6vufgput","1536","864","","","","","","","","","","","null","+","Fixation - short","","null","","","","","","","","","","","","",""
"","html-keyboard-response","309","331129","0.0-472.0","6vufgput","1536","864","","","","","","","","","","","700","feg","Diagnostic trial","","j","7","10","false","false","RIGHT","j","1","","RIGHT","true","","",""
"","html-keyboard-response","310","331881","0.0-475.0","6vufgput","1536","864","","","","","","","","","","","null","+","Fixation - short","","null","","","","","","","","","","","","",""
"","html-keyboard-response","311","332451","0.0-476.0","6vufgput","1536","864","","","","","","","","","","","568","kmh","Diagnostic trial","","j","7","11","false","false","RIGHT","j","1","","LEFT","false","","",""
"","html-keyboard-response","312","333203","0.0-479.0","6vufgput","1536","864","","","","","","","","","","","null","+","Fixation - short","","null","","","","","","","","","","","","",""
"","html-keyboard-response","313","333964","0.0-480.0","6vufgput","1536","864","","","","","","","","","","","758","feg","Inducer trial","","j","7","","true","","","j","1","RIGHT","","","","",""
"","html-keyboard-response","314","335467","0.0-483.0","6vufgput","1536","864","","","","","","","","","","","null","+","Fixation - long","","null","","","","","","","","","","","","",""
"","html-keyboard-response","315","336464","0.0-484.0","6vufgput","1536","864","","","","","","","","","","","993","If idy press LEFT | If jil press RIGHT","Inducer instructions",""," ","8","","","","","","","","","","","",""
"","html-keyboard-response","316","337216","0.0-485.0","6vufgput","1536","864","","","","","","","","","","","null","+","Fixation - short","","null","","","","","","","","","","","","",""
"","html-keyboard-response","317","337706","0.0-486.0","6vufgput","1536","864","","","","","","","","","","","489","idy","Diagnostic trial","","f","8","0","false","false","RIGHT","j","0","","LEFT","false","","",""
"","call-function","318","337707","0.0-488.0-0.0","6vufgput","","","","","","","","","","","","","","","","","","","","","","","","","","","","","",""
"","html-keyboard-response","319","338009","0.0-488.0-1.0","6vufgput","1536","864","","","","","","","","","","","null","Wrong","Feedback","","null","","","","","","","","","","","","",""
"","call-function","320","338010","0.0-488.0-2.0","6vufgput","","","","","","","","","","","","","","","","","","","","","","","","","","","","","",""
"","html-keyboard-response","321","338764","0.0-489.0","6vufgput","1536","864","","","","","","","","","","","null","+","Fixation - short","","null","","","","","","","","","","","","",""
"","html-keyboard-response","322","339150","0.0-490.0","6vufgput","1536","864","","","","","","","","","","","382","idy","Diagnostic trial","","j","8","1","false","true","LEFT","f","0","","LEFT","true","","",""
"","call-function","323","339152","0.0-492.0-0.0","6vufgput","","","","","","","","","","","","","","","","","","","","","","","","","","","","","",""
"","html-keyboard-response","324","339455","0.0-492.0-1.0","6vufgput","1536","864","","","","","","","","","","","null","Wrong","Feedback","","null","","","","","","","","","","","","",""
"","call-function","325","339455","0.0-492.0-2.0","6vufgput","","","","","","","","","","","","","","","","","","","","","","","","","","","","","",""
"","html-keyboard-response","326","340208","0.0-493.0","6vufgput","1536","864","","","","","","","","","","","null","+","Fixation - short","","null","","","","","","","","","","","","",""
"","html-keyboard-response","327","340704","0.0-494.0","6vufgput","1536","864","","","","","","","","","","","495","jil","Diagnostic trial","","j","8","2","false","false","RIGHT","j","1","","RIGHT","true","","",""
"","html-keyboard-response","328","341457","0.0-497.0","6vufgput","1536","864","","","","","","","","","","","null","+","Fixation - short","","null","","","","","","","","","","","","",""
"","html-keyboard-response","329","342073","0.0-498.0","6vufgput","1536","864","","","","","","","","","","","614","idy","Diagnostic trial","","f","8","3","false","true","LEFT","f","1","","LEFT","true","","",""
"","html-keyboard-response","330","342827","0.0-501.0","6vufgput","1536","864","","","","","","","","","","","null","+","Fixation - short","","null","","","","","","","","","","","","",""
"","html-keyboard-response","331","343432","0.0-502.0","6vufgput","1536","864","","","","","","","","","","","603","jil","Diagnostic trial","","j","8","4","false","false","RIGHT","j","1","","RIGHT","true","","",""
"","html-keyboard-response","332","344184","0.0-505.0","6vufgput","1536","864","","","","","","","","","","","null","+","Fixation - short","","null","","","","","","","","","","","","",""
"","html-keyboard-response","333","344973","0.0-506.0","6vufgput","1536","864","","","","","","","","","","","786","idy","Diagnostic trial","","j","8","5","false","false","RIGHT","j","1","","LEFT","false","","",""
"","html-keyboard-response","334","345726","0.0-509.0","6vufgput","1536","864","","","","","","","","","","","null","+","Fixation - short","","null","","","","","","","","","","","","",""
"","html-keyboard-response","335","346379","0.0-510.0","6vufgput","1536","864","","","","","","","","","","","651","jil","Diagnostic trial","","f","8","6","false","true","LEFT","f","1","","RIGHT","false","","",""
"","html-keyboard-response","336","347133","0.0-513.0","6vufgput","1536","864","","","","","","","","","","","null","+","Fixation - short","","null","","","","","","","","","","","","",""
"","html-keyboard-response","337","347808","0.0-514.0","6vufgput","1536","864","","","","","","","","","","","673","jil","Diagnostic trial","","j","8","7","false","false","RIGHT","j","1","","RIGHT","true","","",""
"","html-keyboard-response","338","348560","0.0-517.0","6vufgput","1536","864","","","","","","","","","","","null","+","Fixation - short","","null","","","","","","","","","","","","",""
"","html-keyboard-response","339","349318","0.0-518.0","6vufgput","1536","864","","","","","","","","","","","756","jil","Diagnostic trial","","j","8","8","false","false","RIGHT","j","1","","RIGHT","true","","",""
"","html-keyboard-response","340","350070","0.0-521.0","6vufgput","1536","864","","","","","","","","","","","null","+","Fixation - short","","null","","","","","","","","","","","","",""
"","html-keyboard-response","341","350823","0.0-522.0","6vufgput","1536","864","","","","","","","","","","","751","idy","Diagnostic trial","","j","8","9","false","false","RIGHT","j","1","","LEFT","false","","",""
"","html-keyboard-response","342","351577","0.0-525.0","6vufgput","1536","864","","","","","","","","","","","null","+","Fixation - short","","null","","","","","","","","","","","","",""
"","html-keyboard-response","343","352184","0.0-526.0","6vufgput","1536","864","","","","","","","","","","","605","jil","Diagnostic trial","","j","8","10","false","true","LEFT","f","0","","RIGHT","false","","",""
"","call-function","344","352185","0.0-528.0-0.0","6vufgput","","","","","","","","","","","","","","","","","","","","","","","","","","","","","",""
"","html-keyboard-response","345","352487","0.0-528.0-1.0","6vufgput","1536","864","","","","","","","","","","","null","Wrong","Feedback","","null","","","","","","","","","","","","",""
"","call-function","346","352488","0.0-528.0-2.0","6vufgput","","","","","","","","","","","","","","","","","","","","","","","","","","","","","",""
"","html-keyboard-response","347","353242","0.0-529.0","6vufgput","1536","864","","","","","","","","","","","null","+","Fixation - short","","null","","","","","","","","","","","","",""
"","html-keyboard-response","348","353949","0.0-530.0","6vufgput","1536","864","","","","","","","","","","","705","idy","Diagnostic trial","","f","8","11","false","true","LEFT","f","1","","LEFT","true","","",""
"","html-keyboard-response","349","354702","0.0-533.0","6vufgput","1536","864","","","","","","","","","","","null","+","Fixation - short","","null","","","","","","","","","","","","",""
"","html-keyboard-response","350","355405","0.0-534.0","6vufgput","1536","864","","","","","","","","","","","701","idy","Diagnostic trial","","f","8","12","false","true","LEFT","f","1","","LEFT","true","","",""
"","html-keyboard-response","351","356157","0.0-537.0","6vufgput","1536","864","","","","","","","","","","","null","+","Fixation - short","","null","","","","","","","","","","","","",""
"","html-keyboard-response","352","356776","0.0-538.0","6vufgput","1536","864","","","","","","","","","","","617","idy","Inducer trial","","j","8","","true","","","f","0","LEFT","","","","",""
"","call-function","353","356777","0.0-540.0-0.0","6vufgput","","","","","","","","","","","","","","","","","","","","","","","","","","","","","",""
"","html-keyboard-response","354","357078","0.0-540.0-1.0","6vufgput","1536","864","","","","","","","","","","","null","Wrong","Feedback","","null","","","","","","","","","","","","",""
"","call-function","355","357079","0.0-540.0-2.0","6vufgput","","","","","","","","","","","","","","","","","","","","","","","","","","","","","",""
"","html-keyboard-response","356","358581","0.0-541.0","6vufgput","1536","864","","","","","","","","","","","null","+","Fixation - long","","null","","","","","","","","","","","","",""
"","html-keyboard-response","357","360201","0.0-542.0","6vufgput","1536","864","","","","","","","","","","","1610","If tkb press LEFT | If hlb press RIGHT","Inducer instructions",""," ","9","","","","","","","","","","","",""
"","html-keyboard-response","358","360953","0.0-543.0","6vufgput","1536","864","","","","","","","","","","","null","+","Fixation - short","","null","","","","","","","","","","","","",""
"","html-keyboard-response","359","361482","0.0-544.0","6vufgput","1536","864","","","","","","","","","","","527","tkb","Diagnostic trial","","f","9","0","false","false","RIGHT","j","0","","LEFT","false","","",""
"","call-function","360","361483","0.0-546.0-0.0","6vufgput","","","","","","","","","","","","","","","","","","","","","","","","","","","","","",""
"","html-keyboard-response","361","361784","0.0-546.0-1.0","6vufgput","1536","864","","","","","","","","","","","null","Wrong","Feedback","","null","","","","","","","","","","","","",""
"","call-function","362","361785","0.0-546.0-2.0","6vufgput","","","","","","","","","","","","","","","","","","","","","","","","","","","","","",""
"","html-keyboard-response","363","362537","0.0-547.0","6vufgput","1536","864","","","","","","","","","","","null","+","Fixation - short","","null","","","","","","","","","","","","",""
"","html-keyboard-response","364","363344","0.0-548.0","6vufgput","1536","864","","","","","","","","","","","804","hlb","Diagnostic trial","","j","9","1","false","false","RIGHT","j","1","","RIGHT","true","","",""
"","html-keyboard-response","365","364097","0.0-551.0","6vufgput","1536","864","","","","","","","","","","","null","+","Fixation - short","","null","","","","","","","","","","","","",""
"","html-keyboard-response","366","364726","0.0-552.0","6vufgput","1536","864","","","","","","","","","","","627","tkb","Diagnostic trial","","j","9","2","false","false","RIGHT","j","1","","LEFT","false","","",""
"","html-keyboard-response","367","365478","0.0-555.0","6vufgput","1536","864","","","","","","","","","","","null","+","Fixation - short","","null","","","","","","","","","","","","",""
"","html-keyboard-response","368","366143","0.0-556.0","6vufgput","1536","864","","","","","","","","","","","664","tkb","Diagnostic trial","","j","9","3","false","false","RIGHT","j","1","","LEFT","false","","",""
"","html-keyboard-response","369","366895","0.0-559.0","6vufgput","1536","864","","","","","","","","","","","null","+","Fixation - short","","null","","","","","","","","","","","","",""
"","html-keyboard-response","370","367728","0.0-560.0","6vufgput","1536","864","","","","","","","","","","","833","hlb","Diagnostic trial","","f","9","4","false","true","LEFT","f","1","","RIGHT","false","","",""
"","html-keyboard-response","371","368480","0.0-563.0","6vufgput","1536","864","","","","","","","","","","","null","+","Fixation - short","","null","","","","","","","","","","","","",""
"","html-keyboard-response","372","369070","0.0-564.0","6vufgput","1536","864","","","","","","","","","","","588","hlb","Diagnostic trial","","f","9","5","false","true","LEFT","f","1","","RIGHT","false","","",""
"","html-keyboard-response","373","369824","0.0-567.0","6vufgput","1536","864","","","","","","","","","","","null","+","Fixation - short","","null","","","","","","","","","","","","",""
"","html-keyboard-response","374","370348","0.0-568.0","6vufgput","1536","864","","","","","","","","","","","522","tkb","Diagnostic trial","","j","9","6","false","false","RIGHT","j","1","","LEFT","false","","",""
"","html-keyboard-response","375","371101","0.0-571.0","6vufgput","1536","864","","","","","","","","","","","null","+","Fixation - short","","null","","","","","","","","","","","","",""
"","html-keyboard-response","376","371807","0.0-572.0","6vufgput","1536","864","","","","","","","","","","","705","hlb","Inducer trial","","j","9","","true","","","j","1","RIGHT","","","","",""
"","html-keyboard-response","377","373309","0.0-575.0","6vufgput","1536","864","","","","","","","","","","","null","+","Fixation - long","","null","","","","","","","","","","","","",""
"","html-keyboard-response","378","374535","0.0-576.0","6vufgput","1536","864","","","","","","","","","","","1225","If byy press LEFT | If fja press RIGHT","Inducer instructions",""," ","10","","","","","","","","","","","",""
"","html-keyboard-response","379","375290","0.0-577.0","6vufgput","1536","864","","","","","","","","","","","null","+","Fixation - short","","null","","","","","","","","","","","","",""
"","html-keyboard-response","380","375947","0.0-578.0","6vufgput","1536","864","","","","","","","","","","","656","byy","Diagnostic trial","","f","10","0","false","true","LEFT","f","1","","LEFT","true","","",""
"","html-keyboard-response","381","376699","0.0-581.0","6vufgput","1536","864","","","","","","","","","","","null","+","Fixation - short","","null","","","","","","","","","","","","",""
"","html-keyboard-response","382","377491","0.0-582.0","6vufgput","1536","864","","","","","","","","","","","790","fja","Diagnostic trial","","j","10","1","false","false","RIGHT","j","1","","RIGHT","true","","",""
"","html-keyboard-response","383","378243","0.0-585.0","6vufgput","1536","864","","","","","","","","","","","null","+","Fixation - short","","null","","","","","","","","","","","","",""
"","html-keyboard-response","384","378751","0.0-586.0","6vufgput","1536","864","","","","","","","","","","","507","fja","Diagnostic trial","","j","10","2","false","false","RIGHT","j","1","","RIGHT","true","","",""
"","html-keyboard-response","385","379503","0.0-589.0","6vufgput","1536","864","","","","","","","","","","","null","+","Fixation - short","","null","","","","","","","","","","","","",""
"","html-keyboard-response","386","379973","0.0-590.0","6vufgput","1536","864","","","","","","","","","","","469","fja","Diagnostic trial","","j","10","3","false","false","RIGHT","j","1","","RIGHT","true","","",""
"","html-keyboard-response","387","380725","0.0-593.0","6vufgput","1536","864","","","","","","","","","","","null","+","Fixation - short","","null","","","","","","","","","","","","",""
"","html-keyboard-response","388","381264","0.0-594.0","6vufgput","1536","864","","","","","","","","","","","537","fja","Inducer trial","","j","10","","true","","","j","1","RIGHT","","","","",""
"","html-keyboard-response","389","382767","0.0-597.0","6vufgput","1536","864","","","","","","","","","","","null","+","Fixation - long","","null","","","","","","","","","","","","",""
"","html-keyboard-response","390","384415","0.0-598.0","6vufgput","1536","864","","","","","","","","","","","1647","If jft press LEFT | If edc press RIGHT","Inducer instructions",""," ","11","","","","","","","","","","","",""
"","html-keyboard-response","391","385167","0.0-599.0","6vufgput","1536","864","","","","","","","","","","","null","+","Fixation - short","","null","","","","","","","","","","","","",""
"","html-keyboard-response","392","385632","0.0-600.0","6vufgput","1536","864","","","","","","","","","","","463","edc","Diagnostic trial","","j","11","0","false","true","LEFT","f","0","","RIGHT","false","","",""
"","call-function","393","385633","0.0-602.0-0.0","6vufgput","","","","","","","","","","","","","","","","","","","","","","","","","","","","","",""
"","html-keyboard-response","394","385935","0.0-602.0-1.0","6vufgput","1536","864","","","","","","","","","","","null","Wrong","Feedback","","null","","","","","","","","","","","","",""
"","call-function","395","385954","0.0-602.0-2.0","6vufgput","","","","","","","","","","","","","","","","","","","","","","","","","","","","","",""
"","html-keyboard-response","396","386706","0.0-603.0","6vufgput","1536","864","","","","","","","","","","","null","+","Fixation - short","","null","","","","","","","","","","","","",""
"","html-keyboard-response","397","387149","0.0-604.0","6vufgput","1536","864","","","","","","","","","","","441","edc","Diagnostic trial","","f","11","1","false","true","LEFT","f","1","","RIGHT","false","","",""
"","html-keyboard-response","398","387901","0.0-607.0","6vufgput","1536","864","","","","","","","","","","","null","+","Fixation - short","","null","","","","","","","","","","","","",""
"","html-keyboard-response","399","388356","0.0-608.0","6vufgput","1536","864","","","","","","","","","","","451","edc","Diagnostic trial","","f","11","2","false","true","LEFT","f","1","","RIGHT","false","","",""
"","html-keyboard-response","400","389107","0.0-611.0","6vufgput","1536","864","","","","","","","","","","","null","+","Fixation - short","","null","","","","","","","","","","","","",""
"","html-keyboard-response","401","389625","0.0-612.0","6vufgput","1536","864","","","","","","","","","","","516","jft","Diagnostic trial","","j","11","3","false","false","RIGHT","j","1","","LEFT","false","","",""
"","html-keyboard-response","402","390377","0.0-615.0","6vufgput","1536","864","","","","","","","","","","","null","+","Fixation - short","","null","","","","","","","","","","","","",""
"","html-keyboard-response","403","391156","0.0-616.0","6vufgput","1536","864","","","","","","","","","","","778","edc","Diagnostic trial","","j","11","4","false","false","RIGHT","j","1","","RIGHT","true","","",""
"","html-keyboard-response","404","391911","0.0-619.0","6vufgput","1536","864","","","","","","","","","","","null","+","Fixation - short","","null","","","","","","","","","","","","",""
"","html-keyboard-response","405","392545","0.0-620.0","6vufgput","1536","864","","","","","","","","","","","633","edc","Diagnostic trial","","f","11","5","false","true","LEFT","f","1","","RIGHT","false","","",""
"","html-keyboard-response","406","393297","0.0-623.0","6vufgput","1536","864","","","","","","","","","","","null","+","Fixation - short","","null","","","","","","","","","","","","",""
"","html-keyboard-response","407","393913","0.0-624.0","6vufgput","1536","864","","","","","","","","","","","614","edc","Diagnostic trial","","f","11","6","false","true","LEFT","f","1","","RIGHT","false","","",""
"","html-keyboard-response","408","394665","0.0-627.0","6vufgput","1536","864","","","","","","","","","","","null","+","Fixation - short","","null","","","","","","","","","","","","",""
"","html-keyboard-response","409","395223","0.0-628.0","6vufgput","1536","864","","","","","","","","","","","556","jft","Diagnostic trial","","j","11","7","false","false","RIGHT","j","1","","LEFT","false","","",""
"","html-keyboard-response","410","395977","0.0-631.0","6vufgput","1536","864","","","","","","","","","","","null","+","Fixation - short","","null","","","","","","","","","","","","",""
"","html-keyboard-response","411","396539","0.0-632.0","6vufgput","1536","864","","","","","","","","","","","560","jft","Diagnostic trial","","f","11","8","false","true","LEFT","f","1","","LEFT","true","","",""
"","html-keyboard-response","412","397292","0.0-635.0","6vufgput","1536","864","","","","","","","","","","","null","+","Fixation - short","","null","","","","","","","","","","","","",""
"","html-keyboard-response","413","397857","0.0-636.0","6vufgput","1536","864","","","","","","","","","","","563","jft","Diagnostic trial","","f","11","9","false","true","LEFT","f","1","","LEFT","true","","",""
"","html-keyboard-response","414","398609","0.0-639.0","6vufgput","1536","864","","","","","","","","","","","null","+","Fixation - short","","null","","","","","","","","","","","","",""
"","html-keyboard-response","415","399258","0.0-640.0","6vufgput","1536","864","","","","","","","","","","","647","jft","Diagnostic trial","","f","11","10","false","true","LEFT","f","1","","LEFT","true","","",""
"","html-keyboard-response","416","400010","0.0-643.0","6vufgput","1536","864","","","","","","","","","","","null","+","Fixation - short","","null","","","","","","","","","","","","",""
"","html-keyboard-response","417","400618","0.0-644.0","6vufgput","1536","864","","","","","","","","","","","607","jft","Diagnostic trial","","j","11","11","false","false","RIGHT","j","1","","LEFT","false","","",""
"","html-keyboard-response","418","401371","0.0-647.0","6vufgput","1536","864","","","","","","","","","","","null","+","Fixation - short","","null","","","","","","","","","","","","",""
"","html-keyboard-response","419","401981","0.0-648.0","6vufgput","1536","864","","","","","","","","","","","608","jft","Diagnostic trial","","f","11","12","false","true","LEFT","f","1","","LEFT","true","","",""
"","html-keyboard-response","420","402734","0.0-651.0","6vufgput","1536","864","","","","","","","","","","","null","+","Fixation - short","","null","","","","","","","","","","","","",""
"","html-keyboard-response","421","403623","0.0-652.0","6vufgput","1536","864","","","","","","","","","","","888","edc","Diagnostic trial","","f","11","13","false","true","LEFT","f","1","","RIGHT","false","","",""
"","html-keyboard-response","422","404375","0.0-655.0","6vufgput","1536","864","","","","","","","","","","","null","+","Fixation - short","","null","","","","","","","","","","","","",""
"","html-keyboard-response","423","405048","0.0-656.0","6vufgput","1536","864","","","","","","","","","","","672","jft","Diagnostic trial","","j","11","14","false","false","RIGHT","j","1","","LEFT","false","","",""
"","html-keyboard-response","424","405801","0.0-659.0","6vufgput","1536","864","","","","","","","","","","","null","+","Fixation - short","","null","","","","","","","","","","","","",""
"","html-keyboard-response","425","406481","0.0-660.0","6vufgput","1536","864","","","","","","","","","","","678","edc","Inducer trial","","j","11","","true","","","j","1","RIGHT","","","","",""
"","html-keyboard-response","426","407983","0.0-663.0","6vufgput","1536","864","","","","","","","","","","","null","+","Fixation - long","","null","","","","","","","","","","","","",""
"","html-keyboard-response","427","410231","0.0-664.0","6vufgput","1536","864","","","","","","","","","","","2244","If amb press LEFT | If cta press RIGHT","Inducer instructions",""," ","12","","","","","","","","","","","",""
"","html-keyboard-response","428","410984","0.0-665.0","6vufgput","1536","864","","","","","","","","","","","null","+","Fixation - short","","null","","","","","","","","","","","","",""
"","html-keyboard-response","429","411640","0.0-666.0","6vufgput","1536","864","","","","","","","","","","","655","amb","Diagnostic trial","","f","12","0","false","true","LEFT","f","1","","LEFT","true","","",""
"","html-keyboard-response","430","412392","0.0-669.0","6vufgput","1536","864","","","","","","","","","","","null","+","Fixation - short","","null","","","","","","","","","","","","",""
"","html-keyboard-response","431","413037","0.0-670.0","6vufgput","1536","864","","","","","","","","","","","644","cta","Diagnostic trial","","j","12","1","false","false","RIGHT","j","1","","RIGHT","true","","",""
"","html-keyboard-response","432","413789","0.0-673.0","6vufgput","1536","864","","","","","","","","","","","null","+","Fixation - short","","null","","","","","","","","","","","","",""
"","html-keyboard-response","433","414466","0.0-674.0","6vufgput","1536","864","","","","","","","","","","","676","cta","Diagnostic trial","","f","12","2","false","true","LEFT","f","1","","RIGHT","false","","",""
"","html-keyboard-response","434","415218","0.0-677.0","6vufgput","1536","864","","","","","","","","","","","null","+","Fixation - short","","null","","","","","","","","","","","","",""
"","html-keyboard-response","435","416015","0.0-678.0","6vufgput","1536","864","","","","","","","","","","","795","cta","Diagnostic trial","","f","12","3","false","true","LEFT","f","1","","RIGHT","false","","",""
"","html-keyboard-response","436","416767","0.0-681.0","6vufgput","1536","864","","","","","","","","","","","null","+","Fixation - short","","null","","","","","","","","","","","","",""
"","html-keyboard-response","437","417433","0.0-682.0","6vufgput","1536","864","","","","","","","","","","","664","cta","Diagnostic trial","","j","12","4","false","false","RIGHT","j","1","","RIGHT","true","","",""
"","html-keyboard-response","438","418191","0.0-685.0","6vufgput","1536","864","","","","","","","","","","","null","+","Fixation - short","","null","","","","","","","","","","","","",""
"","html-keyboard-response","439","418728","0.0-686.0","6vufgput","1536","864","","","","","","","","","","","535","cta","Diagnostic trial","","j","12","5","false","false","RIGHT","j","1","","RIGHT","true","","",""
"","html-keyboard-response","440","419481","0.0-689.0","6vufgput","1536","864","","","","","","","","","","","null","+","Fixation - short","","null","","","","","","","","","","","","",""
"","html-keyboard-response","441","420061","0.0-690.0","6vufgput","1536","864","","","","","","","","","","","579","cta","Diagnostic trial","","j","12","6","false","false","RIGHT","j","1","","RIGHT","true","","",""
"","html-keyboard-response","442","420814","0.0-693.0","6vufgput","1536","864","","","","","","","","","","","null","+","Fixation - short","","null","","","","","","","","","","","","",""
"","html-keyboard-response","443","421370","0.0-694.0","6vufgput","1536","864","","","","","","","","","","","554","cta","Inducer trial","","j","12","","true","","","j","1","RIGHT","","","","",""
"","html-keyboard-response","444","422872","0.0-697.0","6vufgput","1536","864","","","","","","","","","","","null","+","Fixation - long","","null","","","","","","","","","","","","",""
"","html-keyboard-response","445","426379","0.0-698.0","6vufgput","1536","864","","","","","","","","","","","3505","If hhd press LEFT | If mda press RIGHT","Inducer instructions",""," ","13","","","","","","","","","","","",""
"","html-keyboard-response","446","427131","0.0-699.0","6vufgput","1536","864","","","","","","","","","","","null","+","Fixation - short","","null","","","","","","","","","","","","",""
"","html-keyboard-response","447","427740","0.0-700.0","6vufgput","1536","864","","","","","","","","","","","606","mda","Diagnostic trial","","f","13","0","false","true","LEFT","f","1","","RIGHT","false","","",""
"","html-keyboard-response","448","428493","0.0-703.0","6vufgput","1536","864","","","","","","","","","","","null","+","Fixation - short","","null","","","","","","","","","","","","",""
"","html-keyboard-response","449","428988","0.0-704.0","6vufgput","1536","864","","","","","","","","","","","493","mda","Diagnostic trial","","j","13","1","false","false","RIGHT","j","1","","RIGHT","true","","",""
"","html-keyboard-response","450","429741","0.0-707.0","6vufgput","1536","864","","","","","","","","","","","null","+","Fixation - short","","null","","","","","","","","","","","","",""
"","html-keyboard-response","451","430437","0.0-708.0","6vufgput","1536","864","","","","","","","","","","","695","hhd","Diagnostic trial","","j","13","2","false","false","RIGHT","j","1","","LEFT","false","","",""
"","html-keyboard-response","452","431190","0.0-711.0","6vufgput","1536","864","","","","","","","","","","","null","+","Fixation - short","","null","","","","","","","","","","","","",""
"","html-keyboard-response","453","431821","0.0-712.0","6vufgput","1536","864","","","","","","","","","","","629","mda","Diagnostic trial","","f","13","3","false","true","LEFT","f","1","","RIGHT","false","","",""
"","html-keyboard-response","454","432573","0.0-715.0","6vufgput","1536","864","","","","","","","","","","","null","+","Fixation - short","","null","","","","","","","","","","","","",""
"","html-keyboard-response","455","433192","0.0-716.0","6vufgput","1536","864","","","","","","","","","","","618","mda","Inducer trial","","j","13","","true","","","j","1","RIGHT","","","","",""
"","html-keyboard-response","456","434700","0.0-719.0","6vufgput","1536","864","","","","","","","","","","","null","+","Fixation - long","","null","","","","","","","","","","","","",""
"","html-keyboard-response","457","435568","0.0-720.0","6vufgput","1536","864","","","","","","","","","","","866","If cui press LEFT | If rpw press RIGHT","Inducer instructions",""," ","14","","","","","","","","","","","",""
"","html-keyboard-response","458","436320","0.0-721.0","6vufgput","1536","864","","","","","","","","","","","null","+","Fixation - short","","null","","","","","","","","","","","","",""
"","html-keyboard-response","459","437302","0.0-722.0","6vufgput","1536","864","","","","","","","","","","","980","rpw","Diagnostic trial","","f","14","0","false","true","LEFT","f","1","","RIGHT","false","","",""
"","html-keyboard-response","460","438055","0.0-725.0","6vufgput","1536","864","","","","","","","","","","","null","+","Fixation - short","","null","","","","","","","","","","","","",""
"","html-keyboard-response","461","438658","0.0-726.0","6vufgput","1536","864","","","","","","","","","","","601","cui","Diagnostic trial","","j","14","1","false","false","RIGHT","j","1","","LEFT","false","","",""
"","html-keyboard-response","462","439411","0.0-729.0","6vufgput","1536","864","","","","","","","","","","","null","+","Fixation - short","","null","","","","","","","","","","","","",""
"","html-keyboard-response","463","440047","0.0-730.0","6vufgput","1536","864","","","","","","","","","","","635","cui","Diagnostic trial","","f","14","2","false","true","LEFT","f","1","","LEFT","true","","",""
"","html-keyboard-response","464","440801","0.0-733.0","6vufgput","1536","864","","","","","","","","","","","null","+","Fixation - short","","null","","","","","","","","","","","","",""
"","html-keyboard-response","465","441409","0.0-734.0","6vufgput","1536","864","","","","","","","","","","","605","cui","Diagnostic trial","","j","14","3","false","false","RIGHT","j","1","","LEFT","false","","",""
"","html-keyboard-response","466","442162","0.0-737.0","6vufgput","1536","864","","","","","","","","","","","null","+","Fixation - short","","null","","","","","","","","","","","","",""
"","html-keyboard-response","467","442873","0.0-738.0","6vufgput","1536","864","","","","","","","","","","","709","rpw","Diagnostic trial","","j","14","4","false","false","RIGHT","j","1","","RIGHT","true","","",""
"","html-keyboard-response","468","443626","0.0-741.0","6vufgput","1536","864","","","","","","","","","","","null","+","Fixation - short","","null","","","","","","","","","","","","",""
"","html-keyboard-response","469","444398","0.0-742.0","6vufgput","1536","864","","","","","","","","","","","770","cui","Inducer trial","","j","14","","true","","","f","0","LEFT","","","","",""
"","call-function","470","444399","0.0-744.0-0.0","6vufgput","","","","","","","","","","","","","","","","","","","","","","","","","","","","","",""
"","html-keyboard-response","471","444701","0.0-744.0-1.0","6vufgput","1536","864","","","","","","","","","","","null","Wrong","Feedback","","null","","","","","","","","","","","","",""
"","call-function","472","444702","0.0-744.0-2.0","6vufgput","","","","","","","","","","","","","","","","","","","","","","","","","","","","","",""
"","html-keyboard-response","473","446204","0.0-745.0","6vufgput","1536","864","","","","","","","","","","","null","+","Fixation - long","","null","","","","","","","","","","","","",""
"","html-keyboard-response","474","447808","0.0-746.0","6vufgput","1536","864","","","","","","","","","","","1602","If jlm press LEFT | If bsh press RIGHT","Inducer instructions",""," ","15","","","","","","","","","","","",""
"","html-keyboard-response","475","448560","0.0-747.0","6vufgput","1536","864","","","","","","","","","","","null","+","Fixation - short","","null","","","","","","","","","","","","",""
"","html-keyboard-response","476","449154","0.0-748.0","6vufgput","1536","864","","","","","","","","","","","590","bsh","Diagnostic trial","","j","15","0","false","false","RIGHT","j","1","","RIGHT","true","","",""
"","html-keyboard-response","477","449907","0.0-751.0","6vufgput","1536","864","","","","","","","","","","","null","+","Fixation - short","","null","","","","","","","","","","","","",""
"","html-keyboard-response","478","450455","0.0-752.0","6vufgput","1536","864","","","","","","","","","","","546","jlm","Diagnostic trial","","j","15","1","false","false","RIGHT","j","1","","LEFT","false","","",""
"","html-keyboard-response","479","451207","0.0-755.0","6vufgput","1536","864","","","","","","","","","","","null","+","Fixation - short","","null","","","","","","","","","","","","",""
"","html-keyboard-response","480","451637","0.0-756.0","6vufgput","1536","864","","","","","","","","","","","428","jlm","Diagnostic trial","","j","15","2","false","false","RIGHT","j","1","","LEFT","false","","",""
"","html-keyboard-response","481","452389","0.0-759.0","6vufgput","1536","864","","","","","","","","","","","null","+","Fixation - short","","null","","","","","","","","","","","","",""
"","html-keyboard-response","482","452958","0.0-760.0","6vufgput","1536","864","","","","","","","","","","","567","bsh","Diagnostic trial","","f","15","3","false","true","LEFT","f","1","","RIGHT","false","","",""
"","html-keyboard-response","483","453711","0.0-763.0","6vufgput","1536","864","","","","","","","","","","","null","+","Fixation - short","","null","","","","","","","","","","","","",""
"","html-keyboard-response","484","454154","0.0-764.0","6vufgput","1536","864","","","","","","","","","","","441","bsh","Diagnostic trial","","f","15","4","false","true","LEFT","f","1","","RIGHT","false","","",""
"","html-keyboard-response","485","454905","0.0-767.0","6vufgput","1536","864","","","","","","","","","","","null","+","Fixation - short","","null","","","","","","","","","","","","",""
"","html-keyboard-response","486","455557","0.0-768.0","6vufgput","1536","864","","","","","","","","","","","650","jlm","Diagnostic trial","","f","15","5","false","true","LEFT","f","1","","LEFT","true","","",""
"","html-keyboard-response","487","456309","0.0-771.0","6vufgput","1536","864","","","","","","","","","","","null","+","Fixation - short","","null","","","","","","","","","","","","",""
"","html-keyboard-response","488","456912","0.0-772.0","6vufgput","1536","864","","","","","","","","","","","601","jlm","Diagnostic trial","","j","15","6","false","false","RIGHT","j","1","","LEFT","false","","",""
"","html-keyboard-response","489","457664","0.0-775.0","6vufgput","1536","864","","","","","","","","","","","null","+","Fixation - short","","null","","","","","","","","","","","","",""
"","html-keyboard-response","490","458309","0.0-776.0","6vufgput","1536","864","","","","","","","","","","","644","jlm","Diagnostic trial","","j","15","7","false","false","RIGHT","j","1","","LEFT","false","","",""
"","html-keyboard-response","491","459061","0.0-779.0","6vufgput","1536","864","","","","","","","","","","","null","+","Fixation - short","","null","","","","","","","","","","","","",""
"","html-keyboard-response","492","459741","0.0-780.0","6vufgput","1536","864","","","","","","","","","","","678","bsh","Diagnostic trial","","f","15","8","false","true","LEFT","f","1","","RIGHT","false","","",""
"","html-keyboard-response","493","460493","0.0-783.0","6vufgput","1536","864","","","","","","","","","","","null","+","Fixation - short","","null","","","","","","","","","","","","",""
"","html-keyboard-response","494","461173","0.0-784.0","6vufgput","1536","864","","","","","","","","","","","677","jlm","Diagnostic trial","","f","15","9","false","true","LEFT","f","1","","LEFT","true","","",""
"","html-keyboard-response","495","461929","0.0-787.0","6vufgput","1536","864","","","","","","","","","","","null","+","Fixation - short","","null","","","","","","","","","","","","",""
"","html-keyboard-response","496","462379","0.0-788.0","6vufgput","1536","864","","","","","","","","","","","449","jlm","Diagnostic trial","","j","15","10","false","false","RIGHT","j","1","","LEFT","false","","",""
"","html-keyboard-response","497","463131","0.0-791.0","6vufgput","1536","864","","","","","","","","","","","null","+","Fixation - short","","null","","","","","","","","","","","","",""
"","html-keyboard-response","498","463893","0.0-792.0","6vufgput","1536","864","","","","","","","","","","","760","bsh","Diagnostic trial","","j","15","11","false","false","RIGHT","j","1","","RIGHT","true","","",""
"","html-keyboard-response","499","464646","0.0-795.0","6vufgput","1536","864","","","","","","","","","","","null","+","Fixation - short","","null","","","","","","","","","","","","",""
"","html-keyboard-response","500","465135","0.0-796.0","6vufgput","1536","864","","","","","","","","","","","486","jlm","Diagnostic trial","","j","15","12","false","false","RIGHT","j","1","","LEFT","false","","",""
"","html-keyboard-response","501","465887","0.0-799.0","6vufgput","1536","864","","","","","","","","","","","null","+","Fixation - short","","null","","","","","","","","","","","","",""
"","html-keyboard-response","502","466362","0.0-800.0","6vufgput","1536","864","","","","","","","","","","","472","jlm","Inducer trial","","j","15","","true","","","f","0","LEFT","","","","",""
"","call-function","503","466363","0.0-802.0-0.0","6vufgput","","","","","","","","","","","","","","","","","","","","","","","","","","","","","",""
"","html-keyboard-response","504","466665","0.0-802.0-1.0","6vufgput","1536","864","","","","","","","","","","","null","Wrong","Feedback","","null","","","","","","","","","","","","",""
"","call-function","505","466666","0.0-802.0-2.0","6vufgput","","","","","","","","","","","","","","","","","","","","","","","","","","","","","",""
"","html-keyboard-response","506","468167","0.0-803.0","6vufgput","1536","864","","","","","","","","","","","null","+","Fixation - long","","null","","","","","","","","","","","","",""
"","html-keyboard-response","507","471654","0.0-804.0","6vufgput","1536","864","","","","","","","","","","","3483","If uus press LEFT | If adj press RIGHT","Inducer instructions",""," ","16","","","","","","","","","","","",""
"","html-keyboard-response","508","472406","0.0-805.0","6vufgput","1536","864","","","","","","","","","","","null","+","Fixation - short","","null","","","","","","","","","","","","",""
