"value","trial_type","trial_index","time_elapsed","internal_node_id","id","width","height","webaudio","browser","browser_version","mobile","os","fullscreen","vsync_rate","webcam","microphone","view_history","rt","stimulus","trial_info","success","response","inducer_run","diagnostic_run","inducer_trial","italic","correct_diag_response_side","correct_response_key","correct_response","correct_indu_response_side","correct_inducer_response_side","congruent","accuracy","open_feedback","interactive"
"","call-function","0","4","0.0-0.0","ffscwef9","","","","","","","","","","","","","","","","","","","","","","","","","","","","","",""
"","browser-check","1","999","0.0-1.0","ffscwef9","1366","633","true","chrome","120.0.0","false","Windows 10","true","60.93","true","true","","","","","","","","","","","","","","","","","","",""
"","instructions","2","66483","0.0-2.0","ffscwef9","","","","","","","","","","","","[{""page_index"":0,""viewing_time"":55238},{""page_index"":1,""viewing_time"":8285},{""page_index"":2,""viewing_time"":1960}]","65486","The experiment and consent","The experiment and consent","","","","","","","","","","","","","","",""
"","fullscreen","3","70774","0.0-3.0","ffscwef9","1366","768","","","","","","","","","","","3266","","Full screen","true","","","","","","","","","","","","","",""
"","instructions","4","84348","0.0-4.0","ffscwef9","1366","768","","","","","","","","","","[{""page_index"":0,""viewing_time"":7991},{""page_index"":1,""viewing_time"":5577}]","13570","Instructions","Basic overview explanation","","","","","","","","","","","","","","",""
"","html-keyboard-response","5","89437","0.0-5.0","ffscwef9","1366","768","","","","","","","","","","","3572","If italic press LEFT | If upright press RIGHT","Diagnostic instructions",""," ","","","","","","","","","","","","",""
"","html-keyboard-response","6","90200","0.0-6.0","ffscwef9","1366","768","","","","","","","","","","","null","+","Fixation - short","","null","","","","","","","","","","","","",""
"","html-keyboard-response","7","90807","0.0-7.0","ffscwef9","1366","768","","","","","","","","","","","605","idy","Practice diganostic trial","","j","practice","0","false","0","RIGHT","j","1","","","","","",""
"","html-keyboard-response","8","91571","0.0-10.0","ffscwef9","1366","768","","","","","","","","","","","null","+","Fixation - short","","null","","","","","","","","","","","","",""
"","html-keyboard-response","9","91938","0.0-11.0","ffscwef9","1366","768","","","","","","","","","","","364","idy","Practice diganostic trial","","j","practice","1","false","0","RIGHT","j","1","","","","","",""
"","html-keyboard-response","10","92694","0.0-14.0","ffscwef9","1366","768","","","","","","","","","","","null","+","Fixation - short","","null","","","","","","","","","","","","",""
"","html-keyboard-response","11","93176","0.0-15.0","ffscwef9","1366","768","","","","","","","","","","","480","ydi","Practice diganostic trial","","j","practice","2","false","0","RIGHT","j","1","","","","","",""
"","html-keyboard-response","12","93943","0.0-18.0","ffscwef9","1366","768","","","","","","","","","","","null","+","Fixation - short","","null","","","","","","","","","","","","",""
"","html-keyboard-response","13","94361","0.0-19.0","ffscwef9","1366","768","","","","","","","","","","","416","idy","Practice diganostic trial","","f","practice","3","false","1","LEFT","f","1","","","","","",""
"","html-keyboard-response","14","95116","0.0-22.0","ffscwef9","1366","768","","","","","","","","","","","null","+","Fixation - short","","null","","","","","","","","","","","","",""
"","html-keyboard-response","15","95595","0.0-23.0","ffscwef9","1366","768","","","","","","","","","","","476","ydi","Practice diganostic trial","","j","practice","4","false","0","RIGHT","j","1","","","","","",""
"","html-keyboard-response","16","96356","0.0-26.0","ffscwef9","1366","768","","","","","","","","","","","null","+","Fixation - short","","null","","","","","","","","","","","","",""
"","html-keyboard-response","17","96721","0.0-27.0","ffscwef9","1366","768","","","","","","","","","","","362","idy","Practice diganostic trial","","f","practice","5","false","1","LEFT","f","1","","","","","",""
"","html-keyboard-response","18","97484","0.0-30.0","ffscwef9","1366","768","","","","","","","","","","","null","+","Fixation - short","","null","","","","","","","","","","","","",""
"","html-keyboard-response","19","97837","0.0-31.0","ffscwef9","1366","768","","","","","","","","","","","351","ydi","Practice diganostic trial","","f","practice","6","false","1","LEFT","f","1","","","","","",""
"","html-keyboard-response","20","98591","0.0-34.0","ffscwef9","1366","768","","","","","","","","","","","null","+","Fixation - short","","null","","","","","","","","","","","","",""
"","html-keyboard-response","21","99134","0.0-35.0","ffscwef9","1366","768","","","","","","","","","","","541","ydi","Practice diganostic trial","","j","practice","7","false","0","RIGHT","j","1","","","","","",""
"","html-keyboard-response","22","99890","0.0-38.0","ffscwef9","1366","768","","","","","","","","","","","null","+","Fixation - short","","null","","","","","","","","","","","","",""
"","html-keyboard-response","23","100269","0.0-39.0","ffscwef9","1366","768","","","","","","","","","","","377","ydi","Practice diganostic trial","","f","practice","8","false","1","LEFT","f","1","","","","","",""
"","html-keyboard-response","24","101028","0.0-42.0","ffscwef9","1366","768","","","","","","","","","","","null","+","Fixation - short","","null","","","","","","","","","","","","",""
"","html-keyboard-response","25","101442","0.0-43.0","ffscwef9","1366","768","","","","","","","","","","","412","ydi","Practice diganostic trial","","f","practice","9","false","1","LEFT","f","1","","","","","",""
"","html-keyboard-response","26","102197","0.0-46.0","ffscwef9","1366","768","","","","","","","","","","","null","+","Fixation - short","","null","","","","","","","","","","","","",""
"","html-keyboard-response","27","102754","0.0-47.0","ffscwef9","1366","768","","","","","","","","","","","555","ydi","Practice diganostic trial","","j","practice","10","false","0","RIGHT","j","1","","","","","",""
"","html-keyboard-response","28","103508","0.0-50.0","ffscwef9","1366","768","","","","","","","","","","","null","+","Fixation - short","","null","","","","","","","","","","","","",""
"","html-keyboard-response","29","103966","0.0-51.0","ffscwef9","1366","768","","","","","","","","","","","456","idy","Practice diganostic trial","","f","practice","11","false","1","LEFT","f","1","","","","","",""
"","html-keyboard-response","30","104729","0.0-54.0","ffscwef9","1366","768","","","","","","","","","","","null","+","Fixation - short","","null","","","","","","","","","","","","",""
"","html-keyboard-response","31","105153","0.0-55.0","ffscwef9","1366","768","","","","","","","","","","","422","idy","Practice diganostic trial","","f","practice","12","false","1","LEFT","f","1","","","","","",""
"","html-keyboard-response","32","105917","0.0-58.0","ffscwef9","1366","768","","","","","","","","","","","null","+","Fixation - short","","null","","","","","","","","","","","","",""
"","html-keyboard-response","33","106337","0.0-59.0","ffscwef9","1366","768","","","","","","","","","","","417","ydi","Practice diganostic trial","","f","practice","13","false","1","LEFT","f","1","","","","","",""
"","html-keyboard-response","34","107094","0.0-62.0","ffscwef9","1366","768","","","","","","","","","","","null","+","Fixation - short","","null","","","","","","","","","","","","",""
"","html-keyboard-response","35","107502","0.0-63.0","ffscwef9","1366","768","","","","","","","","","","","406","idy","Practice diganostic trial","","j","practice","14","false","0","RIGHT","j","1","","","","","",""
"","html-keyboard-response","36","108264","0.0-66.0","ffscwef9","1366","768","","","","","","","","","","","null","+","Fixation - short","","null","","","","","","","","","","","","",""
"","html-keyboard-response","37","108625","0.0-67.0","ffscwef9","1366","768","","","","","","","","","","","359","ydi","Practice diganostic trial","","j","practice","15","false","0","RIGHT","j","1","","","","","",""
"","html-keyboard-response","38","109391","0.0-70.0","ffscwef9","1366","768","","","","","","","","","","","null","+","Fixation - short","","null","","","","","","","","","","","","",""
"","instructions","39","113005","0.0-71.0","ffscwef9","1366","768","","","","","","","","","","[{""page_index"":0,""viewing_time"":3612}]","3612","Instructions","Final experiment explanation","","","","","","","","","","","","","","",""
"","html-keyboard-response","40","118156","0.0-72.0","ffscwef9","1366","768","","","","","","","","","","","3645","If cmj press LEFT | If mda press RIGHT","Practice inducer instructions",""," ","practice","","","","","","","","","","","",""
"","html-keyboard-response","41","118781","0.0-73.0","ffscwef9","1366","768","","","","","","","","","","","621","","Practice inducer trial","","j","practice","","true","","","j","1","RIGHT","","","","",""
"","html-keyboard-response","42","119537","0.0-76.0","ffscwef9","1366","768","","","","","","","","","","","null","+","Fixation - short","","null","","","","","","","","","","","","",""
"","html-keyboard-response","43","123101","0.0-77.0","ffscwef9","1366","768","","","","","","","","","","","3562","If yoy press LEFT | If tgf press RIGHT","Practice inducer instructions",""," ","practice","","","","","","","","","","","",""
"","html-keyboard-response","44","123926","0.0-78.0","ffscwef9","1366","768","","","","","","","","","","","823","","Practice inducer trial","","j","practice","","true","","","j","1","RIGHT","","","","",""
"","html-keyboard-response","45","124689","0.0-81.0","ffscwef9","1366","768","","","","","","","","","","","null","+","Fixation - short","","null","","","","","","","","","","","","",""
"","html-keyboard-response","46","126872","0.0-82.0","ffscwef9","1366","768","","","","","","","","","","","2181","If efg press LEFT | If pte press RIGHT","Practice inducer instructions",""," ","practice","","","","","","","","","","","",""
"","html-keyboard-response","47","127508","0.0-83.0","ffscwef9","1366","768","","","","","","","","","","","634","","Practice inducer trial","","f","practice","","true","","","f","1","LEFT","","","","",""
"","html-keyboard-response","48","128265","0.0-86.0","ffscwef9","1366","768","","","","","","","","","","","null","+","Fixation - short","","null","","","","","","","","","","","","",""
"","html-keyboard-response","49","128953","0.0-87.0","ffscwef9","1366","768","","","","","","","","","","","686","If pxv press LEFT | If ecl press RIGHT","Practice inducer instructions",""," ","practice","","","","","","","","","","","",""
"","html-keyboard-response","50","129758","0.0-88.0","ffscwef9","1366","768","","","","","","","","","","","800","","Practice inducer trial","","f","practice","","true","","","f","1","LEFT","","","","",""
"","html-keyboard-response","51","130528","0.0-91.0","ffscwef9","1366","768","","","","","","","","","","","null","+","Fixation - short","","null","","","","","","","","","","","","",""
"","html-keyboard-response","52","131001","0.0-92.0","ffscwef9","1366","768","","","","","","","","","","","470","If epy press LEFT | If lpn press RIGHT","Practice inducer instructions",""," ","practice","","","","","","","","","","","",""
"","html-keyboard-response","53","131582","0.0-93.0","ffscwef9","1366","768","","","","","","","","","","","579","","Practice inducer trial","","f","practice","","true","","","f","1","LEFT","","","","",""
"","html-keyboard-response","54","132338","0.0-96.0","ffscwef9","1366","768","","","","","","","","","","","null","+","Fixation - short","","null","","","","","","","","","","","","",""
"","html-keyboard-response","55","132851","0.0-97.0","ffscwef9","1366","768","","","","","","","","","","","511","If afp press LEFT | If amb press RIGHT","Practice inducer instructions",""," ","practice","","","","","","","","","","","",""
"","html-keyboard-response","56","133653","0.0-98.0","ffscwef9","1366","768","","","","","","","","","","","800","","Practice inducer trial","","j","practice","","true","","","j","1","RIGHT","","","","",""
"","html-keyboard-response","57","134411","0.0-101.0","ffscwef9","1366","768","","","","","","","","","","","null","+","Fixation - short","","null","","","","","","","","","","","","",""
"","html-keyboard-response","58","139919","0.0-102.0","ffscwef9","1366","768","","","","","","","","","","","5505","End practice","End of practice",""," ","","","","","","","","","","","","",""
"","html-keyboard-response","59","141424","0.0-103.0","ffscwef9","1366","768","","","","","","","","","","","null","+","Fixation - long","","null","","","","","","","","","","","","",""
"","html-keyboard-response","60","144172","0.0-104.0","ffscwef9","1366","768","","","","","","","","","","","2746","If imm press LEFT | If wab press RIGHT","Inducer instructions",""," ","0","","","","","","","","","","","",""
"","html-keyboard-response","61","144938","0.0-105.0","ffscwef9","1366","768","","","","","","","","","","","null","+","Fixation - short","","null","","","","","","","","","","","","",""
"","html-keyboard-response","62","145510","0.0-106.0","ffscwef9","1366","768","","","","","","","","","","","569","imm","Diagnostic trial","","f","0","0","false","true","LEFT","f","1","","LEFT","true","","",""
"","html-keyboard-response","63","146264","0.0-109.0","ffscwef9","1366","768","","","","","","","","","","","null","+","Fixation - short","","null","","","","","","","","","","","","",""
"","html-keyboard-response","64","147169","0.0-110.0","ffscwef9","1366","768","","","","","","","","","","","904","imm","Diagnostic trial","","f","0","1","false","true","LEFT","f","1","","LEFT","true","","",""
"","html-keyboard-response","65","147934","0.0-113.0","ffscwef9","1366","768","","","","","","","","","","","null","+","Fixation - short","","null","","","","","","","","","","","","",""
"","html-keyboard-response","66","148450","0.0-114.0","ffscwef9","1366","768","","","","","","","","","","","515","imm","Diagnostic trial","","j","0","2","false","false","RIGHT","j","1","","LEFT","false","","",""
"","html-keyboard-response","67","149215","0.0-117.0","ffscwef9","1366","768","","","","","","","","","","","null","+","Fixation - short","","null","","","","","","","","","","","","",""
"","html-keyboard-response","68","150000","0.0-118.0","ffscwef9","1366","768","","","","","","","","","","","782","imm","Diagnostic trial","","j","0","3","false","false","RIGHT","j","1","","LEFT","false","","",""
"","html-keyboard-response","69","150758","0.0-121.0","ffscwef9","1366","768","","","","","","","","","","","null","+","Fixation - short","","null","","","","","","","","","","","","",""
"","html-keyboard-response","70","151700","0.0-122.0","ffscwef9","1366","768","","","","","","","","","","","940","wab","Diagnostic trial","","j","0","4","false","false","RIGHT","j","1","","RIGHT","true","","",""
"","html-keyboard-response","71","152459","0.0-125.0","ffscwef9","1366","768","","","","","","","","","","","null","+","Fixation - short","","null","","","","","","","","","","","","",""
"","html-keyboard-response","72","153806","0.0-126.0","ffscwef9","1366","768","","","","","","","","","","","1343","wab","Inducer trial","","j","0","","true","","","j","1","RIGHT","","","","",""
"","html-keyboard-response","73","155309","0.0-129.0","ffscwef9","1366","768","","","","","","","","","","","null","+","Fixation - long","","null","","","","","","","","","","","","",""
"","html-keyboard-response","74","157813","0.0-130.0","ffscwef9","1366","768","","","","","","","","","","","2501","If bgi press LEFT | If xlv press RIGHT","Inducer instructions",""," ","1","","","","","","","","","","","",""
"","html-keyboard-response","75","158580","0.0-131.0","ffscwef9","1366","768","","","","","","","","","","","null","+","Fixation - short","","null","","","","","","","","","","","","",""
"","html-keyboard-response","76","159401","0.0-132.0","ffscwef9","1366","768","","","","","","","","","","","820","xlv","Diagnostic trial","","f","1","0","false","true","LEFT","f","1","","RIGHT","false","","",""
"","html-keyboard-response","77","160159","0.0-135.0","ffscwef9","1366","768","","","","","","","","","","","null","+","Fixation - short","","null","","","","","","","","","","","","",""
"","html-keyboard-response","78","161691","0.0-136.0","ffscwef9","1366","768","","","","","","","","","","","1529","bgi","Diagnostic trial","","j","1","1","false","true","LEFT","f","0","","LEFT","true","","",""
"","call-function","79","161693","0.0-138.0-0.0","ffscwef9","","","","","","","","","","","","","","","","","","","","","","","","","","","","","",""
"","html-keyboard-response","80","162009","0.0-138.0-1.0","ffscwef9","1366","768","","","","","","","","","","","null","Wrong","Feedback","","null","","","","","","","","","","","","",""
"","call-function","81","162011","0.0-138.0-2.0","ffscwef9","","","","","","","","","","","","","","","","","","","","","","","","","","","","","",""
"","html-keyboard-response","82","162764","0.0-139.0","ffscwef9","1366","768","","","","","","","","","","","null","+","Fixation - short","","null","","","","","","","","","","","","",""
"","html-keyboard-response","83","163440","0.0-140.0","ffscwef9","1366","768","","","","","","","","","","","674","xlv","Diagnostic trial","","f","1","2","false","true","LEFT","f","1","","RIGHT","false","","",""
"","html-keyboard-response","84","164205","0.0-143.0","ffscwef9","1366","768","","","","","","","","","","","null","+","Fixation - short","","null","","","","","","","","","","","","",""
"","html-keyboard-response","85","165371","0.0-144.0","ffscwef9","1366","768","","","","","","","","","","","1164","bgi","Diagnostic trial","","f","1","3","false","true","LEFT","f","1","","LEFT","true","","",""
"","html-keyboard-response","86","166126","0.0-147.0","ffscwef9","1366","768","","","","","","","","","","","null","+","Fixation - short","","null","","","","","","","","","","","","",""
"","html-keyboard-response","87","166853","0.0-148.0","ffscwef9","1366","768","","","","","","","","","","","724","bgi","Diagnostic trial","","f","1","4","false","true","LEFT","f","1","","LEFT","true","","",""
"","html-keyboard-response","88","167617","0.0-151.0","ffscwef9","1366","768","","","","","","","","","","","null","+","Fixation - short","","null","","","","","","","","","","","","",""
"","html-keyboard-response","89","168341","0.0-152.0","ffscwef9","1366","768","","","","","","","","","","","721","bgi","Diagnostic trial","","j","1","5","false","false","RIGHT","j","1","","LEFT","false","","",""
"","html-keyboard-response","90","169105","0.0-155.0","ffscwef9","1366","768","","","","","","","","","","","null","+","Fixation - short","","null","","","","","","","","","","","","",""
"","html-keyboard-response","91","169731","0.0-156.0","ffscwef9","1366","768","","","","","","","","","","","624","xlv","Inducer trial","","j","1","","true","","","j","1","RIGHT","","","","",""
"","html-keyboard-response","92","171239","0.0-159.0","ffscwef9","1366","768","","","","","","","","","","","null","+","Fixation - long","","null","","","","","","","","","","","","",""
"","html-keyboard-response","93","172085","0.0-160.0","ffscwef9","1366","768","","","","","","","","","","","845","If ndm press LEFT | If gdn press RIGHT","Inducer instructions",""," ","2","","","","","","","","","","","",""
"","html-keyboard-response","94","172856","0.0-161.0","ffscwef9","1366","768","","","","","","","","","","","null","+","Fixation - short","","null","","","","","","","","","","","","",""
"","html-keyboard-response","95","173560","0.0-162.0","ffscwef9","1366","768","","","","","","","","","","","702","gdn","Diagnostic trial","","f","2","0","false","true","LEFT","f","1","","RIGHT","false","","",""
"","html-keyboard-response","96","174319","0.0-165.0","ffscwef9","1366","768","","","","","","","","","","","null","+","Fixation - short","","null","","","","","","","","","","","","",""
"","html-keyboard-response","97","174994","0.0-166.0","ffscwef9","1366","768","","","","","","","","","","","672","gdn","Diagnostic trial","","j","2","1","false","false","RIGHT","j","1","","RIGHT","true","","",""
"","html-keyboard-response","98","175746","0.0-169.0","ffscwef9","1366","768","","","","","","","","","","","null","+","Fixation - short","","null","","","","","","","","","","","","",""
"","html-keyboard-response","99","176356","0.0-170.0","ffscwef9","1366","768","","","","","","","","","","","608","ndm","Diagnostic trial","","f","2","2","false","true","LEFT","f","1","","LEFT","true","","",""
"","html-keyboard-response","100","177116","0.0-173.0","ffscwef9","1366","768","","","","","","","","","","","null","+","Fixation - short","","null","","","","","","","","","","","","",""
"","html-keyboard-response","101","177910","0.0-174.0","ffscwef9","1366","768","","","","","","","","","","","791","ndm","Diagnostic trial","","j","2","3","false","false","RIGHT","j","1","","LEFT","false","","",""
"","html-keyboard-response","102","178666","0.0-177.0","ffscwef9","1366","768","","","","","","","","","","","null","+","Fixation - short","","null","","","","","","","","","","","","",""
"","html-keyboard-response","103","179445","0.0-178.0","ffscwef9","1366","768","","","","","","","","","","","777","gdn","Diagnostic trial","","j","2","4","false","false","RIGHT","j","1","","RIGHT","true","","",""
"","html-keyboard-response","104","180205","0.0-181.0","ffscwef9","1366","768","","","","","","","","","","","null","+","Fixation - short","","null","","","","","","","","","","","","",""
"","html-keyboard-response","105","180768","0.0-182.0","ffscwef9","1366","768","","","","","","","","","","","562","gdn","Diagnostic trial","","f","2","5","false","true","LEFT","f","1","","RIGHT","false","","",""
"","html-keyboard-response","106","181532","0.0-185.0","ffscwef9","1366","768","","","","","","","","","","","null","+","Fixation - short","","null","","","","","","","","","","","","",""
"","html-keyboard-response","107","182039","0.0-186.0","ffscwef9","1366","768","","","","","","","","","","","505","gdn","Diagnostic trial","","j","2","6","false","false","RIGHT","j","1","","RIGHT","true","","",""
"","html-keyboard-response","108","182797","0.0-189.0","ffscwef9","1366","768","","","","","","","","","","","null","+","Fixation - short","","null","","","","","","","","","","","","",""
"","html-keyboard-response","109","183254","0.0-190.0","ffscwef9","1366","768","","","","","","","","","","","455","gdn","Diagnostic trial","","j","2","7","false","false","RIGHT","j","1","","RIGHT","true","","",""
"","html-keyboard-response","110","184016","0.0-193.0","ffscwef9","1366","768","","","","","","","","","","","null","+","Fixation - short","","null","","","","","","","","","","","","",""
"","html-keyboard-response","111","184470","0.0-194.0","ffscwef9","1366","768","","","","","","","","","","","452","gdn","Diagnostic trial","","j","2","8","false","false","RIGHT","j","1","","RIGHT","true","","",""
"","html-keyboard-response","112","185228","0.0-197.0","ffscwef9","1366","768","","","","","","","","","","","null","+","Fixation - short","","null","","","","","","","","","","","","",""
"","html-keyboard-response","113","185792","0.0-198.0","ffscwef9","1366","768","","","","","","","","","","","561","ndm","Diagnostic trial","","f","2","9","false","true","LEFT","f","1","","LEFT","true","","",""
"","html-keyboard-response","114","186554","0.0-201.0","ffscwef9","1366","768","","","","","","","","","","","null","+","Fixation - short","","null","","","","","","","","","","","","",""
"","html-keyboard-response","115","187071","0.0-202.0","ffscwef9","1366","768","","","","","","","","","","","514","ndm","Diagnostic trial","","f","2","10","false","false","RIGHT","j","0","","LEFT","false","","",""
"","call-function","116","187072","0.0-204.0-0.0","ffscwef9","","","","","","","","","","","","","","","","","","","","","","","","","","","","","",""
"","html-keyboard-response","117","187383","0.0-204.0-1.0","ffscwef9","1366","768","","","","","","","","","","","null","Wrong","Feedback","","null","","","","","","","","","","","","",""
"","call-function","118","187385","0.0-204.0-2.0","ffscwef9","","","","","","","","","","","","","","","","","","","","","","","","","","","","","",""
"","html-keyboard-response","119","188145","0.0-205.0","ffscwef9","1366","768","","","","","","","","","","","null","+","Fixation - short","","null","","","","","","","","","","","","",""
"","html-keyboard-response","120","188686","0.0-206.0","ffscwef9","1366","768","","","","","","","","","","","537","gdn","Inducer trial","","j","2","","true","","","j","1","RIGHT","","","","",""
"","html-keyboard-response","121","190193","0.0-209.0","ffscwef9","1366","768","","","","","","","","","","","null","+","Fixation - long","","null","","","","","","","","","","","","",""
"","html-keyboard-response","122","190988","0.0-210.0","ffscwef9","1366","768","","","","","","","","","","","792","If saj press LEFT | If jft press RIGHT","Inducer instructions",""," ","3","","","","","","","","","","","",""
"","html-keyboard-response","123","191754","0.0-211.0","ffscwef9","1366","768","","","","","","","","","","","null","+","Fixation - short","","null","","","","","","","","","","","","",""
"","html-keyboard-response","124","192361","0.0-212.0","ffscwef9","1366","768","","","","","","","","","","","605","jft","Diagnostic trial","","j","3","0","false","false","RIGHT","j","1","","RIGHT","true","","",""
"","html-keyboard-response","125","193126","0.0-215.0","ffscwef9","1366","768","","","","","","","","","","","null","+","Fixation - short","","null","","","","","","","","","","","","",""
"","html-keyboard-response","126","193636","0.0-216.0","ffscwef9","1366","768","","","","","","","","","","","508","saj","Diagnostic trial","","f","3","1","false","true","LEFT","f","1","","LEFT","true","","",""
"","html-keyboard-response","127","194390","0.0-219.0","ffscwef9","1366","768","","","","","","","","","","","null","+","Fixation - short","","null","","","","","","","","","","","","",""
"","html-keyboard-response","128","195042","0.0-220.0","ffscwef9","1366","768","","","","","","","","","","","649","saj","Diagnostic trial","","f","3","2","false","false","RIGHT","j","0","","LEFT","false","","",""
"","call-function","129","195043","0.0-222.0-0.0","ffscwef9","","","","","","","","","","","","","","","","","","","","","","","","","","","","","",""
"","html-keyboard-response","130","195353","0.0-222.0-1.0","ffscwef9","1366","768","","","","","","","","","","","null","Wrong","Feedback","","null","","","","","","","","","","","","",""
"","call-function","131","195354","0.0-222.0-2.0","ffscwef9","","","","","","","","","","","","","","","","","","","","","","","","","","","","","",""
"","html-keyboard-response","132","196119","0.0-223.0","ffscwef9","1366","768","","","","","","","","","","","null","+","Fixation - short","","null","","","","","","","","","","","","",""
"","html-keyboard-response","133","196555","0.0-224.0","ffscwef9","1366","768","","","","","","","","","","","433","saj","Diagnostic trial","","f","3","3","false","true","LEFT","f","1","","LEFT","true","","",""
"","html-keyboard-response","134","197320","0.0-227.0","ffscwef9","1366","768","","","","","","","","","","","null","+","Fixation - short","","null","","","","","","","","","","","","",""
"","html-keyboard-response","135","197880","0.0-228.0","ffscwef9","1366","768","","","","","","","","","","","558","saj","Diagnostic trial","","f","3","4","false","true","LEFT","f","1","","LEFT","true","","",""
"","html-keyboard-response","136","198634","0.0-231.0","ffscwef9","1366","768","","","","","","","","","","","null","+","Fixation - short","","null","","","","","","","","","","","","",""
"","html-keyboard-response","137","199139","0.0-232.0","ffscwef9","1366","768","","","","","","","","","","","502","saj","Diagnostic trial","","j","3","5","false","false","RIGHT","j","1","","LEFT","false","","",""
"","html-keyboard-response","138","199898","0.0-235.0","ffscwef9","1366","768","","","","","","","","","","","null","+","Fixation - short","","null","","","","","","","","","","","","",""
"","html-keyboard-response","139","200372","0.0-236.0","ffscwef9","1366","768","","","","","","","","","","","473","saj","Diagnostic trial","","f","3","6","false","true","LEFT","f","1","","LEFT","true","","",""
"","html-keyboard-response","140","201134","0.0-239.0","ffscwef9","1366","768","","","","","","","","","","","null","+","Fixation - short","","null","","","","","","","","","","","","",""
"","html-keyboard-response","141","201589","0.0-240.0","ffscwef9","1366","768","","","","","","","","","","","453","jft","Diagnostic trial","","j","3","7","false","false","RIGHT","j","1","","RIGHT","true","","",""
"","html-keyboard-response","142","202345","0.0-243.0","ffscwef9","1366","768","","","","","","","","","","","null","+","Fixation - short","","null","","","","","","","","","","","","",""
"","html-keyboard-response","143","202834","0.0-244.0","ffscwef9","1366","768","","","","","","","","","","","487","jft","Diagnostic trial","","f","3","8","false","true","LEFT","f","1","","RIGHT","false","","",""
"","html-keyboard-response","144","203604","0.0-247.0","ffscwef9","1366","768","","","","","","","","","","","null","+","Fixation - short","","null","","","","","","","","","","","","",""
"","html-keyboard-response","145","204144","0.0-248.0","ffscwef9","1366","768","","","","","","","","","","","538","saj","Diagnostic trial","","f","3","9","false","true","LEFT","f","1","","LEFT","true","","",""
"","html-keyboard-response","146","204897","0.0-251.0","ffscwef9","1366","768","","","","","","","","","","","null","+","Fixation - short","","null","","","","","","","","","","","","",""
"","html-keyboard-response","147","205434","0.0-252.0","ffscwef9","1366","768","","","","","","","","","","","535","jft","Diagnostic trial","","f","3","10","false","true","LEFT","f","1","","RIGHT","false","","",""
"","html-keyboard-response","148","206193","0.0-255.0","ffscwef9","1366","768","","","","","","","","","","","null","+","Fixation - short","","null","","","","","","","","","","","","",""
"","html-keyboard-response","149","206614","0.0-256.0","ffscwef9","1366","768","","","","","","","","","","","419","jft","Diagnostic trial","","f","3","11","false","true","LEFT","f","1","","RIGHT","false","","",""
"","html-keyboard-response","150","207371","0.0-259.0","ffscwef9","1366","768","","","","","","","","","","","null","+","Fixation - short","","null","","","","","","","","","","","","",""
"","html-keyboard-response","151","207984","0.0-260.0","ffscwef9","1366","768","","","","","","","","","","","611","saj","Inducer trial","","j","3","","true","","","f","0","LEFT","","","","",""
"","call-function","152","207985","0.0-262.0-0.0","ffscwef9","","","","","","","","","","","","","","","","","","","","","","","","","","","","","",""
"","html-keyboard-response","153","208296","0.0-262.0-1.0","ffscwef9","1366","768","","","","","","","","","","","null","Wrong","Feedback","","null","","","","","","","","","","","","",""
"","call-function","154","208297","0.0-262.0-2.0","ffscwef9","","","","","","","","","","","","","","","","","","","","","","","","","","","","","",""
"","html-keyboard-response","155","209805","0.0-263.0","ffscwef9","1366","768","","","","","","","","","","","null","+","Fixation - long","","null","","","","","","","","","","","","",""
"","html-keyboard-response","156","210501","0.0-264.0","ffscwef9","1366","768","","","","","","","","","","","694","If vpu press LEFT | If otr press RIGHT","Inducer instructions",""," ","4","","","","","","","","","","","",""
"","html-keyboard-response","157","211264","0.0-265.0","ffscwef9","1366","768","","","","","","","","","","","null","+","Fixation - short","","null","","","","","","","","","","","","",""
"","html-keyboard-response","158","211768","0.0-266.0","ffscwef9","1366","768","","","","","","","","","","","503","otr","Diagnostic trial","","f","4","0","false","true","LEFT","f","1","","RIGHT","false","","",""
"","html-keyboard-response","159","212533","0.0-269.0","ffscwef9","1366","768","","","","","","","","","","","null","+","Fixation - short","","null","","","","","","","","","","","","",""
"","html-keyboard-response","160","213155","0.0-270.0","ffscwef9","1366","768","","","","","","","","","","","619","otr","Diagnostic trial","","f","4","1","false","true","LEFT","f","1","","RIGHT","false","","",""
"","html-keyboard-response","161","213915","0.0-273.0","ffscwef9","1366","768","","","","","","","","","","","null","+","Fixation - short","","null","","","","","","","","","","","","",""
"","html-keyboard-response","162","214384","0.0-274.0","ffscwef9","1366","768","","","","","","","","","","","468","otr","Diagnostic trial","","f","4","2","false","true","LEFT","f","1","","RIGHT","false","","",""
"","html-keyboard-response","163","215143","0.0-277.0","ffscwef9","1366","768","","","","","","","","","","","null","+","Fixation - short","","null","","","","","","","","","","","","",""
"","html-keyboard-response","164","215675","0.0-278.0","ffscwef9","1366","768","","","","","","","","","","","531","vpu","Diagnostic trial","","j","4","3","false","false","RIGHT","j","1","","LEFT","false","","",""
"","html-keyboard-response","165","216433","0.0-281.0","ffscwef9","1366","768","","","","","","","","","","","null","+","Fixation - short","","null","","","","","","","","","","","","",""
"","html-keyboard-response","166","216964","0.0-282.0","ffscwef9","1366","768","","","","","","","","","","","529","otr","Diagnostic trial","","f","4","4","false","true","LEFT","f","1","","RIGHT","false","","",""
"","html-keyboard-response","167","217726","0.0-285.0","ffscwef9","1366","768","","","","","","","","","","","null","+","Fixation - short","","null","","","","","","","","","","","","",""
"","html-keyboard-response","168","218350","0.0-286.0","ffscwef9","1366","768","","","","","","","","","","","621","vpu","Diagnostic trial","","j","4","5","false","false","RIGHT","j","1","","LEFT","false","","",""
"","html-keyboard-response","169","219106","0.0-289.0","ffscwef9","1366","768","","","","","","","","","","","null","+","Fixation - short","","null","","","","","","","","","","","","",""
"","html-keyboard-response","170","219545","0.0-290.0","ffscwef9","1366","768","","","","","","","","","","","436","vpu","Diagnostic trial","","f","4","6","false","true","LEFT","f","1","","LEFT","true","","",""
"","html-keyboard-response","171","220303","0.0-293.0","ffscwef9","1366","768","","","","","","","","","","","null","+","Fixation - short","","null","","","","","","","","","","","","",""
"","html-keyboard-response","172","220780","0.0-294.0","ffscwef9","1366","768","","","","","","","","","","","476","otr","Diagnostic trial","","f","4","7","false","true","LEFT","f","1","","RIGHT","false","","",""
"","html-keyboard-response","173","221542","0.0-297.0","ffscwef9","1366","768","","","","","","","","","","","null","+","Fixation - short","","null","","","","","","","","","","","","",""
"","html-keyboard-response","174","221988","0.0-298.0","ffscwef9","1366","768","","","","","","","","","","","444","otr","Diagnostic trial","","f","4","8","false","true","LEFT","f","1","","RIGHT","false","","",""
"","html-keyboard-response","175","222758","0.0-301.0","ffscwef9","1366","768","","","","","","","","","","","null","+","Fixation - short","","null","","","","","","","","","","","","",""
"","html-keyboard-response","176","223245","0.0-302.0","ffscwef9","1366","768","","","","","","","","","","","485","otr","Diagnostic trial","","f","4","9","false","true","LEFT","f","1","","RIGHT","false","","",""
"","html-keyboard-response","177","224000","0.0-305.0","ffscwef9","1366","768","","","","","","","","","","","null","+","Fixation - short","","null","","","","","","","","","","","","",""
"","html-keyboard-response","178","224433","0.0-306.0","ffscwef9","1366","768","","","","","","","","","","","431","otr","Diagnostic trial","","j","4","10","false","false","RIGHT","j","1","","RIGHT","true","","",""
"","html-keyboard-response","179","225189","0.0-309.0","ffscwef9","1366","768","","","","","","","","","","","null","+","Fixation - short","","null","","","","","","","","","","","","",""
"","html-keyboard-response","180","225612","0.0-310.0","ffscwef9","1366","768","","","","","","","","","","","420","otr","Diagnostic trial","","j","4","11","false","false","RIGHT","j","1","","RIGHT","true","","",""
"","html-keyboard-response","181","226382","0.0-313.0","ffscwef9","1366","768","","","","","","","","","","","null","+","Fixation - short","","null","","","","","","","","","","","","",""
"","html-keyboard-response","182","226983","0.0-314.0","ffscwef9","1366","768","","","","","","","","","","","600","vpu","Diagnostic trial","","j","4","12","false","false","RIGHT","j","1","","LEFT","false","","",""
"","html-keyboard-response","183","227739","0.0-317.0","ffscwef9","1366","768","","","","","","","","","","","null","+","Fixation - short","","null","","","","","","","","","","","","",""
"","html-keyboard-response","184","228347","0.0-318.0","ffscwef9","1366","768","","","","","","","","","","","607","otr","Inducer trial","","j","4","","true","","","j","1","RIGHT","","","","",""
"","html-keyboard-response","185","229852","0.0-321.0","ffscwef9","1366","768","","","","","","","","","","","null","+","Fixation - long","","null","","","","","","","","","","","","",""
"","html-keyboard-response","186","230549","0.0-322.0","ffscwef9","1366","768","","","","","","","","","","","696","If dof press LEFT | If ori press RIGHT","Inducer instructions",""," ","5","","","","","","","","","","","",""
"","html-keyboard-response","187","231315","0.0-323.0","ffscwef9","1366","768","","","","","","","","","","","null","+","Fixation - short","","null","","","","","","","","","","","","",""
"","html-keyboard-response","188","231898","0.0-324.0","ffscwef9","1366","768","","","","","","","","","","","580","ori","Diagnostic trial","","f","5","0","false","true","LEFT","f","1","","RIGHT","false","","",""
"","html-keyboard-response","189","232656","0.0-327.0","ffscwef9","1366","768","","","","","","","","","","","null","+","Fixation - short","","null","","","","","","","","","","","","",""
"","html-keyboard-response","190","233178","0.0-328.0","ffscwef9","1366","768","","","","","","","","","","","521","dof","Diagnostic trial","","f","5","1","false","true","LEFT","f","1","","LEFT","true","","",""
"","html-keyboard-response","191","233937","0.0-331.0","ffscwef9","1366","768","","","","","","","","","","","null","+","Fixation - short","","null","","","","","","","","","","","","",""
"","html-keyboard-response","192","234375","0.0-332.0","ffscwef9","1366","768","","","","","","","","","","","437","ori","Diagnostic trial","","j","5","2","false","false","RIGHT","j","1","","RIGHT","true","","",""
"","html-keyboard-response","193","235132","0.0-335.0","ffscwef9","1366","768","","","","","","","","","","","null","+","Fixation - short","","null","","","","","","","","","","","","",""
"","html-keyboard-response","194","235681","0.0-336.0","ffscwef9","1366","768","","","","","","","","","","","547","ori","Diagnostic trial","","f","5","3","false","true","LEFT","f","1","","RIGHT","false","","",""
"","html-keyboard-response","195","236453","0.0-339.0","ffscwef9","1366","768","","","","","","","","","","","null","+","Fixation - short","","null","","","","","","","","","","","","",""
"","html-keyboard-response","196","236969","0.0-340.0","ffscwef9","1366","768","","","","","","","","","","","510","ori","Diagnostic trial","","f","5","4","false","true","LEFT","f","1","","RIGHT","false","","",""
"","html-keyboard-response","197","237733","0.0-343.0","ffscwef9","1366","768","","","","","","","","","","","null","+","Fixation - short","","null","","","","","","","","","","","","",""
"","html-keyboard-response","198","238275","0.0-344.0","ffscwef9","1366","768","","","","","","","","","","","539","dof","Diagnostic trial","","f","5","5","false","true","LEFT","f","1","","LEFT","true","","",""
"","html-keyboard-response","199","239035","0.0-347.0","ffscwef9","1366","768","","","","","","","","","","","null","+","Fixation - short","","null","","","","","","","","","","","","",""
"","html-keyboard-response","200","239668","0.0-348.0","ffscwef9","1366","768","","","","","","","","","","","631","dof","Diagnostic trial","","j","5","6","false","false","RIGHT","j","1","","LEFT","false","","",""
"","html-keyboard-response","201","240425","0.0-351.0","ffscwef9","1366","768","","","","","","","","","","","null","+","Fixation - short","","null","","","","","","","","","","","","",""
"","html-keyboard-response","202","241230","0.0-352.0","ffscwef9","1366","768","","","","","","","","","","","803","dof","Diagnostic trial","","j","5","7","false","false","RIGHT","j","1","","LEFT","false","","",""
"","html-keyboard-response","203","241984","0.0-355.0","ffscwef9","1366","768","","","","","","","","","","","null","+","Fixation - short","","null","","","","","","","","","","","","",""
"","html-keyboard-response","204","243313","0.0-356.0","ffscwef9","1366","768","","","","","","","","","","","1323","ori","Diagnostic trial","","f","5","8","false","true","LEFT","f","1","","RIGHT","false","","",""
"","html-keyboard-response","205","244068","0.0-359.0","ffscwef9","1366","768","","","","","","","","","","","null","+","Fixation - short","","null","","","","","","","","","","","","",""
"","html-keyboard-response","206","244589","0.0-360.0","ffscwef9","1366","768","","","","","","","","","","","518","ori","Diagnostic trial","","j","5","9","false","false","RIGHT","j","1","","RIGHT","true","","",""
"","html-keyboard-response","207","245355","0.0-363.0","ffscwef9","1366","768","","","","","","","","","","","null","+","Fixation - short","","null","","","","","","","","","","","","",""
"","html-keyboard-response","208","245796","0.0-364.0","ffscwef9","1366","768","","","","","","","","","","","436","ori","Diagnostic trial","","j","5","10","false","false","RIGHT","j","1","","RIGHT","true","","",""
"","html-keyboard-response","209","246565","0.0-367.0","ffscwef9","1366","768","","","","","","","","","","","null","+","Fixation - short","","null","","","","","","","","","","","","",""
"","html-keyboard-response","210","247067","0.0-368.0","ffscwef9","1366","768","","","","","","","","","","","500","dof","Diagnostic trial","","f","5","11","false","true","LEFT","f","1","","LEFT","true","","",""
"","html-keyboard-response","211","247825","0.0-371.0","ffscwef9","1366","768","","","","","","","","","","","null","+","Fixation - short","","null","","","","","","","","","","","","",""
"","html-keyboard-response","212","248359","0.0-372.0","ffscwef9","1366","768","","","","","","","","","","","531","ori","Diagnostic trial","","f","5","12","false","true","LEFT","f","1","","RIGHT","false","","",""
"","html-keyboard-response","213","249122","0.0-375.0","ffscwef9","1366","768","","","","","","","","","","","null","+","Fixation - short","","null","","","","","","","","","","","","",""
"","html-keyboard-response","214","249646","0.0-376.0","ffscwef9","1366","768","","","","","","","","","","","522","dof","Inducer trial","","j","5","","true","","","f","0","LEFT","","","","",""
"","call-function","215","249648","0.0-378.0-0.0","ffscwef9","","","","","","","","","","","","","","","","","","","","","","","","","","","","","",""
"","html-keyboard-response","216","249964","0.0-378.0-1.0","ffscwef9","1366","768","","","","","","","","","","","null","Wrong","Feedback","","null","","","","","","","","","","","","",""
"","call-function","217","249966","0.0-378.0-2.0","ffscwef9","","","","","","","","","","","","","","","","","","","","","","","","","","","","","",""
"","html-keyboard-response","218","251476","0.0-379.0","ffscwef9","1366","768","","","","","","","","","","","null","+","Fixation - long","","null","","","","","","","","","","","","",""
"","html-keyboard-response","219","252989","0.0-380.0","ffscwef9","1366","768","","","","","","","","","","","1511","If xet press LEFT | If mts press RIGHT","Inducer instructions",""," ","6","","","","","","","","","","","",""
"","html-keyboard-response","220","253746","0.0-381.0","ffscwef9","1366","768","","","","","","","","","","","null","+","Fixation - short","","null","","","","","","","","","","","","",""
"","html-keyboard-response","221","254402","0.0-382.0","ffscwef9","1366","768","","","","","","","","","","","654","mts","Diagnostic trial","","j","6","0","false","false","RIGHT","j","1","","RIGHT","true","","",""
"","html-keyboard-response","222","255166","0.0-385.0","ffscwef9","1366","768","","","","","","","","","","","null","+","Fixation - short","","null","","","","","","","","","","","","",""
"","html-keyboard-response","223","255687","0.0-386.0","ffscwef9","1366","768","","","","","","","","","","","518","xet","Diagnostic trial","","f","6","1","false","true","LEFT","f","1","","LEFT","true","","",""
"","html-keyboard-response","224","256445","0.0-389.0","ffscwef9","1366","768","","","","","","","","","","","null","+","Fixation - short","","null","","","","","","","","","","","","",""
"","html-keyboard-response","225","256958","0.0-390.0","ffscwef9","1366","768","","","","","","","","","","","511","xet","Diagnostic trial","","j","6","2","false","false","RIGHT","j","1","","LEFT","false","","",""
"","html-keyboard-response","226","257723","0.0-393.0","ffscwef9","1366","768","","","","","","","","","","","null","+","Fixation - short","","null","","","","","","","","","","","","",""
"","html-keyboard-response","227","258188","0.0-394.0","ffscwef9","1366","768","","","","","","","","","","","463","xet","Diagnostic trial","","j","6","3","false","false","RIGHT","j","1","","LEFT","false","","",""
"","html-keyboard-response","228","258945","0.0-397.0","ffscwef9","1366","768","","","","","","","","","","","null","+","Fixation - short","","null","","","","","","","","","","","","",""
"","html-keyboard-response","229","259400","0.0-398.0","ffscwef9","1366","768","","","","","","","","","","","454","mts","Diagnostic trial","","j","6","4","false","false","RIGHT","j","1","","RIGHT","true","","",""
"","html-keyboard-response","230","260154","0.0-401.0","ffscwef9","1366","768","","","","","","","","","","","null","+","Fixation - short","","null","","","","","","","","","","","","",""
"","html-keyboard-response","231","260652","0.0-402.0","ffscwef9","1366","768","","","","","","","","","","","496","mts","Diagnostic trial","","f","6","5","false","true","LEFT","f","1","","RIGHT","false","","",""
"","html-keyboard-response","232","261415","0.0-405.0","ffscwef9","1366","768","","","","","","","","","","","null","+","Fixation - short","","null","","","","","","","","","","","","",""
"","html-keyboard-response","233","262050","0.0-406.0","ffscwef9","1366","768","","","","","","","","","","","633","mts","Inducer trial","","j","6","","true","","","j","1","RIGHT","","","","",""
"","html-keyboard-response","234","263561","0.0-409.0","ffscwef9","1366","768","","","","","","","","","","","null","+","Fixation - long","","null","","","","","","","","","","","","",""
"","html-keyboard-response","235","265153","0.0-410.0","ffscwef9","1366","768","","","","","","","","","","","1590","If guf press LEFT | If jey press RIGHT","Inducer instructions",""," ","7","","","","","","","","","","","",""
"","html-keyboard-response","236","265915","0.0-411.0","ffscwef9","1366","768","","","","","","","","","","","null","+","Fixation - short","","null","","","","","","","","","","","","",""
"","html-keyboard-response","237","266386","0.0-412.0","ffscwef9","1366","768","","","","","","","","","","","469","jey","Diagnostic trial","","j","7","0","false","false","RIGHT","j","1","","RIGHT","true","","",""
"","html-keyboard-response","238","267155","0.0-415.0","ffscwef9","1366","768","","","","","","","","","","","null","+","Fixation - short","","null","","","","","","","","","","","","",""
"","html-keyboard-response","239","267646","0.0-416.0","ffscwef9","1366","768","","","","","","","","","","","486","jey","Diagnostic trial","","j","7","1","false","false","RIGHT","j","1","","RIGHT","true","","",""
"","html-keyboard-response","240","268408","0.0-419.0","ffscwef9","1366","768","","","","","","","","","","","null","+","Fixation - short","","null","","","","","","","","","","","","",""
"","html-keyboard-response","241","268854","0.0-420.0","ffscwef9","1366","768","","","","","","","","","","","443","jey","Diagnostic trial","","j","7","2","false","false","RIGHT","j","1","","RIGHT","true","","",""
"","html-keyboard-response","242","269611","0.0-423.0","ffscwef9","1366","768","","","","","","","","","","","null","+","Fixation - short","","null","","","","","","","","","","","","",""
"","html-keyboard-response","243","269996","0.0-424.0","ffscwef9","1366","768","","","","","","","","","","","382","jey","Diagnostic trial","","j","7","3","false","false","RIGHT","j","1","","RIGHT","true","","",""
"","html-keyboard-response","244","270751","0.0-427.0","ffscwef9","1366","768","","","","","","","","","","","null","+","Fixation - short","","null","","","","","","","","","","","","",""
"","html-keyboard-response","245","271250","0.0-428.0","ffscwef9","1366","768","","","","","","","","","","","496","guf","Diagnostic trial","","j","7","4","false","false","RIGHT","j","1","","LEFT","false","","",""
"","html-keyboard-response","246","272014","0.0-431.0","ffscwef9","1366","768","","","","","","","","","","","null","+","Fixation - short","","null","","","","","","","","","","","","",""
"","html-keyboard-response","247","272907","0.0-432.0","ffscwef9","1366","768","","","","","","","","","","","891","jey","Inducer trial","","j","7","","true","","","j","1","RIGHT","","","","",""
"","html-keyboard-response","248","274412","0.0-435.0","ffscwef9","1366","768","","","","","","","","","","","null","+","Fixation - long","","null","","","","","","","","","","","","",""
"","html-keyboard-response","249","275589","0.0-436.0","ffscwef9","1366","768","","","","","","","","","","","1174","If vbt press LEFT | If uus press RIGHT","Inducer instructions",""," ","8","","","","","","","","","","","",""
"","html-keyboard-response","250","276342","0.0-437.0","ffscwef9","1366","768","","","","","","","","","","","null","+","Fixation - short","","null","","","","","","","","","","","","",""
"","html-keyboard-response","251","276764","0.0-438.0","ffscwef9","1366","768","","","","","","","","","","","420","uus","Diagnostic trial","","f","8","0","false","true","LEFT","f","1","","RIGHT","false","","",""
"","html-keyboard-response","252","277523","0.0-441.0","ffscwef9","1366","768","","","","","","","","","","","null","+","Fixation - short","","null","","","","","","","","","","","","",""
"","html-keyboard-response","253","278026","0.0-442.0","ffscwef9","1366","768","","","","","","","","","","","500","uus","Diagnostic trial","","f","8","1","false","true","LEFT","f","1","","RIGHT","false","","",""
"","html-keyboard-response","254","278780","0.0-445.0","ffscwef9","1366","768","","","","","","","","","","","null","+","Fixation - short","","null","","","","","","","","","","","","",""
"","html-keyboard-response","255","279501","0.0-446.0","ffscwef9","1366","768","","","","","","","","","","","719","vbt","Diagnostic trial","","f","8","2","false","true","LEFT","f","1","","LEFT","true","","",""
"","html-keyboard-response","256","280259","0.0-449.0","ffscwef9","1366","768","","","","","","","","","","","null","+","Fixation - short","","null","","","","","","","","","","","","",""
"","html-keyboard-response","257","281115","0.0-450.0","ffscwef9","1366","768","","","","","","","","","","","854","vbt","Diagnostic trial","","f","8","3","false","false","RIGHT","j","0","","LEFT","false","","",""
"","call-function","258","281116","0.0-452.0-0.0","ffscwef9","","","","","","","","","","","","","","","","","","","","","","","","","","","","","",""
"","html-keyboard-response","259","281418","0.0-452.0-1.0","ffscwef9","1366","768","","","","","","","","","","","null","Wrong","Feedback","","null","","","","","","","","","","","","",""
"","call-function","260","281420","0.0-452.0-2.0","ffscwef9","","","","","","","","","","","","","","","","","","","","","","","","","","","","","",""
"","html-keyboard-response","261","282189","0.0-453.0","ffscwef9","1366","768","","","","","","","","","","","null","+","Fixation - short","","null","","","","","","","","","","","","",""
"","html-keyboard-response","262","283280","0.0-454.0","ffscwef9","1366","768","","","","","","","","","","","1089","vbt","Diagnostic trial","","f","8","4","false","true","LEFT","f","1","","LEFT","true","","",""
"","html-keyboard-response","263","284045","0.0-457.0","ffscwef9","1366","768","","","","","","","","","","","null","+","Fixation - short","","null","","","","","","","","","","","","",""
"","html-keyboard-response","264","284816","0.0-458.0","ffscwef9","1366","768","","","","","","","","","","","768","uus","Diagnostic trial","","j","8","5","false","false","RIGHT","j","1","","RIGHT","true","","",""
"","html-keyboard-response","265","285577","0.0-461.0","ffscwef9","1366","768","","","","","","","","","","","null","+","Fixation - short","","null","","","","","","","","","","","","",""
"","html-keyboard-response","266","286487","0.0-462.0","ffscwef9","1366","768","","","","","","","","","","","907","vbt","Diagnostic trial","","j","8","6","false","false","RIGHT","j","1","","LEFT","false","","",""
"","html-keyboard-response","267","287246","0.0-465.0","ffscwef9","1366","768","","","","","","","","","","","null","+","Fixation - short","","null","","","","","","","","","","","","",""
"","html-keyboard-response","268","288052","0.0-466.0","ffscwef9","1366","768","","","","","","","","","","","803","uus","Diagnostic trial","","f","8","7","false","true","LEFT","f","1","","RIGHT","false","","",""
"","html-keyboard-response","269","288809","0.0-469.0","ffscwef9","1366","768","","","","","","","","","","","null","+","Fixation - short","","null","","","","","","","","","","","","",""
"","html-keyboard-response","270","289415","0.0-470.0","ffscwef9","1366","768","","","","","","","","","","","604","vbt","Diagnostic trial","","f","8","8","false","true","LEFT","f","1","","LEFT","true","","",""
"","html-keyboard-response","271","290179","0.0-473.0","ffscwef9","1366","768","","","","","","","","","","","null","+","Fixation - short","","null","","","","","","","","","","","","",""
"","html-keyboard-response","272","290675","0.0-474.0","ffscwef9","1366","768","","","","","","","","","","","494","vbt","Diagnostic trial","","f","8","9","false","true","LEFT","f","1","","LEFT","true","","",""
"","html-keyboard-response","273","291433","0.0-477.0","ffscwef9","1366","768","","","","","","","","","","","null","+","Fixation - short","","null","","","","","","","","","","","","",""
"","html-keyboard-response","274","292099","0.0-478.0","ffscwef9","1366","768","","","","","","","","","","","665","uus","Diagnostic trial","","j","8","10","false","false","RIGHT","j","1","","RIGHT","true","","",""
"","html-keyboard-response","275","292856","0.0-481.0","ffscwef9","1366","768","","","","","","","","","","","null","+","Fixation - short","","null","","","","","","","","","","","","",""
"","html-keyboard-response","276","293582","0.0-482.0","ffscwef9","1366","768","","","","","","","","","","","724","vbt","Diagnostic trial","","j","8","11","false","false","RIGHT","j","1","","LEFT","false","","",""
"","html-keyboard-response","277","294345","0.0-485.0","ffscwef9","1366","768","","","","","","","","","","","null","+","Fixation - short","","null","","","","","","","","","","","","",""
"","html-keyboard-response","278","295119","0.0-486.0","ffscwef9","1366","768","","","","","","","","","","","772","uus","Inducer trial","","j","8","","true","","","j","1","RIGHT","","","","",""
"","html-keyboard-response","279","296633","0.0-489.0","ffscwef9","1366","768","","","","","","","","","","","null","+","Fixation - long","","null","","","","","","","","","","","","",""
"","html-keyboard-response","280","297350","0.0-490.0","ffscwef9","1366","768","","","","","","","","","","","714","If hrc press LEFT | If fja press RIGHT","Inducer instructions",""," ","9","","","","","","","","","","","",""
"","html-keyboard-response","281","298105","0.0-491.0","ffscwef9","1366","768","","","","","","","","","","","null","+","Fixation - short","","null","","","","","","","","","","","","",""
"","html-keyboard-response","282","298629","0.0-492.0","ffscwef9","1366","768","","","","","","","","","","","521","hrc","Diagnostic trial","","j","9","0","false","false","RIGHT","j","1","","LEFT","false","","",""
"","html-keyboard-response","283","299390","0.0-495.0","ffscwef9","1366","768","","","","","","","","","","","null","+","Fixation - short","","null","","","","","","","","","","","","",""
"","html-keyboard-response","284","300290","0.0-496.0","ffscwef9","1366","768","","","","","","","","","","","899","fja","Diagnostic trial","","f","9","1","false","true","LEFT","f","1","","RIGHT","false","","",""
"","html-keyboard-response","285","301050","0.0-499.0","ffscwef9","1366","768","","","","","","","","","","","null","+","Fixation - short","","null","","","","","","","","","","","","",""
"","html-keyboard-response","286","301659","0.0-500.0","ffscwef9","1366","768","","","","","","","","","","","608","fja","Diagnostic trial","","f","9","2","false","true","LEFT","f","1","","RIGHT","false","","",""
"","html-keyboard-response","287","302423","0.0-503.0","ffscwef9","1366","768","","","","","","","","","","","null","+","Fixation - short","","null","","","","","","","","","","","","",""
"","html-keyboard-response","288","302956","0.0-504.0","ffscwef9","1366","768","","","","","","","","","","","532","hrc","Diagnostic trial","","j","9","3","false","false","RIGHT","j","1","","LEFT","false","","",""
"","html-keyboard-response","289","303719","0.0-507.0","ffscwef9","1366","768","","","","","","","","","","","null","+","Fixation - short","","null","","","","","","","","","","","","",""
"","html-keyboard-response","290","304166","0.0-508.0","ffscwef9","1366","768","","","","","","","","","","","446","hrc","Diagnostic trial","","j","9","4","false","false","RIGHT","j","1","","LEFT","false","","",""
"","html-keyboard-response","291","304934","0.0-511.0","ffscwef9","1366","768","","","","","","","","","","","null","+","Fixation - short","","null","","","","","","","","","","","","",""
"","html-keyboard-response","292","305580","0.0-512.0","ffscwef9","1366","768","","","","","","","","","","","641","hrc","Diagnostic trial","","f","9","5","false","true","LEFT","f","1","","LEFT","true","","",""
"","html-keyboard-response","293","306535","0.0-515.0","ffscwef9","1366","768","","","","","","","","","","","null","+","Fixation - short","","null","","","","","","","","","","","","",""
"","html-keyboard-response","294","307030","0.0-516.0","ffscwef9","1366","768","","","","","","","","","","","493","fja","Diagnostic trial","","f","9","6","false","true","LEFT","f","1","","RIGHT","false","","",""
"","html-keyboard-response","295","307790","0.0-519.0","ffscwef9","1366","768","","","","","","","","","","","null","+","Fixation - short","","null","","","","","","","","","","","","",""
"","html-keyboard-response","296","308286","0.0-520.0","ffscwef9","1366","768","","","","","","","","","","","493","hrc","Diagnostic trial","","j","9","7","false","false","RIGHT","j","1","","LEFT","false","","",""
"","html-keyboard-response","297","309040","0.0-523.0","ffscwef9","1366","768","","","","","","","","","","","null","+","Fixation - short","","null","","","","","","","","","","","","",""
"","html-keyboard-response","298","309626","0.0-524.0","ffscwef9","1366","768","","","","","","","","","","","584","hrc","Diagnostic trial","","j","9","8","false","false","RIGHT","j","1","","LEFT","false","","",""
"","html-keyboard-response","299","310384","0.0-527.0","ffscwef9","1366","768","","","","","","","","","","","null","+","Fixation - short","","null","","","","","","","","","","","","",""
"","html-keyboard-response","300","310902","0.0-528.0","ffscwef9","1366","768","","","","","","","","","","","516","fja","Diagnostic trial","","f","9","9","false","true","LEFT","f","1","","RIGHT","false","","",""
"","html-keyboard-response","301","311662","0.0-531.0","ffscwef9","1366","768","","","","","","","","","","","null","+","Fixation - short","","null","","","","","","","","","","","","",""
"","html-keyboard-response","302","312389","0.0-532.0","ffscwef9","1366","768","","","","","","","","","","","724","fja","Inducer trial","","j","9","","true","","","j","1","RIGHT","","","","",""
"","html-keyboard-response","303","313901","0.0-535.0","ffscwef9","1366","768","","","","","","","","","","","null","+","Fixation - long","","null","","","","","","","","","","","","",""
"","html-keyboard-response","304","314526","0.0-536.0","ffscwef9","1366","768","","","","","","","","","","","622","If bwe press LEFT | If wrz press RIGHT","Inducer instructions",""," ","10","","","","","","","","","","","",""
"","html-keyboard-response","305","315294","0.0-537.0","ffscwef9","1366","768","","","","","","","","","","","null","+","Fixation - short","","null","","","","","","","","","","","","",""
"","html-keyboard-response","306","316396","0.0-538.0","ffscwef9","1366","768","","","","","","","","","","","1099","wrz","Diagnostic trial","","f","10","0","false","true","LEFT","f","1","","RIGHT","false","","",""
"","html-keyboard-response","307","317153","0.0-541.0","ffscwef9","1366","768","","","","","","","","","","","null","+","Fixation - short","","null","","","","","","","","","","","","",""
"","html-keyboard-response","308","317612","0.0-542.0","ffscwef9","1366","768","","","","","","","","","","","457","bwe","Diagnostic trial","","j","10","1","false","false","RIGHT","j","1","","LEFT","false","","",""
"","html-keyboard-response","309","318367","0.0-545.0","ffscwef9","1366","768","","","","","","","","","","","null","+","Fixation - short","","null","","","","","","","","","","","","",""
"","html-keyboard-response","310","318981","0.0-546.0","ffscwef9","1366","768","","","","","","","","","","","612","wrz","Diagnostic trial","","j","10","2","false","false","RIGHT","j","1","","RIGHT","true","","",""
"","html-keyboard-response","311","319748","0.0-549.0","ffscwef9","1366","768","","","","","","","","","","","null","+","Fixation - short","","null","","","","","","","","","","","","",""
"","html-keyboard-response","312","320331","0.0-550.0","ffscwef9","1366","768","","","","","","","","","","","581","wrz","Diagnostic trial","","f","10","3","false","true","LEFT","f","1","","RIGHT","false","","",""
"","html-keyboard-response","313","321095","0.0-553.0","ffscwef9","1366","768","","","","","","","","","","","null","+","Fixation - short","","null","","","","","","","","","","","","",""
"","html-keyboard-response","314","321781","0.0-554.0","ffscwef9","1366","768","","","","","","","","","","","683","wrz","Diagnostic trial","","j","10","4","false","false","RIGHT","j","1","","RIGHT","true","","",""
"","html-keyboard-response","315","322541","0.0-557.0","ffscwef9","1366","768","","","","","","","","","","","null","+","Fixation - short","","null","","","","","","","","","","","","",""
"","html-keyboard-response","316","322965","0.0-558.0","ffscwef9","1366","768","","","","","","","","","","","423","wrz","Diagnostic trial","","j","10","5","false","false","RIGHT","j","1","","RIGHT","true","","",""
"","html-keyboard-response","317","323723","0.0-561.0","ffscwef9","1366","768","","","","","","","","","","","null","+","Fixation - short","","null","","","","","","","","","","","","",""
"","html-keyboard-response","318","324165","0.0-562.0","ffscwef9","1366","768","","","","","","","","","","","441","wrz","Diagnostic trial","","j","10","6","false","false","RIGHT","j","1","","RIGHT","true","","",""
"","html-keyboard-response","319","324931","0.0-565.0","ffscwef9","1366","768","","","","","","","","","","","null","+","Fixation - short","","null","","","","","","","","","","","","",""
"","html-keyboard-response","320","325346","0.0-566.0","ffscwef9","1366","768","","","","","","","","","","","413","wrz","Diagnostic trial","","j","10","7","false","false","RIGHT","j","1","","RIGHT","true","","",""
"","html-keyboard-response","321","326103","0.0-569.0","ffscwef9","1366","768","","","","","","","","","","","null","+","Fixation - short","","null","","","","","","","","","","","","",""
"","html-keyboard-response","322","326623","0.0-570.0","ffscwef9","1366","768","","","","","","","","","","","517","wrz","Diagnostic trial","","f","10","8","false","true","LEFT","f","1","","RIGHT","false","","",""
"","html-keyboard-response","323","327377","0.0-573.0","ffscwef9","1366","768","","","","","","","","","","","null","+","Fixation - short","","null","","","","","","","","","","","","",""
"","html-keyboard-response","324","327797","0.0-574.0","ffscwef9","1366","768","","","","","","","","","","","419","wrz","Diagnostic trial","","j","10","9","false","false","RIGHT","j","1","","RIGHT","true","","",""
"","html-keyboard-response","325","328554","0.0-577.0","ffscwef9","1366","768","","","","","","","","","","","null","+","Fixation - short","","null","","","","","","","","","","","","",""
"","html-keyboard-response","326","328921","0.0-578.0","ffscwef9","1366","768","","","","","","","","","","","365","wrz","Diagnostic trial","","j","10","10","false","false","RIGHT","j","1","","RIGHT","true","","",""
"","html-keyboard-response","327","329681","0.0-581.0","ffscwef9","1366","768","","","","","","","","","","","null","+","Fixation - short","","null","","","","","","","","","","","","",""
"","html-keyboard-response","328","330075","0.0-582.0","ffscwef9","1366","768","","","","","","","","","","","392","wrz","Diagnostic trial","","j","10","11","false","false","RIGHT","j","1","","RIGHT","true","","",""
"","html-keyboard-response","329","330838","0.0-585.0","ffscwef9","1366","768","","","","","","","","","","","null","+","Fixation - short","","null","","","","","","","","","","","","",""
"","html-keyboard-response","330","331200","0.0-586.0","ffscwef9","1366","768","","","","","","","","","","","360","bwe","Diagnostic trial","","j","10","12","false","false","RIGHT","j","1","","LEFT","false","","",""
"","html-keyboard-response","331","331957","0.0-589.0","ffscwef9","1366","768","","","","","","","","","","","null","+","Fixation - short","","null","","","","","","","","","","","","",""
"","html-keyboard-response","332","332676","0.0-590.0","ffscwef9","1366","768","","","","","","","","","","","717","bwe","Inducer trial","","f","10","","true","","","f","1","LEFT","","","","",""
"","html-keyboard-response","333","334192","0.0-593.0","ffscwef9","1366","768","","","","","","","","","","","null","+","Fixation - long","","null","","","","","","","","","","","","",""
"","html-keyboard-response","334","334771","0.0-594.0","ffscwef9","1366","768","","","","","","","","","","","577","If ofa press LEFT | If frn press RIGHT","Inducer instructions",""," ","11","","","","","","","","","","","",""
"","html-keyboard-response","335","335527","0.0-595.0","ffscwef9","1366","768","","","","","","","","","","","null","+","Fixation - short","","null","","","","","","","","","","","","",""
"","html-keyboard-response","336","336049","0.0-596.0","ffscwef9","1366","768","","","","","","","","","","","520","frn","Diagnostic trial","","j","11","0","false","true","LEFT","f","0","","RIGHT","false","","",""
"","call-function","337","336051","0.0-598.0-0.0","ffscwef9","","","","","","","","","","","","","","","","","","","","","","","","","","","","","",""
"","html-keyboard-response","338","336359","0.0-598.0-1.0","ffscwef9","1366","768","","","","","","","","","","","null","Wrong","Feedback","","null","","","","","","","","","","","","",""
"","call-function","339","336360","0.0-598.0-2.0","ffscwef9","","","","","","","","","","","","","","","","","","","","","","","","","","","","","",""
"","html-keyboard-response","340","337115","0.0-599.0","ffscwef9","1366","768","","","","","","","","","","","null","+","Fixation - short","","null","","","","","","","","","","","","",""
"","html-keyboard-response","341","337549","0.0-600.0","ffscwef9","1366","768","","","","","","","","","","","432","ofa","Diagnostic trial","","j","11","1","false","true","LEFT","f","0","","LEFT","true","","",""
"","call-function","342","337551","0.0-602.0-0.0","ffscwef9","","","","","","","","","","","","","","","","","","","","","","","","","","","","","",""
"","html-keyboard-response","343","337862","0.0-602.0-1.0","ffscwef9","1366","768","","","","","","","","","","","null","Wrong","Feedback","","null","","","","","","","","","","","","",""
"","call-function","344","337863","0.0-602.0-2.0","ffscwef9","","","","","","","","","","","","","","","","","","","","","","","","","","","","","",""
"","html-keyboard-response","345","338621","0.0-603.0","ffscwef9","1366","768","","","","","","","","","","","null","+","Fixation - short","","null","","","","","","","","","","","","",""
"","html-keyboard-response","346","339066","0.0-604.0","ffscwef9","1366","768","","","","","","","","","","","443","ofa","Diagnostic trial","","f","11","2","false","true","LEFT","f","1","","LEFT","true","","",""
"","html-keyboard-response","347","339829","0.0-607.0","ffscwef9","1366","768","","","","","","","","","","","null","+","Fixation - short","","null","","","","","","","","","","","","",""
"","html-keyboard-response","348","340235","0.0-608.0","ffscwef9","1366","768","","","","","","","","","","","403","ofa","Diagnostic trial","","f","11","3","false","true","LEFT","f","1","","LEFT","true","","",""
"","html-keyboard-response","349","340996","0.0-611.0","ffscwef9","1366","768","","","","","","","","","","","null","+","Fixation - short","","null","","","","","","","","","","","","",""
"","html-keyboard-response","350","341451","0.0-612.0","ffscwef9","1366","768","","","","","","","","","","","452","ofa","Diagnostic trial","","j","11","4","false","false","RIGHT","j","1","","LEFT","false","","",""
"","html-keyboard-response","351","342215","0.0-615.0","ffscwef9","1366","768","","","","","","","","","","","null","+","Fixation - short","","null","","","","","","","","","","","","",""
"","html-keyboard-response","352","342655","0.0-616.0","ffscwef9","1366","768","","","","","","","","","","","438","ofa","Diagnostic trial","","j","11","5","false","false","RIGHT","j","1","","LEFT","false","","",""
"","html-keyboard-response","353","343419","0.0-619.0","ffscwef9","1366","768","","","","","","","","","","","null","+","Fixation - short","","null","","","","","","","","","","","","",""
"","html-keyboard-response","354","343842","0.0-620.0","ffscwef9","1366","768","","","","","","","","","","","421","ofa","Diagnostic trial","","j","11","6","false","false","RIGHT","j","1","","LEFT","false","","",""
"","html-keyboard-response","355","344603","0.0-623.0","ffscwef9","1366","768","","","","","","","","","","","null","+","Fixation - short","","null","","","","","","","","","","","","",""
"","html-keyboard-response","356","345096","0.0-624.0","ffscwef9","1366","768","","","","","","","","","","","491","ofa","Diagnostic trial","","f","11","7","false","true","LEFT","f","1","","LEFT","true","","",""
"","html-keyboard-response","357","345855","0.0-627.0","ffscwef9","1366","768","","","","","","","","","","","null","+","Fixation - short","","null","","","","","","","","","","","","",""
"","html-keyboard-response","358","346281","0.0-628.0","ffscwef9","1366","768","","","","","","","","","","","424","ofa","Diagnostic trial","","f","11","8","false","true","LEFT","f","1","","LEFT","true","","",""
"","html-keyboard-response","359","347049","0.0-631.0","ffscwef9","1366","768","","","","","","","","","","","null","+","Fixation - short","","null","","","","","","","","","","","","",""
"","html-keyboard-response","360","347563","0.0-632.0","ffscwef9","1366","768","","","","","","","","","","","511","frn","Diagnostic trial","","j","11","9","false","false","RIGHT","j","1","","RIGHT","true","","",""
"","html-keyboard-response","361","348328","0.0-635.0","ffscwef9","1366","768","","","","","","","","","","","null","+","Fixation - short","","null","","","","","","","","","","","","",""
"","html-keyboard-response","362","348730","0.0-636.0","ffscwef9","1366","768","","","","","","","","","","","399","frn","Diagnostic trial","","j","11","10","false","false","RIGHT","j","1","","RIGHT","true","","",""
"","html-keyboard-response","363","349496","0.0-639.0","ffscwef9","1366","768","","","","","","","","","","","null","+","Fixation - short","","null","","","","","","","","","","","","",""
"","html-keyboard-response","364","349915","0.0-640.0","ffscwef9","1366","768","","","","","","","","","","","417","ofa","Diagnostic trial","","f","11","11","false","true","LEFT","f","1","","LEFT","true","","",""
"","html-keyboard-response","365","350678","0.0-643.0","ffscwef9","1366","768","","","","","","","","","","","null","+","Fixation - short","","null","","","","","","","","","","","","",""
"","html-keyboard-response","366","351106","0.0-644.0","ffscwef9","1366","768","","","","","","","","","","","425","ofa","Diagnostic trial","","f","11","12","false","true","LEFT","f","1","","LEFT","true","","",""
"","html-keyboard-response","367","351875","0.0-647.0","ffscwef9","1366","768","","","","","","","","","","","null","+","Fixation - short","","null","","","","","","","","","","","","",""
"","html-keyboard-response","368","352682","0.0-648.0","ffscwef9","1366","768","","","","","","","","","","","805","ofa","Inducer trial","","f","11","","true","","","f","1","LEFT","","","","",""
"","html-keyboard-response","369","354191","0.0-651.0","ffscwef9","1366","768","","","","","","","","","","","null","+","Fixation - long","","null","","","","","","","","","","","","",""
"","html-keyboard-response","370","354800","0.0-652.0","ffscwef9","1366","768","","","","","","","","","","","608","If vrm press LEFT | If snx press RIGHT","Inducer instructions",""," ","12","","","","","","","","","","","",""
"","html-keyboard-response","371","355556","0.0-653.0","ffscwef9","1366","768","","","","","","","","","","","null","+","Fixation - short","","null","","","","","","","","","","","","",""
"","html-keyboard-response","372","356170","0.0-654.0","ffscwef9","1366","768","","","","","","","","","","","613","vrm","Diagnostic trial","","j","12","0","false","false","RIGHT","j","1","","LEFT","false","","",""
"","html-keyboard-response","373","356924","0.0-657.0","ffscwef9","1366","768","","","","","","","","","","","null","+","Fixation - short","","null","","","","","","","","","","","","",""
"","html-keyboard-response","374","357460","0.0-658.0","ffscwef9","1366","768","","","","","","","","","","","534","snx","Diagnostic trial","","j","12","1","false","false","RIGHT","j","1","","RIGHT","true","","",""
"","html-keyboard-response","375","358217","0.0-661.0","ffscwef9","1366","768","","","","","","","","","","","null","+","Fixation - short","","null","","","","","","","","","","","","",""
"","html-keyboard-response","376","359249","0.0-662.0","ffscwef9","1366","768","","","","","","","","","","","1030","vrm","Diagnostic trial","","j","12","2","false","false","RIGHT","j","1","","LEFT","false","","",""
"","html-keyboard-response","377","360002","0.0-665.0","ffscwef9","1366","768","","","","","","","","","","","null","+","Fixation - short","","null","","","","","","","","","","","","",""
"","html-keyboard-response","378","360602","0.0-666.0","ffscwef9","1366","768","","","","","","","","","","","597","snx","Diagnostic trial","","f","12","3","false","true","LEFT","f","1","","RIGHT","false","","",""
"","html-keyboard-response","379","361357","0.0-669.0","ffscwef9","1366","768","","","","","","","","","","","null","+","Fixation - short","","null","","","","","","","","","","","","",""
"","html-keyboard-response","380","361772","0.0-670.0","ffscwef9","1366","768","","","","","","","","","","","412","vrm","Diagnostic trial","","f","12","4","false","true","LEFT","f","1","","LEFT","true","","",""
"","html-keyboard-response","381","362536","0.0-673.0","ffscwef9","1366","768","","","","","","","","","","","null","+","Fixation - short","","null","","","","","","","","","","","","",""
"","html-keyboard-response","382","362984","0.0-674.0","ffscwef9","1366","768","","","","","","","","","","","447","vrm","Diagnostic trial","","j","12","5","false","false","RIGHT","j","1","","LEFT","false","","",""
"","html-keyboard-response","383","363737","0.0-677.0","ffscwef9","1366","768","","","","","","","","","","","null","+","Fixation - short","","null","","","","","","","","","","","","",""
"","html-keyboard-response","384","364262","0.0-678.0","ffscwef9","1366","768","","","","","","","","","","","522","vrm","Diagnostic trial","","f","12","6","false","true","LEFT","f","1","","LEFT","true","","",""
"","html-keyboard-response","385","365027","0.0-681.0","ffscwef9","1366","768","","","","","","","","","","","null","+","Fixation - short","","null","","","","","","","","","","","","",""
"","html-keyboard-response","386","365469","0.0-682.0","ffscwef9","1366","768","","","","","","","","","","","441","vrm","Diagnostic trial","","j","12","7","false","false","RIGHT","j","1","","LEFT","false","","",""
"","html-keyboard-response","387","366224","0.0-685.0","ffscwef9","1366","768","","","","","","","","","","","null","+","Fixation - short","","null","","","","","","","","","","","","",""
"","html-keyboard-response","388","366609","0.0-686.0","ffscwef9","1366","768","","","","","","","","","","","384","vrm","Diagnostic trial","","j","12","8","false","true","LEFT","f","0","","LEFT","true","","",""
"","call-function","389","366611","0.0-688.0-0.0","ffscwef9","","","","","","","","","","","","","","","","","","","","","","","","","","","","","",""
"","html-keyboard-response","390","366923","0.0-688.0-1.0","ffscwef9","1366","768","","","","","","","","","","","null","Wrong","Feedback","","null","","","","","","","","","","","","",""
"","call-function","391","366924","0.0-688.0-2.0","ffscwef9","","","","","","","","","","","","","","","","","","","","","","","","","","","","","",""
"","html-keyboard-response","392","367699","0.0-689.0","ffscwef9","1366","768","","","","","","","","","","","null","+","Fixation - short","","null","","","","","","","","","","","","",""
"","html-keyboard-response","393","368186","0.0-690.0","ffscwef9","1366","768","","","","","","","","","","","484","snx","Diagnostic trial","","j","12","9","false","false","RIGHT","j","1","","RIGHT","true","","",""
"","html-keyboard-response","394","368948","0.0-693.0","ffscwef9","1366","768","","","","","","","","","","","null","+","Fixation - short","","null","","","","","","","","","","","","",""
"","html-keyboard-response","395","369385","0.0-694.0","ffscwef9","1366","768","","","","","","","","","","","435","vrm","Diagnostic trial","","f","12","10","false","false","RIGHT","j","0","","LEFT","false","","",""
"","call-function","396","369386","0.0-696.0-0.0","ffscwef9","","","","","","","","","","","","","","","","","","","","","","","","","","","","","",""
"","html-keyboard-response","397","369700","0.0-696.0-1.0","ffscwef9","1366","768","","","","","","","","","","","null","Wrong","Feedback","","null","","","","","","","","","","","","",""
"","call-function","398","369701","0.0-696.0-2.0","ffscwef9","","","","","","","","","","","","","","","","","","","","","","","","","","","","","",""
"","html-keyboard-response","399","370461","0.0-697.0","ffscwef9","1366","768","","","","","","","","","","","null","+","Fixation - short","","null","","","","","","","","","","","","",""
"","html-keyboard-response","400","370876","0.0-698.0","ffscwef9","1366","768","","","","","","","","","","","412","snx","Diagnostic trial","","f","12","11","false","true","LEFT","f","1","","RIGHT","false","","",""
"","html-keyboard-response","401","371635","0.0-701.0","ffscwef9","1366","768","","","","","","","","","","","null","+","Fixation - short","","null","","","","","","","","","","","","",""
"","html-keyboard-response","402","372059","0.0-702.0","ffscwef9","1366","768","","","","","","","","","","","421","snx","Diagnostic trial","","f","12","12","false","false","RIGHT","j","0","","RIGHT","true","","",""
"","call-function","403","372060","0.0-704.0-0.0","ffscwef9","","","","","","","","","","","","","","","","","","","","","","","","","","","","","",""
"","html-keyboard-response","404","372369","0.0-704.0-1.0","ffscwef9","1366","768","","","","","","","","","","","null","Wrong","Feedback","","null","","","","","","","","","","","","",""
"","call-function","405","372370","0.0-704.0-2.0","ffscwef9","","","","","","","","","","","","","","","","","","","","","","","","","","","","","",""
"","html-keyboard-response","406","373122","0.0-705.0","ffscwef9","1366","768","","","","","","","","","","","null","+","Fixation - short","","null","","","","","","","","","","","","",""
"","html-keyboard-response","407","373609","0.0-706.0","ffscwef9","1366","768","","","","","","","","","","","485","vrm","Diagnostic trial","","f","12","13","false","true","LEFT","f","1","","LEFT","true","","",""
"","html-keyboard-response","408","374368","0.0-709.0","ffscwef9","1366","768","","","","","","","","","","","null","+","Fixation - short","","null","","","","","","","","","","","","",""
"","html-keyboard-response","409","374796","0.0-710.0","ffscwef9","1366","768","","","","","","","","","","","425","snx","Diagnostic trial","","f","12","14","false","true","LEFT","f","1","","RIGHT","false","","",""
"","html-keyboard-response","410","375565","0.0-713.0","ffscwef9","1366","768","","","","","","","","","","","null","+","Fixation - short","","null","","","","","","","","","","","","",""
"","html-keyboard-response","411","376059","0.0-714.0","ffscwef9","1366","768","","","","","","","","","","","491","snx","Diagnostic trial","","j","12","15","false","false","RIGHT","j","1","","RIGHT","true","","",""
"","html-keyboard-response","412","376812","0.0-717.0","ffscwef9","1366","768","","","","","","","","","","","null","+","Fixation - short","","null","","","","","","","","","","","","",""
"","html-keyboard-response","413","377479","0.0-718.0","ffscwef9","1366","768","","","","","","","","","","","665","vrm","Inducer trial","","f","12","","true","","","f","1","LEFT","","","","",""
"","html-keyboard-response","414","378988","0.0-721.0","ffscwef9","1366","768","","","","","","","","","","","null","+","Fixation - long","","null","","","","","","","","","","","","",""
"","html-keyboard-response","415","380170","0.0-722.0","ffscwef9","1366","768","","","","","","","","","","","1180","If lff press LEFT | If vle press RIGHT","Inducer instructions",""," ","13","","","","","","","","","","","",""
"","html-keyboard-response","416","380931","0.0-723.0","ffscwef9","1366","768","","","","","","","","","","","null","+","Fixation - short","","null","","","","","","","","","","","","",""
"","html-keyboard-response","417","381388","0.0-724.0","ffscwef9","1366","768","","","","","","","","","","","456","vle","Diagnostic trial","","j","13","0","false","false","RIGHT","j","1","","RIGHT","true","","",""
"","html-keyboard-response","418","382142","0.0-727.0","ffscwef9","1366","768","","","","","","","","","","","null","+","Fixation - short","","null","","","","","","","","","","","","",""
"","html-keyboard-response","419","382566","0.0-728.0","ffscwef9","1366","768","","","","","","","","","","","422","vle","Diagnostic trial","","j","13","1","false","false","RIGHT","j","1","","RIGHT","true","","",""
"","html-keyboard-response","420","383322","0.0-731.0","ffscwef9","1366","768","","","","","","","","","","","null","+","Fixation - short","","null","","","","","","","","","","","","",""
"","html-keyboard-response","421","383756","0.0-732.0","ffscwef9","1366","768","","","","","","","","","","","432","lff","Diagnostic trial","","j","13","2","false","false","RIGHT","j","1","","LEFT","false","","",""
"","html-keyboard-response","422","384509","0.0-735.0","ffscwef9","1366","768","","","","","","","","","","","null","+","Fixation - short","","null","","","","","","","","","","","","",""
"","html-keyboard-response","423","384957","0.0-736.0","ffscwef9","1366","768","","","","","","","","","","","446","vle","Diagnostic trial","","f","13","3","false","true","LEFT","f","1","","RIGHT","false","","",""
"","html-keyboard-response","424","385712","0.0-739.0","ffscwef9","1366","768","","","","","","","","","","","null","+","Fixation - short","","null","","","","","","","","","","","","",""
"","html-keyboard-response","425","386126","0.0-740.0","ffscwef9","1366","768","","","","","","","","","","","412","vle","Diagnostic trial","","f","13","4","false","true","LEFT","f","1","","RIGHT","false","","",""
"","html-keyboard-response","426","386886","0.0-743.0","ffscwef9","1366","768","","","","","","","","","","","null","+","Fixation - short","","null","","","","","","","","","","","","",""
"","html-keyboard-response","427","387275","0.0-744.0","ffscwef9","1366","768","","","","","","","","","","","387","lff","Diagnostic trial","","f","13","5","false","true","LEFT","f","1","","LEFT","true","","",""
"","html-keyboard-response","428","388032","0.0-747.0","ffscwef9","1366","768","","","","","","","","","","","null","+","Fixation - short","","null","","","","","","","","","","","","",""
"","html-keyboard-response","429","388453","0.0-748.0","ffscwef9","1366","768","","","","","","","","","","","419","lff","Diagnostic trial","","f","13","6","false","true","LEFT","f","1","","LEFT","true","","",""
"","html-keyboard-response","430","389218","0.0-751.0","ffscwef9","1366","768","","","","","","","","","","","null","+","Fixation - short","","null","","","","","","","","","","","","",""
"","html-keyboard-response","431","389612","0.0-752.0","ffscwef9","1366","768","","","","","","","","","","","393","vle","Diagnostic trial","","j","13","7","false","false","RIGHT","j","1","","RIGHT","true","","",""
"","html-keyboard-response","432","390369","0.0-755.0","ffscwef9","1366","768","","","","","","","","","","","null","+","Fixation - short","","null","","","","","","","","","","","","",""
"","html-keyboard-response","433","390858","0.0-756.0","ffscwef9","1366","768","","","","","","","","","","","487","vle","Diagnostic trial","","f","13","8","false","true","LEFT","f","1","","RIGHT","false","","",""
"","html-keyboard-response","434","391623","0.0-759.0","ffscwef9","1366","768","","","","","","","","","","","null","+","Fixation - short","","null","","","","","","","","","","","","",""
"","html-keyboard-response","435","392259","0.0-760.0","ffscwef9","1366","768","","","","","","","","","","","633","lff","Inducer trial","","f","13","","true","","","f","1","LEFT","","","","",""
"","html-keyboard-response","436","393764","0.0-763.0","ffscwef9","1366","768","","","","","","","","","","","null","+","Fixation - long","","null","","","","","","","","","","","","",""
"","html-keyboard-response","437","394358","0.0-764.0","ffscwef9","1366","768","","","","","","","","","","","592","If csp press LEFT | If dul press RIGHT","Inducer instructions",""," ","14","","","","","","","","","","","",""
"","html-keyboard-response","438","395121","0.0-765.0","ffscwef9","1366","768","","","","","","","","","","","null","+","Fixation - short","","null","","","","","","","","","","","","",""
"","html-keyboard-response","439","395599","0.0-766.0","ffscwef9","1366","768","","","","","","","","","","","476","dul","Diagnostic trial","","j","14","0","false","false","RIGHT","j","1","","RIGHT","true","","",""
"","html-keyboard-response","440","396366","0.0-769.0","ffscwef9","1366","768","","","","","","","","","","","null","+","Fixation - short","","null","","","","","","","","","","","","",""
"","html-keyboard-response","441","396800","0.0-770.0","ffscwef9","1366","768","","","","","","","","","","","431","csp","Diagnostic trial","","f","14","1","false","true","LEFT","f","1","","LEFT","true","","",""
"","html-keyboard-response","442","397554","0.0-773.0","ffscwef9","1366","768","","","","","","","","","","","null","+","Fixation - short","","null","","","","","","","","","","","","",""
"","html-keyboard-response","443","398015","0.0-774.0","ffscwef9","1366","768","","","","","","","","","","","459","csp","Diagnostic trial","","j","14","2","false","false","RIGHT","j","1","","LEFT","false","","",""
"","html-keyboard-response","444","398784","0.0-777.0","ffscwef9","1366","768","","","","","","","","","","","null","+","Fixation - short","","null","","","","","","","","","","","","",""
"","html-keyboard-response","445","399278","0.0-778.0","ffscwef9","1366","768","","","","","","","","","","","491","csp","Diagnostic trial","","f","14","3","false","true","LEFT","f","1","","LEFT","true","","",""
"","html-keyboard-response","446","400044","0.0-781.0","ffscwef9","1366","768","","","","","","","","","","","null","+","Fixation - short","","null","","","","","","","","","","","","",""
"","html-keyboard-response","447","400429","0.0-782.0","ffscwef9","1366","768","","","","","","","","","","","383","csp","Diagnostic trial","","f","14","4","false","true","LEFT","f","1","","LEFT","true","","",""
"","html-keyboard-response","448","401182","0.0-785.0","ffscwef9","1366","768","","","","","","","","","","","null","+","Fixation - short","","null","","","","","","","","","","","","",""
"","html-keyboard-response","449","401702","0.0-786.0","ffscwef9","1366","768","","","","","","","","","","","518","csp","Inducer trial","","f","14","","true","","","f","1","LEFT","","","","",""
"","html-keyboard-response","450","403214","0.0-789.0","ffscwef9","1366","768","","","","","","","","","","","null","+","Fixation - long","","null","","","","","","","","","","","","",""
"","html-keyboard-response","451","403762","0.0-790.0","ffscwef9","1366","768","","","","","","","","","","","545","If rpw press LEFT | If anz press RIGHT","Inducer instructions",""," ","15","","","","","","","","","","","",""
"","html-keyboard-response","452","404517","0.0-791.0","ffscwef9","1366","768","","","","","","","","","","","null","+","Fixation - short","","null","","","","","","","","","","","","",""
"","html-keyboard-response","453","405398","0.0-792.0","ffscwef9","1366","768","","","","","","","","","","","876","rpw","Diagnostic trial","","j","15","0","false","false","RIGHT","j","1","","LEFT","false","","",""
"","html-keyboard-response","454","406151","0.0-795.0","ffscwef9","1366","768","","","","","","","","","","","null","+","Fixation - short","","null","","","","","","","","","","","","",""
"","html-keyboard-response","455","406643","0.0-796.0","ffscwef9","1366","768","","","","","","","","","","","490","anz","Diagnostic trial","","f","15","1","false","true","LEFT","f","1","","RIGHT","false","","",""
"","html-keyboard-response","456","407403","0.0-799.0","ffscwef9","1366","768","","","","","","","","","","","null","+","Fixation - short","","null","","","","","","","","","","","","",""
"","html-keyboard-response","457","408115","0.0-800.0","ffscwef9","1366","768","","","","","","","","","","","710","anz","Diagnostic trial","","j","15","2","false","false","RIGHT","j","1","","RIGHT","true","","",""
"","html-keyboard-response","458","408883","0.0-803.0","ffscwef9","1366","768","","","","","","","","","","","null","+","Fixation - short","","null","","","","","","","","","","","","",""
"","html-keyboard-response","459","409651","0.0-804.0","ffscwef9","1366","768","","","","","","","","","","","766","anz","Diagnostic trial","","f","15","3","false","true","LEFT","f","1","","RIGHT","false","","",""
"","html-keyboard-response","460","410406","0.0-807.0","ffscwef9","1366","768","","","","","","","","","","","null","+","Fixation - short","","null","","","","","","","","","","","","",""
"","html-keyboard-response","461","410949","0.0-808.0","ffscwef9","1366","768","","","","","","","","","","","541","rpw","Diagnostic trial","","j","15","4","false","false","RIGHT","j","1","","LEFT","false","","",""
"","html-keyboard-response","462","411705","0.0-811.0","ffscwef9","1366","768","","","","","","","","","","","null","+","Fixation - short","","null","","","","","","","","","","","","",""
"","html-keyboard-response","463","412195","0.0-812.0","ffscwef9","1366","768","","","","","","","","","","","487","rpw","Diagnostic trial","","j","15","5","false","false","RIGHT","j","1","","LEFT","false","","",""
"","html-keyboard-response","464","412967","0.0-815.0","ffscwef9","1366","768","","","","","","","","","","","null","+","Fixation - short","","null","","","","","","","","","","","","",""
"","html-keyboard-response","465","413475","0.0-816.0","ffscwef9","1366","768","","","","","","","","","","","505","anz","Diagnostic trial","","f","15","6","false","true","LEFT","f","1","","RIGHT","false","","",""
"","html-keyboard-response","466","414235","0.0-819.0","ffscwef9","1366","768","","","","","","","","","","","null","+","Fixation - short","","null","","","","","","","","","","","","",""
"","html-keyboard-response","467","414700","0.0-820.0","ffscwef9","1366","768","","","","","","","","","","","463","anz","Diagnostic trial","","f","15","7","false","true","LEFT","f","1","","RIGHT","false","","",""
"","html-keyboard-response","468","415458","0.0-823.0","ffscwef9","1366","768","","","","","","","","","","","null","+","Fixation - short","","null","","","","","","","","","","","","",""
"","html-keyboard-response","469","415943","0.0-824.0","ffscwef9","1366","768","","","","","","","","","","","482","rpw","Diagnostic trial","","j","15","8","false","false","RIGHT","j","1","","LEFT","false","","",""
"","html-keyboard-response","470","416700","0.0-827.0","ffscwef9","1366","768","","","","","","","","","","","null","+","Fixation - short","","null","","","","","","","","","","","","",""
"","html-keyboard-response","471","417233","0.0-828.0","ffscwef9","1366","768","","","","","","","","","","","530","anz","Diagnostic trial","","j","15","9","false","false","RIGHT","j","1","","RIGHT","true","","",""
"","html-keyboard-response","472","417986","0.0-831.0","ffscwef9","1366","768","","","","","","","","","","","null","+","Fixation - short","","null","","","","","","","","","","","","",""
"","html-keyboard-response","473","418427","0.0-832.0","ffscwef9","1366","768","","","","","","","","","","","439","anz","Diagnostic trial","","f","15","10","false","true","LEFT","f","1","","RIGHT","false","","",""
"","html-keyboard-response","474","419188","0.0-835.0","ffscwef9","1366","768","","","","","","","","","","","null","+","Fixation - short","","null","","","","","","","","","","","","",""
"","html-keyboard-response","475","419859","0.0-836.0","ffscwef9","1366","768","","","","","","","","","","","669","rpw","Inducer trial","","f","15","","true","","","f","1","LEFT","","","","",""
"","html-keyboard-response","476","421364","0.0-839.0","ffscwef9","1366","768","","","","","","","","","","","null","+","Fixation - long","","null","","","","","","","","","","","","",""
"","html-keyboard-response","477","421860","0.0-840.0","ffscwef9","1366","768","","","","","","","","","","","493","If jsf press LEFT | If pph press RIGHT","Inducer instructions",""," ","16","","","","","","","","","","","",""
"","html-keyboard-response","478","422623","0.0-841.0","ffscwef9","1366","768","","","","","","","","","","","null","+","Fixation - short","","null","","","","","","","","","","","","",""
"","html-keyboard-response","479","423101","0.0-842.0","ffscwef9","1366","768","","","","","","","","","","","476","jsf","Diagnostic trial","","f","16","0","false","false","RIGHT","j","0","","LEFT","false","","",""
"","call-function","480","423103","0.0-844.0-0.0","ffscwef9","","","","","","","","","","","","","","","","","","","","","","","","","","","","","",""
"","html-keyboard-response","481","423408","0.0-844.0-1.0","ffscwef9","1366","768","","","","","","","","","","","null","Wrong","Feedback","","null","","","","","","","","","","","","",""
"","call-function","482","423410","0.0-844.0-2.0","ffscwef9","","","","","","","","","","","","","","","","","","","","","","","","","","","","","",""
"","html-keyboard-response","483","424177","0.0-845.0","ffscwef9","1366","768","","","","","","","","","","","null","+","Fixation - short","","null","","","","","","","","","","","","",""
"","html-keyboard-response","484","424641","0.0-846.0","ffscwef9","1366","768","","","","","","","","","","","462","jsf","Diagnostic trial","","f","16","1","false","true","LEFT","f","1","","LEFT","true","","",""
"","html-keyboard-response","485","425405","0.0-849.0","ffscwef9","1366","768","","","","","","","","","","","null","+","Fixation - short","","null","","","","","","","","","","","","",""
"","html-keyboard-response","486","425889","0.0-850.0","ffscwef9","1366","768","","","","","","","","","","","482","pph","Diagnostic trial","","j","16","2","false","false","RIGHT","j","1","","RIGHT","true","","",""
"","html-keyboard-response","487","426659","0.0-853.0","ffscwef9","1366","768","","","","","","","","","","","null","+","Fixation - short","","null","","","","","","","","","","","","",""
"","html-keyboard-response","488","427140","0.0-854.0","ffscwef9","1366","768","","","","","","","","","","","480","jsf","Diagnostic trial","","f","16","3","false","true","LEFT","f","1","","LEFT","true","","",""
"","html-keyboard-response","489","427898","0.0-857.0","ffscwef9","1366","768","","","","","","","","","","","null","+","Fixation - short","","null","","","","","","","","","","","","",""
"","html-keyboard-response","490","428347","0.0-858.0","ffscwef9","1366","768","","","","","","","","","","","447","jsf","Diagnostic trial","","j","16","4","false","false","RIGHT","j","1","","LEFT","false","","",""
"","html-keyboard-response","491","429100","0.0-861.0","ffscwef9","1366","768","","","","","","","","","","","null","+","Fixation - short","","null","","","","","","","","","","","","",""
"","html-keyboard-response","492","429525","0.0-862.0","ffscwef9","1366","768","","","","","","","","","","","423","jsf","Diagnostic trial","","f","16","5","false","true","LEFT","f","1","","LEFT","true","","",""
"","html-keyboard-response","493","430290","0.0-865.0","ffscwef9","1366","768","","","","","","","","","","","null","+","Fixation - short","","null","","","","","","","","","","","","",""
"","html-keyboard-response","494","431080","0.0-866.0","ffscwef9","1366","768","","","","","","","","","","","788","jsf","Diagnostic trial","","j","16","6","false","false","RIGHT","j","1","","LEFT","false","","",""
"","html-keyboard-response","495","431845","0.0-869.0","ffscwef9","1366","768","","","","","","","","","","","null","+","Fixation - short","","null","","","","","","","","","","","","",""
"","html-keyboard-response","496","432280","0.0-870.0","ffscwef9","1366","768","","","","","","","","","","","433","jsf","Diagnostic trial","","f","16","7","false","true","LEFT","f","1","","LEFT","true","","",""
"","html-keyboard-response","497","433036","0.0-873.0","ffscwef9","1366","768","","","","","","","","","","","null","+","Fixation - short","","null","","","","","","","","","","","","",""
"","html-keyboard-response","498","433486","0.0-874.0","ffscwef9","1366","768","","","","","","","","","","","448","pph","Diagnostic trial","","j","16","8","false","false","RIGHT","j","1","","RIGHT","true","","",""
"","html-keyboard-response","499","434246","0.0-877.0","ffscwef9","1366","768","","","","","","","","","","","null","+","Fixation - short","","null","","","","","","","","","","","","",""
"","html-keyboard-response","500","434870","0.0-878.0","ffscwef9","1366","768","","","","","","","","","","","622","pph","Diagnostic trial","","j","16","9","false","true","LEFT","f","0","","RIGHT","false","","",""
