"value","trial_type","trial_index","time_elapsed","internal_node_id","id","width","height","webaudio","browser","browser_version","mobile","os","fullscreen","vsync_rate","webcam","microphone","view_history","rt","stimulus","trial_info","success","response","inducer_run","diagnostic_run","inducer_trial","italic","correct_diag_response_side","correct_response_key","correct_response","correct_indu_response_side","correct_inducer_response_side","congruent","accuracy","open_feedback","interactive"
"","call-function","0","2","0.0-0.0","foco8xjj","","","","","","","","","","","","","","","","","","","","","","","","","","","","","",""
"","browser-check","1","9543","0.0-1.0","foco8xjj","2560","1271","true","chrome","121.0.0","false","Windows 10","true","60.53","false","true","","","","","","","","","","","","","","","","","","",""
"","instructions","2","78827","0.0-2.0","foco8xjj","","","","","","","","","","","","[{""page_index"":0,""viewing_time"":6772},{""page_index"":1,""viewing_time"":25908},{""page_index"":2,""viewing_time"":1753},{""page_index"":1,""viewing_time"":918},{""page_index"":0,""viewing_time"":18553},{""page_index"":1,""viewing_time"":13153},{""page_index"":2,""viewing_time"":2226}]","69283","The experiment and consent","The experiment and consent","","","","","","","","","","","","","","",""
"","fullscreen","3","81140","0.0-3.0","foco8xjj","2560","1440","","","","","","","","","","","1299","","Full screen","true","","","","","","","","","","","","","",""
"","instructions","4","107266","0.0-4.0","foco8xjj","2560","1440","","","","","","","","","","[{""page_index"":0,""viewing_time"":20098},{""page_index"":1,""viewing_time"":6027}]","26125","Instructions","Basic overview explanation","","","","","","","","","","","","","","",""
"","html-keyboard-response","5","114896","0.0-5.0","foco8xjj","2560","1440","","","","","","","","","","","6119","If italic press RIGHT | If upright press LEFT","Diagnostic instructions",""," ","","","","","","","","","","","","",""
"","html-keyboard-response","6","115650","0.0-6.0","foco8xjj","2560","1440","","","","","","","","","","","null","+","Fixation - short","","null","","","","","","","","","","","","",""
"","html-keyboard-response","7","116391","0.0-7.0","foco8xjj","2560","1440","","","","","","","","","","","741","ofa","Practice diganostic trial","","f","practice","0","false","0","LEFT","f","1","","","","","",""
"","html-keyboard-response","8","117147","0.0-10.0","foco8xjj","2560","1440","","","","","","","","","","","null","+","Fixation - short","","null","","","","","","","","","","","","",""
"","html-keyboard-response","9","118952","0.0-11.0","foco8xjj","2560","1440","","","","","","","","","","","1803","ofa","Practice diganostic trial","","j","practice","1","false","1","RIGHT","j","1","","","","","",""
"","html-keyboard-response","10","119718","0.0-14.0","foco8xjj","2560","1440","","","","","","","","","","","null","+","Fixation - short","","null","","","","","","","","","","","","",""
"","html-keyboard-response","11","121047","0.0-15.0","foco8xjj","2560","1440","","","","","","","","","","","1329","ofa","Practice diganostic trial","","j","practice","2","false","0","LEFT","f","0","","","","","",""
"","call-function","12","121047","0.0-17.0-0.0","foco8xjj","","","","","","","","","","","","","","","","","","","","","","","","","","","","","",""
"","html-keyboard-response","13","121356","0.0-17.0-1.0","foco8xjj","2560","1440","","","","","","","","","","","null","Wrong","Feedback","","null","","","","","","","","","","","","",""
"","call-function","14","121356","0.0-17.0-2.0","foco8xjj","","","","","","","","","","","","","","","","","","","","","","","","","","","","","",""
"","html-keyboard-response","15","122120","0.0-18.0","foco8xjj","2560","1440","","","","","","","","","","","null","+","Fixation - short","","null","","","","","","","","","","","","",""
"","html-keyboard-response","16","123263","0.0-19.0","foco8xjj","2560","1440","","","","","","","","","","","1143","lff","Practice diganostic trial","","j","practice","3","false","1","RIGHT","j","1","","","","","",""
"","html-keyboard-response","17","124020","0.0-22.0","foco8xjj","2560","1440","","","","","","","","","","","null","+","Fixation - short","","null","","","","","","","","","","","","",""
"","html-keyboard-response","18","124751","0.0-23.0","foco8xjj","2560","1440","","","","","","","","","","","731","ofa","Practice diganostic trial","","j","practice","4","false","1","RIGHT","j","1","","","","","",""
"","html-keyboard-response","19","125516","0.0-26.0","foco8xjj","2560","1440","","","","","","","","","","","null","+","Fixation - short","","null","","","","","","","","","","","","",""
"","html-keyboard-response","20","126223","0.0-27.0","foco8xjj","2560","1440","","","","","","","","","","","706","ofa","Practice diganostic trial","","f","practice","5","false","0","LEFT","f","1","","","","","",""
"","html-keyboard-response","21","126984","0.0-30.0","foco8xjj","2560","1440","","","","","","","","","","","null","+","Fixation - short","","null","","","","","","","","","","","","",""
"","html-keyboard-response","22","127471","0.0-31.0","foco8xjj","2560","1440","","","","","","","","","","","487","ofa","Practice diganostic trial","","f","practice","6","false","0","LEFT","f","1","","","","","",""
"","html-keyboard-response","23","128235","0.0-34.0","foco8xjj","2560","1440","","","","","","","","","","","null","+","Fixation - short","","null","","","","","","","","","","","","",""
"","html-keyboard-response","24","128703","0.0-35.0","foco8xjj","2560","1440","","","","","","","","","","","468","lff","Practice diganostic trial","","j","practice","7","false","1","RIGHT","j","1","","","","","",""
"","html-keyboard-response","25","129456","0.0-38.0","foco8xjj","2560","1440","","","","","","","","","","","null","+","Fixation - short","","null","","","","","","","","","","","","",""
"","html-keyboard-response","26","129943","0.0-39.0","foco8xjj","2560","1440","","","","","","","","","","","487","ofa","Practice diganostic trial","","f","practice","8","false","0","LEFT","f","1","","","","","",""
"","html-keyboard-response","27","130704","0.0-42.0","foco8xjj","2560","1440","","","","","","","","","","","null","+","Fixation - short","","null","","","","","","","","","","","","",""
"","html-keyboard-response","28","131391","0.0-43.0","foco8xjj","2560","1440","","","","","","","","","","","686","ofa","Practice diganostic trial","","f","practice","9","false","0","LEFT","f","1","","","","","",""
"","html-keyboard-response","29","132157","0.0-46.0","foco8xjj","2560","1440","","","","","","","","","","","null","+","Fixation - short","","null","","","","","","","","","","","","",""
"","html-keyboard-response","30","132743","0.0-47.0","foco8xjj","2560","1440","","","","","","","","","","","586","ofa","Practice diganostic trial","","j","practice","10","false","1","RIGHT","j","1","","","","","",""
"","html-keyboard-response","31","133500","0.0-50.0","foco8xjj","2560","1440","","","","","","","","","","","null","+","Fixation - short","","null","","","","","","","","","","","","",""
"","html-keyboard-response","32","134064","0.0-51.0","foco8xjj","2560","1440","","","","","","","","","","","563","ofa","Practice diganostic trial","","f","practice","11","false","0","LEFT","f","1","","","","","",""
"","html-keyboard-response","33","134827","0.0-54.0","foco8xjj","2560","1440","","","","","","","","","","","null","+","Fixation - short","","null","","","","","","","","","","","","",""
"","html-keyboard-response","34","135447","0.0-55.0","foco8xjj","2560","1440","","","","","","","","","","","620","lff","Practice diganostic trial","","f","practice","12","false","1","RIGHT","j","0","","","","","",""
"","call-function","35","135447","0.0-57.0-0.0","foco8xjj","","","","","","","","","","","","","","","","","","","","","","","","","","","","","",""
"","html-keyboard-response","36","135763","0.0-57.0-1.0","foco8xjj","2560","1440","","","","","","","","","","","null","Wrong","Feedback","","null","","","","","","","","","","","","",""
"","call-function","37","135763","0.0-57.0-2.0","foco8xjj","","","","","","","","","","","","","","","","","","","","","","","","","","","","","",""
"","html-keyboard-response","38","136528","0.0-58.0","foco8xjj","2560","1440","","","","","","","","","","","null","+","Fixation - short","","null","","","","","","","","","","","","",""
"","html-keyboard-response","39","137551","0.0-59.0","foco8xjj","2560","1440","","","","","","","","","","","1023","lff","Practice diganostic trial","","j","practice","13","false","1","RIGHT","j","1","","","","","",""
"","html-keyboard-response","40","138314","0.0-62.0","foco8xjj","2560","1440","","","","","","","","","","","null","+","Fixation - short","","null","","","","","","","","","","","","",""
"","html-keyboard-response","41","139080","0.0-63.0","foco8xjj","2560","1440","","","","","","","","","","","766","ofa","Practice diganostic trial","","f","practice","14","false","0","LEFT","f","1","","","","","",""
"","html-keyboard-response","42","139843","0.0-66.0","foco8xjj","2560","1440","","","","","","","","","","","null","+","Fixation - short","","null","","","","","","","","","","","","",""
"","html-keyboard-response","43","140327","0.0-67.0","foco8xjj","2560","1440","","","","","","","","","","","483","ofa","Practice diganostic trial","","j","practice","15","false","1","RIGHT","j","1","","","","","",""
"","html-keyboard-response","44","141091","0.0-70.0","foco8xjj","2560","1440","","","","","","","","","","","null","+","Fixation - short","","null","","","","","","","","","","","","",""
"","instructions","45","148682","0.0-71.0","foco8xjj","2560","1440","","","","","","","","","","[{""page_index"":0,""viewing_time"":7590}]","7590","Instructions","Final experiment explanation","","","","","","","","","","","","","","",""
"","html-keyboard-response","46","159039","0.0-72.0","foco8xjj","2560","1440","","","","","","","","","","","8855","If kho press RIGHT | If quy press LEFT","Practice inducer instructions",""," ","practice","","","","","","","","","","","",""
"","html-keyboard-response","47","159847","0.0-73.0","foco8xjj","2560","1440","","","","","","","","","","","807","","Practice inducer trial","","j","practice","","true","","","j","1","RIGHT","","","","",""
"","html-keyboard-response","48","160601","0.0-76.0","foco8xjj","2560","1440","","","","","","","","","","","null","+","Fixation - short","","null","","","","","","","","","","","","",""
"","html-keyboard-response","49","164415","0.0-77.0","foco8xjj","2560","1440","","","","","","","","","","","3814","If ydi press RIGHT | If ndm press LEFT","Practice inducer instructions",""," ","practice","","","","","","","","","","","",""
"","html-keyboard-response","50","165279","0.0-78.0","foco8xjj","2560","1440","","","","","","","","","","","863","","Practice inducer trial","","j","practice","","true","","","j","1","RIGHT","","","","",""
"","html-keyboard-response","51","166038","0.0-81.0","foco8xjj","2560","1440","","","","","","","","","","","null","+","Fixation - short","","null","","","","","","","","","","","","",""
"","html-keyboard-response","52","167247","0.0-82.0","foco8xjj","2560","1440","","","","","","","","","","","1208","If mts press RIGHT | If adj press LEFT","Practice inducer instructions",""," ","practice","","","","","","","","","","","",""
"","html-keyboard-response","53","168055","0.0-83.0","foco8xjj","2560","1440","","","","","","","","","","","808","","Practice inducer trial","","f","practice","","true","","","f","1","LEFT","","","","",""
"","html-keyboard-response","54","168815","0.0-86.0","foco8xjj","2560","1440","","","","","","","","","","","null","+","Fixation - short","","null","","","","","","","","","","","","",""
"","html-keyboard-response","55","170863","0.0-87.0","foco8xjj","2560","1440","","","","","","","","","","","2048","If fja press RIGHT | If rpw press LEFT","Practice inducer instructions",""," ","practice","","","","","","","","","","","",""
"","html-keyboard-response","56","171551","0.0-88.0","foco8xjj","2560","1440","","","","","","","","","","","687","","Practice inducer trial","","j","practice","","true","","","j","1","RIGHT","","","","",""
"","html-keyboard-response","57","172312","0.0-91.0","foco8xjj","2560","1440","","","","","","","","","","","null","+","Fixation - short","","null","","","","","","","","","","","","",""
"","html-keyboard-response","58","173991","0.0-92.0","foco8xjj","2560","1440","","","","","","","","","","","1678","If dpa press RIGHT | If jcr press LEFT","Practice inducer instructions",""," ","practice","","","","","","","","","","","",""
"","html-keyboard-response","59","174951","0.0-93.0","foco8xjj","2560","1440","","","","","","","","","","","960","","Practice inducer trial","","f","practice","","true","","","f","1","LEFT","","","","",""
"","html-keyboard-response","60","175712","0.0-96.0","foco8xjj","2560","1440","","","","","","","","","","","null","+","Fixation - short","","null","","","","","","","","","","","","",""
"","html-keyboard-response","61","177079","0.0-97.0","foco8xjj","2560","1440","","","","","","","","","","","1366","If cer press RIGHT | If ufc press LEFT","Practice inducer instructions",""," ","practice","","","","","","","","","","","",""
"","html-keyboard-response","62","177559","0.0-98.0","foco8xjj","2560","1440","","","","","","","","","","","480","","Practice inducer trial","","j","practice","","true","","","f","0","LEFT","","","","",""
"","call-function","63","177559","0.0-100.0-0.0","foco8xjj","","","","","","","","","","","","","","","","","","","","","","","","","","","","","",""
"","html-keyboard-response","64","177868","0.0-100.0-1.0","foco8xjj","2560","1440","","","","","","","","","","","null","Wrong","Feedback","","null","","","","","","","","","","","","",""
"","call-function","65","177868","0.0-100.0-2.0","foco8xjj","","","","","","","","","","","","","","","","","","","","","","","","","","","","","",""
"","html-keyboard-response","66","178633","0.0-101.0","foco8xjj","2560","1440","","","","","","","","","","","null","+","Fixation - short","","null","","","","","","","","","","","","",""
"","html-keyboard-response","67","180935","0.0-102.0","foco8xjj","2560","1440","","","","","","","","","","","2301","End practice","End of practice",""," ","","","","","","","","","","","","",""
"","html-keyboard-response","68","182441","0.0-103.0","foco8xjj","2560","1440","","","","","","","","","","","null","+","Fixation - long","","null","","","","","","","","","","","","",""
"","html-keyboard-response","69","185735","0.0-104.0","foco8xjj","2560","1440","","","","","","","","","","","3294","If xlv press RIGHT | If snx press LEFT","Inducer instructions",""," ","0","","","","","","","","","","","",""
"","html-keyboard-response","70","186498","0.0-105.0","foco8xjj","2560","1440","","","","","","","","","","","null","+","Fixation - short","","null","","","","","","","","","","","","",""
"","html-keyboard-response","71","188239","0.0-106.0","foco8xjj","2560","1440","","","","","","","","","","","1741","snx","Diagnostic trial","","f","0","0","false","true","RIGHT","j","0","","RIGHT","true","","",""
"","call-function","72","188239","0.0-108.0-0.0","foco8xjj","","","","","","","","","","","","","","","","","","","","","","","","","","","","","",""
"","html-keyboard-response","73","188541","0.0-108.0-1.0","foco8xjj","2560","1440","","","","","","","","","","","null","Wrong","Feedback","","null","","","","","","","","","","","","",""
"","call-function","74","188541","0.0-108.0-2.0","foco8xjj","","","","","","","","","","","","","","","","","","","","","","","","","","","","","",""
"","html-keyboard-response","75","189305","0.0-109.0","foco8xjj","2560","1440","","","","","","","","","","","null","+","Fixation - short","","null","","","","","","","","","","","","",""
"","html-keyboard-response","76","190478","0.0-110.0","foco8xjj","2560","1440","","","","","","","","","","","1173","snx","Diagnostic trial","","f","0","1","false","false","LEFT","f","1","","RIGHT","false","","",""
"","html-keyboard-response","77","191240","0.0-113.0","foco8xjj","2560","1440","","","","","","","","","","","null","+","Fixation - short","","null","","","","","","","","","","","","",""
"","html-keyboard-response","78","192271","0.0-114.0","foco8xjj","2560","1440","","","","","","","","","","","1030","snx","Diagnostic trial","","j","0","2","false","true","RIGHT","j","1","","RIGHT","true","","",""
"","html-keyboard-response","79","193023","0.0-117.0","foco8xjj","2560","1440","","","","","","","","","","","null","+","Fixation - short","","null","","","","","","","","","","","","",""
"","html-keyboard-response","80","194503","0.0-118.0","foco8xjj","2560","1440","","","","","","","","","","","1479","xlv","Diagnostic trial","","j","0","3","false","false","LEFT","f","0","","LEFT","true","","",""
"","call-function","81","194503","0.0-120.0-0.0","foco8xjj","","","","","","","","","","","","","","","","","","","","","","","","","","","","","",""
"","html-keyboard-response","82","194810","0.0-120.0-1.0","foco8xjj","2560","1440","","","","","","","","","","","null","Wrong","Feedback","","null","","","","","","","","","","","","",""
"","call-function","83","194810","0.0-120.0-2.0","foco8xjj","","","","","","","","","","","","","","","","","","","","","","","","","","","","","",""
"","html-keyboard-response","84","195576","0.0-121.0","foco8xjj","2560","1440","","","","","","","","","","","null","+","Fixation - short","","null","","","","","","","","","","","","",""
"","html-keyboard-response","85","197431","0.0-122.0","foco8xjj","2560","1440","","","","","","","","","","","1854","xlv","Diagnostic trial","","j","0","4","false","true","RIGHT","j","1","","LEFT","false","","",""
"","html-keyboard-response","86","198181","0.0-125.0","foco8xjj","2560","1440","","","","","","","","","","","null","+","Fixation - short","","null","","","","","","","","","","","","",""
"","html-keyboard-response","87","199519","0.0-126.0","foco8xjj","2560","1440","","","","","","","","","","","1337","snx","Diagnostic trial","","f","0","5","false","false","LEFT","f","1","","RIGHT","false","","",""
"","html-keyboard-response","88","200273","0.0-129.0","foco8xjj","2560","1440","","","","","","","","","","","null","+","Fixation - short","","null","","","","","","","","","","","","",""
"","html-keyboard-response","89","201726","0.0-130.0","foco8xjj","2560","1440","","","","","","","","","","","1453","snx","Diagnostic trial","","j","0","6","false","true","RIGHT","j","1","","RIGHT","true","","",""
"","html-keyboard-response","90","202490","0.0-133.0","foco8xjj","2560","1440","","","","","","","","","","","null","+","Fixation - short","","null","","","","","","","","","","","","",""
"","html-keyboard-response","91","203967","0.0-134.0","foco8xjj","2560","1440","","","","","","","","","","","1476","snx","Diagnostic trial","","j","0","7","false","false","LEFT","f","0","","RIGHT","false","","",""
"","call-function","92","203967","0.0-136.0-0.0","foco8xjj","","","","","","","","","","","","","","","","","","","","","","","","","","","","","",""
"","html-keyboard-response","93","204270","0.0-136.0-1.0","foco8xjj","2560","1440","","","","","","","","","","","null","Wrong","Feedback","","null","","","","","","","","","","","","",""
"","call-function","94","204270","0.0-136.0-2.0","foco8xjj","","","","","","","","","","","","","","","","","","","","","","","","","","","","","",""
"","html-keyboard-response","95","205034","0.0-137.0","foco8xjj","2560","1440","","","","","","","","","","","null","+","Fixation - short","","null","","","","","","","","","","","","",""
"","html-keyboard-response","96","205686","0.0-138.0","foco8xjj","2560","1440","","","","","","","","","","","652","snx","Diagnostic trial","","f","0","8","false","false","LEFT","f","1","","RIGHT","false","","",""
"","html-keyboard-response","97","206438","0.0-141.0","foco8xjj","2560","1440","","","","","","","","","","","null","+","Fixation - short","","null","","","","","","","","","","","","",""
"","html-keyboard-response","98","207663","0.0-142.0","foco8xjj","2560","1440","","","","","","","","","","","1224","xlv","Diagnostic trial","","f","0","9","false","false","LEFT","f","1","","LEFT","true","","",""
"","html-keyboard-response","99","208416","0.0-145.0","foco8xjj","2560","1440","","","","","","","","","","","null","+","Fixation - short","","null","","","","","","","","","","","","",""
"","html-keyboard-response","100","209639","0.0-146.0","foco8xjj","2560","1440","","","","","","","","","","","1222","snx","Diagnostic trial","","f","0","10","false","false","LEFT","f","1","","RIGHT","false","","",""
"","html-keyboard-response","101","210394","0.0-149.0","foco8xjj","2560","1440","","","","","","","","","","","null","+","Fixation - short","","null","","","","","","","","","","","","",""
"","html-keyboard-response","102","211143","0.0-150.0","foco8xjj","2560","1440","","","","","","","","","","","748","snx","Diagnostic trial","","j","0","11","false","true","RIGHT","j","1","","RIGHT","true","","",""
"","html-keyboard-response","103","211899","0.0-153.0","foco8xjj","2560","1440","","","","","","","","","","","null","+","Fixation - short","","null","","","","","","","","","","","","",""
"","html-keyboard-response","104","212686","0.0-154.0","foco8xjj","2560","1440","","","","","","","","","","","787","xlv","Diagnostic trial","","f","0","12","false","true","RIGHT","j","0","","LEFT","false","","",""
"","call-function","105","212687","0.0-156.0-0.0","foco8xjj","","","","","","","","","","","","","","","","","","","","","","","","","","","","","",""
"","html-keyboard-response","106","212992","0.0-156.0-1.0","foco8xjj","2560","1440","","","","","","","","","","","null","Wrong","Feedback","","null","","","","","","","","","","","","",""
"","call-function","107","212992","0.0-156.0-2.0","foco8xjj","","","","","","","","","","","","","","","","","","","","","","","","","","","","","",""
"","html-keyboard-response","108","213757","0.0-157.0","foco8xjj","2560","1440","","","","","","","","","","","null","+","Fixation - short","","null","","","","","","","","","","","","",""
"","html-keyboard-response","109","214526","0.0-158.0","foco8xjj","2560","1440","","","","","","","","","","","769","xlv","Diagnostic trial","","j","0","13","false","true","RIGHT","j","1","","LEFT","false","","",""
"","html-keyboard-response","110","215288","0.0-161.0","foco8xjj","2560","1440","","","","","","","","","","","null","+","Fixation - short","","null","","","","","","","","","","","","",""
"","html-keyboard-response","111","215759","0.0-162.0","foco8xjj","2560","1440","","","","","","","","","","","471","xlv","Diagnostic trial","","j","0","14","false","true","RIGHT","j","1","","LEFT","false","","",""
"","html-keyboard-response","112","216522","0.0-165.0","foco8xjj","2560","1440","","","","","","","","","","","null","+","Fixation - short","","null","","","","","","","","","","","","",""
"","html-keyboard-response","113","217103","0.0-166.0","foco8xjj","2560","1440","","","","","","","","","","","580","xlv","Diagnostic trial","","f","0","15","false","false","LEFT","f","1","","LEFT","true","","",""
"","html-keyboard-response","114","217861","0.0-169.0","foco8xjj","2560","1440","","","","","","","","","","","null","+","Fixation - short","","null","","","","","","","","","","","","",""
"","html-keyboard-response","115","219006","0.0-170.0","foco8xjj","2560","1440","","","","","","","","","","","1144","snx","Inducer trial","","j","0","","true","","","f","0","LEFT","","","","",""
"","call-function","116","219006","0.0-172.0-0.0","foco8xjj","","","","","","","","","","","","","","","","","","","","","","","","","","","","","",""
"","html-keyboard-response","117","219312","0.0-172.0-1.0","foco8xjj","2560","1440","","","","","","","","","","","null","Wrong","Feedback","","null","","","","","","","","","","","","",""
"","call-function","118","219312","0.0-172.0-2.0","foco8xjj","","","","","","","","","","","","","","","","","","","","","","","","","","","","","",""
"","html-keyboard-response","119","220814","0.0-173.0","foco8xjj","2560","1440","","","","","","","","","","","null","+","Fixation - long","","null","","","","","","","","","","","","",""
"","html-keyboard-response","120","224487","0.0-174.0","foco8xjj","2560","1440","","","","","","","","","","","3672","If efg press RIGHT | If frn press LEFT","Inducer instructions",""," ","1","","","","","","","","","","","",""
"","html-keyboard-response","121","225246","0.0-175.0","foco8xjj","2560","1440","","","","","","","","","","","null","+","Fixation - short","","null","","","","","","","","","","","","",""
"","html-keyboard-response","122","226350","0.0-176.0","foco8xjj","2560","1440","","","","","","","","","","","1103","efg","Diagnostic trial","","j","1","0","false","true","RIGHT","j","1","","LEFT","false","","",""
"","html-keyboard-response","123","227112","0.0-179.0","foco8xjj","2560","1440","","","","","","","","","","","null","+","Fixation - short","","null","","","","","","","","","","","","",""
"","html-keyboard-response","124","228102","0.0-180.0","foco8xjj","2560","1440","","","","","","","","","","","990","frn","Diagnostic trial","","j","1","1","false","true","RIGHT","j","1","","RIGHT","true","","",""
"","html-keyboard-response","125","228861","0.0-183.0","foco8xjj","2560","1440","","","","","","","","","","","null","+","Fixation - short","","null","","","","","","","","","","","","",""
"","html-keyboard-response","126","230438","0.0-184.0","foco8xjj","2560","1440","","","","","","","","","","","1577","frn","Diagnostic trial","","j","1","2","false","true","RIGHT","j","1","","RIGHT","true","","",""
"","html-keyboard-response","127","231203","0.0-187.0","foco8xjj","2560","1440","","","","","","","","","","","null","+","Fixation - short","","null","","","","","","","","","","","","",""
"","html-keyboard-response","128","231983","0.0-188.0","foco8xjj","2560","1440","","","","","","","","","","","779","frn","Diagnostic trial","","f","1","3","false","false","LEFT","f","1","","RIGHT","false","","",""
"","html-keyboard-response","129","232748","0.0-191.0","foco8xjj","2560","1440","","","","","","","","","","","null","+","Fixation - short","","null","","","","","","","","","","","","",""
"","html-keyboard-response","130","233950","0.0-192.0","foco8xjj","2560","1440","","","","","","","","","","","1203","frn","Inducer trial","","f","1","","true","","","f","1","LEFT","","","","",""
"","html-keyboard-response","131","235462","0.0-195.0","foco8xjj","2560","1440","","","","","","","","","","","null","+","Fixation - long","","null","","","","","","","","","","","","",""
"","html-keyboard-response","132","236703","0.0-196.0","foco8xjj","2560","1440","","","","","","","","","","","1240","If nga press RIGHT | If xet press LEFT","Inducer instructions",""," ","2","","","","","","","","","","","",""
"","html-keyboard-response","133","237460","0.0-197.0","foco8xjj","2560","1440","","","","","","","","","","","null","+","Fixation - short","","null","","","","","","","","","","","","",""
"","html-keyboard-response","134","238271","0.0-198.0","foco8xjj","2560","1440","","","","","","","","","","","810","xet","Diagnostic trial","","f","2","0","false","false","LEFT","f","1","","RIGHT","false","","",""
"","html-keyboard-response","135","239032","0.0-201.0","foco8xjj","2560","1440","","","","","","","","","","","null","+","Fixation - short","","null","","","","","","","","","","","","",""
"","html-keyboard-response","136","240031","0.0-202.0","foco8xjj","2560","1440","","","","","","","","","","","999","nga","Diagnostic trial","","f","2","1","false","false","LEFT","f","1","","LEFT","true","","",""
"","html-keyboard-response","137","240793","0.0-205.0","foco8xjj","2560","1440","","","","","","","","","","","null","+","Fixation - short","","null","","","","","","","","","","","","",""
"","html-keyboard-response","138","241583","0.0-206.0","foco8xjj","2560","1440","","","","","","","","","","","789","xet","Diagnostic trial","","f","2","2","false","false","LEFT","f","1","","RIGHT","false","","",""
"","html-keyboard-response","139","242334","0.0-209.0","foco8xjj","2560","1440","","","","","","","","","","","null","+","Fixation - short","","null","","","","","","","","","","","","",""
"","html-keyboard-response","140","242926","0.0-210.0","foco8xjj","2560","1440","","","","","","","","","","","591","nga","Diagnostic trial","","f","2","3","false","false","LEFT","f","1","","LEFT","true","","",""
"","html-keyboard-response","141","243685","0.0-213.0","foco8xjj","2560","1440","","","","","","","","","","","null","+","Fixation - short","","null","","","","","","","","","","","","",""
"","html-keyboard-response","142","244703","0.0-214.0","foco8xjj","2560","1440","","","","","","","","","","","1017","xet","Diagnostic trial","","j","2","4","false","true","RIGHT","j","1","","RIGHT","true","","",""
"","html-keyboard-response","143","245465","0.0-217.0","foco8xjj","2560","1440","","","","","","","","","","","null","+","Fixation - short","","null","","","","","","","","","","","","",""
"","html-keyboard-response","144","246263","0.0-218.0","foco8xjj","2560","1440","","","","","","","","","","","797","xet","Diagnostic trial","","f","2","5","false","false","LEFT","f","1","","RIGHT","false","","",""
"","html-keyboard-response","145","247020","0.0-221.0","foco8xjj","2560","1440","","","","","","","","","","","null","+","Fixation - short","","null","","","","","","","","","","","","",""
"","html-keyboard-response","146","247983","0.0-222.0","foco8xjj","2560","1440","","","","","","","","","","","962","nga","Diagnostic trial","","f","2","6","false","true","RIGHT","j","0","","LEFT","false","","",""
"","call-function","147","247983","0.0-224.0-0.0","foco8xjj","","","","","","","","","","","","","","","","","","","","","","","","","","","","","",""
"","html-keyboard-response","148","248285","0.0-224.0-1.0","foco8xjj","2560","1440","","","","","","","","","","","null","Wrong","Feedback","","null","","","","","","","","","","","","",""
"","call-function","149","248286","0.0-224.0-2.0","foco8xjj","","","","","","","","","","","","","","","","","","","","","","","","","","","","","",""
"","html-keyboard-response","150","249048","0.0-225.0","foco8xjj","2560","1440","","","","","","","","","","","null","+","Fixation - short","","null","","","","","","","","","","","","",""
"","html-keyboard-response","151","250167","0.0-226.0","foco8xjj","2560","1440","","","","","","","","","","","1119","nga","Diagnostic trial","","f","2","7","false","false","LEFT","f","1","","LEFT","true","","",""
"","html-keyboard-response","152","250919","0.0-229.0","foco8xjj","2560","1440","","","","","","","","","","","null","+","Fixation - short","","null","","","","","","","","","","","","",""
"","html-keyboard-response","153","251823","0.0-230.0","foco8xjj","2560","1440","","","","","","","","","","","904","nga","Diagnostic trial","","j","2","8","false","true","RIGHT","j","1","","LEFT","false","","",""
"","html-keyboard-response","154","252576","0.0-233.0","foco8xjj","2560","1440","","","","","","","","","","","null","+","Fixation - short","","null","","","","","","","","","","","","",""
"","html-keyboard-response","155","253647","0.0-234.0","foco8xjj","2560","1440","","","","","","","","","","","1071","xet","Diagnostic trial","","f","2","9","false","false","LEFT","f","1","","RIGHT","false","","",""
"","html-keyboard-response","156","254399","0.0-237.0","foco8xjj","2560","1440","","","","","","","","","","","null","+","Fixation - short","","null","","","","","","","","","","","","",""
"","html-keyboard-response","157","256087","0.0-238.0","foco8xjj","2560","1440","","","","","","","","","","","1687","xet","Diagnostic trial","","f","2","10","false","false","LEFT","f","1","","RIGHT","false","","",""
"","html-keyboard-response","158","256850","0.0-241.0","foco8xjj","2560","1440","","","","","","","","","","","null","+","Fixation - short","","null","","","","","","","","","","","","",""
"","html-keyboard-response","159","258063","0.0-242.0","foco8xjj","2560","1440","","","","","","","","","","","1212","xet","Inducer trial","","f","2","","true","","","f","1","LEFT","","","","",""
"","html-keyboard-response","160","259572","0.0-245.0","foco8xjj","2560","1440","","","","","","","","","","","null","+","Fixation - long","","null","","","","","","","","","","","","",""
"","html-keyboard-response","161","266111","0.0-246.0","foco8xjj","2560","1440","","","","","","","","","","","6539","If asn press RIGHT | If gfm press LEFT","Inducer instructions",""," ","3","","","","","","","","","","","",""
"","html-keyboard-response","162","266875","0.0-247.0","foco8xjj","2560","1440","","","","","","","","","","","null","+","Fixation - short","","null","","","","","","","","","","","","",""
"","html-keyboard-response","163","267535","0.0-248.0","foco8xjj","2560","1440","","","","","","","","","","","659","gfm","Diagnostic trial","","f","3","0","false","false","LEFT","f","1","","RIGHT","false","","",""
"","html-keyboard-response","164","268295","0.0-251.0","foco8xjj","2560","1440","","","","","","","","","","","null","+","Fixation - short","","null","","","","","","","","","","","","",""
"","html-keyboard-response","165","269727","0.0-252.0","foco8xjj","2560","1440","","","","","","","","","","","1431","asn","Diagnostic trial","","f","3","1","false","true","RIGHT","j","0","","LEFT","false","","",""
"","call-function","166","269727","0.0-254.0-0.0","foco8xjj","","","","","","","","","","","","","","","","","","","","","","","","","","","","","",""
"","html-keyboard-response","167","270044","0.0-254.0-1.0","foco8xjj","2560","1440","","","","","","","","","","","null","Wrong","Feedback","","null","","","","","","","","","","","","",""
"","call-function","168","270044","0.0-254.0-2.0","foco8xjj","","","","","","","","","","","","","","","","","","","","","","","","","","","","","",""
"","html-keyboard-response","169","270808","0.0-255.0","foco8xjj","2560","1440","","","","","","","","","","","null","+","Fixation - short","","null","","","","","","","","","","","","",""
"","html-keyboard-response","170","271551","0.0-256.0","foco8xjj","2560","1440","","","","","","","","","","","743","asn","Diagnostic trial","","f","3","2","false","false","LEFT","f","1","","LEFT","true","","",""
"","html-keyboard-response","171","272307","0.0-259.0","foco8xjj","2560","1440","","","","","","","","","","","null","+","Fixation - short","","null","","","","","","","","","","","","",""
"","html-keyboard-response","172","273135","0.0-260.0","foco8xjj","2560","1440","","","","","","","","","","","828","gfm","Diagnostic trial","","f","3","3","false","false","LEFT","f","1","","RIGHT","false","","",""
"","html-keyboard-response","173","273902","0.0-263.0","foco8xjj","2560","1440","","","","","","","","","","","null","+","Fixation - short","","null","","","","","","","","","","","","",""
"","html-keyboard-response","174","274535","0.0-264.0","foco8xjj","2560","1440","","","","","","","","","","","633","asn","Diagnostic trial","","j","3","4","false","true","RIGHT","j","1","","LEFT","false","","",""
"","html-keyboard-response","175","275291","0.0-267.0","foco8xjj","2560","1440","","","","","","","","","","","null","+","Fixation - short","","null","","","","","","","","","","","","",""
"","html-keyboard-response","176","276120","0.0-268.0","foco8xjj","2560","1440","","","","","","","","","","","828","asn","Diagnostic trial","","f","3","5","false","false","LEFT","f","1","","LEFT","true","","",""
"","html-keyboard-response","177","276874","0.0-271.0","foco8xjj","2560","1440","","","","","","","","","","","null","+","Fixation - short","","null","","","","","","","","","","","","",""
"","html-keyboard-response","178","278039","0.0-272.0","foco8xjj","2560","1440","","","","","","","","","","","1165","gfm","Diagnostic trial","","j","3","6","false","true","RIGHT","j","1","","RIGHT","true","","",""
"","html-keyboard-response","179","278798","0.0-275.0","foco8xjj","2560","1440","","","","","","","","","","","null","+","Fixation - short","","null","","","","","","","","","","","","",""
"","html-keyboard-response","180","279567","0.0-276.0","foco8xjj","2560","1440","","","","","","","","","","","769","gfm","Diagnostic trial","","f","3","7","false","false","LEFT","f","1","","RIGHT","false","","",""
"","html-keyboard-response","181","280327","0.0-279.0","foco8xjj","2560","1440","","","","","","","","","","","null","+","Fixation - short","","null","","","","","","","","","","","","",""
"","html-keyboard-response","182","281615","0.0-280.0","foco8xjj","2560","1440","","","","","","","","","","","1287","asn","Diagnostic trial","","f","3","8","false","false","LEFT","f","1","","LEFT","true","","",""
"","html-keyboard-response","183","282369","0.0-283.0","foco8xjj","2560","1440","","","","","","","","","","","null","+","Fixation - short","","null","","","","","","","","","","","","",""
"","html-keyboard-response","184","282999","0.0-284.0","foco8xjj","2560","1440","","","","","","","","","","","630","asn","Diagnostic trial","","f","3","9","false","false","LEFT","f","1","","LEFT","true","","",""
"","html-keyboard-response","185","283757","0.0-287.0","foco8xjj","2560","1440","","","","","","","","","","","null","+","Fixation - short","","null","","","","","","","","","","","","",""
"","html-keyboard-response","186","284503","0.0-288.0","foco8xjj","2560","1440","","","","","","","","","","","746","gfm","Diagnostic trial","","j","3","10","false","true","RIGHT","j","1","","RIGHT","true","","",""
"","html-keyboard-response","187","285257","0.0-291.0","foco8xjj","2560","1440","","","","","","","","","","","null","+","Fixation - short","","null","","","","","","","","","","","","",""
"","html-keyboard-response","188","285983","0.0-292.0","foco8xjj","2560","1440","","","","","","","","","","","725","gfm","Diagnostic trial","","j","3","11","false","false","LEFT","f","0","","RIGHT","false","","",""
"","call-function","189","285983","0.0-294.0-0.0","foco8xjj","","","","","","","","","","","","","","","","","","","","","","","","","","","","","",""
"","html-keyboard-response","190","286293","0.0-294.0-1.0","foco8xjj","2560","1440","","","","","","","","","","","null","Wrong","Feedback","","null","","","","","","","","","","","","",""
"","call-function","191","286294","0.0-294.0-2.0","foco8xjj","","","","","","","","","","","","","","","","","","","","","","","","","","","","","",""
"","html-keyboard-response","192","287057","0.0-295.0","foco8xjj","2560","1440","","","","","","","","","","","null","+","Fixation - short","","null","","","","","","","","","","","","",""
"","html-keyboard-response","193","288007","0.0-296.0","foco8xjj","2560","1440","","","","","","","","","","","949","asn","Inducer trial","","j","3","","true","","","j","1","RIGHT","","","","",""
"","html-keyboard-response","194","289515","0.0-299.0","foco8xjj","2560","1440","","","","","","","","","","","null","+","Fixation - long","","null","","","","","","","","","","","","",""
"","html-keyboard-response","195","290359","0.0-300.0","foco8xjj","2560","1440","","","","","","","","","","","843","If dul press RIGHT | If cui press LEFT","Inducer instructions",""," ","4","","","","","","","","","","","",""
"","html-keyboard-response","196","291122","0.0-301.0","foco8xjj","2560","1440","","","","","","","","","","","null","+","Fixation - short","","null","","","","","","","","","","","","",""
"","html-keyboard-response","197","292167","0.0-302.0","foco8xjj","2560","1440","","","","","","","","","","","1044","cui","Diagnostic trial","","f","4","0","false","false","LEFT","f","1","","RIGHT","false","","",""
"","html-keyboard-response","198","292933","0.0-305.0","foco8xjj","2560","1440","","","","","","","","","","","null","+","Fixation - short","","null","","","","","","","","","","","","",""
"","html-keyboard-response","199","293791","0.0-306.0","foco8xjj","2560","1440","","","","","","","","","","","858","cui","Diagnostic trial","","f","4","1","false","false","LEFT","f","1","","RIGHT","false","","",""
"","html-keyboard-response","200","294553","0.0-309.0","foco8xjj","2560","1440","","","","","","","","","","","null","+","Fixation - short","","null","","","","","","","","","","","","",""
"","html-keyboard-response","201","295079","0.0-310.0","foco8xjj","2560","1440","","","","","","","","","","","525","dul","Diagnostic trial","","j","4","2","false","true","RIGHT","j","1","","LEFT","false","","",""
"","html-keyboard-response","202","295834","0.0-313.0","foco8xjj","2560","1440","","","","","","","","","","","null","+","Fixation - short","","null","","","","","","","","","","","","",""
"","html-keyboard-response","203","297199","0.0-314.0","foco8xjj","2560","1440","","","","","","","","","","","1364","cui","Diagnostic trial","","j","4","3","false","true","RIGHT","j","1","","RIGHT","true","","",""
"","html-keyboard-response","204","297957","0.0-317.0","foco8xjj","2560","1440","","","","","","","","","","","null","+","Fixation - short","","null","","","","","","","","","","","","",""
"","html-keyboard-response","205","298535","0.0-318.0","foco8xjj","2560","1440","","","","","","","","","","","577","dul","Diagnostic trial","","j","4","4","false","true","RIGHT","j","1","","LEFT","false","","",""
"","html-keyboard-response","206","299297","0.0-321.0","foco8xjj","2560","1440","","","","","","","","","","","null","+","Fixation - short","","null","","","","","","","","","","","","",""
"","html-keyboard-response","207","299895","0.0-322.0","foco8xjj","2560","1440","","","","","","","","","","","597","dul","Diagnostic trial","","f","4","5","false","false","LEFT","f","1","","LEFT","true","","",""
"","html-keyboard-response","208","300657","0.0-325.0","foco8xjj","2560","1440","","","","","","","","","","","null","+","Fixation - short","","null","","","","","","","","","","","","",""
"","html-keyboard-response","209","301351","0.0-326.0","foco8xjj","2560","1440","","","","","","","","","","","694","cui","Diagnostic trial","","j","4","6","false","true","RIGHT","j","1","","RIGHT","true","","",""
"","html-keyboard-response","210","302104","0.0-329.0","foco8xjj","2560","1440","","","","","","","","","","","null","+","Fixation - short","","null","","","","","","","","","","","","",""
"","html-keyboard-response","211","303639","0.0-330.0","foco8xjj","2560","1440","","","","","","","","","","","1535","dul","Diagnostic trial","","j","4","7","false","false","LEFT","f","0","","LEFT","true","","",""
"","call-function","212","303639","0.0-332.0-0.0","foco8xjj","","","","","","","","","","","","","","","","","","","","","","","","","","","","","",""
"","html-keyboard-response","213","303948","0.0-332.0-1.0","foco8xjj","2560","1440","","","","","","","","","","","null","Wrong","Feedback","","null","","","","","","","","","","","","",""
"","call-function","214","303949","0.0-332.0-2.0","foco8xjj","","","","","","","","","","","","","","","","","","","","","","","","","","","","","",""
"","html-keyboard-response","215","304713","0.0-333.0","foco8xjj","2560","1440","","","","","","","","","","","null","+","Fixation - short","","null","","","","","","","","","","","","",""
"","html-keyboard-response","216","305278","0.0-334.0","foco8xjj","2560","1440","","","","","","","","","","","565","dul","Diagnostic trial","","f","4","8","false","true","RIGHT","j","0","","LEFT","false","","",""
"","call-function","217","305278","0.0-336.0-0.0","foco8xjj","","","","","","","","","","","","","","","","","","","","","","","","","","","","","",""
"","html-keyboard-response","218","305580","0.0-336.0-1.0","foco8xjj","2560","1440","","","","","","","","","","","null","Wrong","Feedback","","null","","","","","","","","","","","","",""
"","call-function","219","305580","0.0-336.0-2.0","foco8xjj","","","","","","","","","","","","","","","","","","","","","","","","","","","","","",""
"","html-keyboard-response","220","306342","0.0-337.0","foco8xjj","2560","1440","","","","","","","","","","","null","+","Fixation - short","","null","","","","","","","","","","","","",""
"","html-keyboard-response","221","307095","0.0-338.0","foco8xjj","2560","1440","","","","","","","","","","","752","dul","Inducer trial","","j","4","","true","","","j","1","RIGHT","","","","",""
"","html-keyboard-response","222","308600","0.0-341.0","foco8xjj","2560","1440","","","","","","","","","","","null","+","Fixation - long","","null","","","","","","","","","","","","",""
"","html-keyboard-response","223","309807","0.0-342.0","foco8xjj","2560","1440","","","","","","","","","","","1206","If saj press RIGHT | If vsc press LEFT","Inducer instructions",""," ","5","","","","","","","","","","","",""
"","html-keyboard-response","224","310564","0.0-343.0","foco8xjj","2560","1440","","","","","","","","","","","null","+","Fixation - short","","null","","","","","","","","","","","","",""
"","html-keyboard-response","225","311727","0.0-344.0","foco8xjj","2560","1440","","","","","","","","","","","1163","vsc","Diagnostic trial","","j","5","0","false","true","RIGHT","j","1","","RIGHT","true","","",""
"","html-keyboard-response","226","312493","0.0-347.0","foco8xjj","2560","1440","","","","","","","","","","","null","+","Fixation - short","","null","","","","","","","","","","","","",""
"","html-keyboard-response","227","313735","0.0-348.0","foco8xjj","2560","1440","","","","","","","","","","","1242","saj","Diagnostic trial","","j","5","1","false","true","RIGHT","j","1","","LEFT","false","","",""
"","html-keyboard-response","228","314495","0.0-351.0","foco8xjj","2560","1440","","","","","","","","","","","null","+","Fixation - short","","null","","","","","","","","","","","","",""
"","html-keyboard-response","229","315359","0.0-352.0","foco8xjj","2560","1440","","","","","","","","","","","864","vsc","Diagnostic trial","","j","5","2","false","true","RIGHT","j","1","","RIGHT","true","","",""
"","html-keyboard-response","230","316117","0.0-355.0","foco8xjj","2560","1440","","","","","","","","","","","null","+","Fixation - short","","null","","","","","","","","","","","","",""
"","html-keyboard-response","231","316711","0.0-356.0","foco8xjj","2560","1440","","","","","","","","","","","594","vsc","Diagnostic trial","","j","5","3","false","true","RIGHT","j","1","","RIGHT","true","","",""
"","html-keyboard-response","232","317471","0.0-359.0","foco8xjj","2560","1440","","","","","","","","","","","null","+","Fixation - short","","null","","","","","","","","","","","","",""
"","html-keyboard-response","233","318031","0.0-360.0","foco8xjj","2560","1440","","","","","","","","","","","560","vsc","Diagnostic trial","","j","5","4","false","true","RIGHT","j","1","","RIGHT","true","","",""
"","html-keyboard-response","234","318783","0.0-363.0","foco8xjj","2560","1440","","","","","","","","","","","null","+","Fixation - short","","null","","","","","","","","","","","","",""
"","html-keyboard-response","235","319295","0.0-364.0","foco8xjj","2560","1440","","","","","","","","","","","512","saj","Diagnostic trial","","f","5","5","false","false","LEFT","f","1","","LEFT","true","","",""
"","html-keyboard-response","236","320047","0.0-367.0","foco8xjj","2560","1440","","","","","","","","","","","null","+","Fixation - short","","null","","","","","","","","","","","","",""
"","html-keyboard-response","237","321072","0.0-368.0","foco8xjj","2560","1440","","","","","","","","","","","1025","vsc","Diagnostic trial","","f","5","6","false","false","LEFT","f","1","","RIGHT","false","","",""
"","html-keyboard-response","238","321825","0.0-371.0","foco8xjj","2560","1440","","","","","","","","","","","null","+","Fixation - short","","null","","","","","","","","","","","","",""
"","html-keyboard-response","239","322375","0.0-372.0","foco8xjj","2560","1440","","","","","","","","","","","550","vsc","Diagnostic trial","","f","5","7","false","false","LEFT","f","1","","RIGHT","false","","",""
"","html-keyboard-response","240","323136","0.0-375.0","foco8xjj","2560","1440","","","","","","","","","","","null","+","Fixation - short","","null","","","","","","","","","","","","",""
"","html-keyboard-response","241","323679","0.0-376.0","foco8xjj","2560","1440","","","","","","","","","","","543","saj","Diagnostic trial","","j","5","8","false","true","RIGHT","j","1","","LEFT","false","","",""
"","html-keyboard-response","242","324445","0.0-379.0","foco8xjj","2560","1440","","","","","","","","","","","null","+","Fixation - short","","null","","","","","","","","","","","","",""
"","html-keyboard-response","243","325335","0.0-380.0","foco8xjj","2560","1440","","","","","","","","","","","890","vsc","Diagnostic trial","","j","5","9","false","true","RIGHT","j","1","","RIGHT","true","","",""
"","html-keyboard-response","244","326095","0.0-383.0","foco8xjj","2560","1440","","","","","","","","","","","null","+","Fixation - short","","null","","","","","","","","","","","","",""
"","html-keyboard-response","245","326727","0.0-384.0","foco8xjj","2560","1440","","","","","","","","","","","631","saj","Diagnostic trial","","j","5","10","false","true","RIGHT","j","1","","LEFT","false","","",""
"","html-keyboard-response","246","327480","0.0-387.0","foco8xjj","2560","1440","","","","","","","","","","","null","+","Fixation - short","","null","","","","","","","","","","","","",""
"","html-keyboard-response","247","328055","0.0-388.0","foco8xjj","2560","1440","","","","","","","","","","","575","vsc","Diagnostic trial","","j","5","11","false","true","RIGHT","j","1","","RIGHT","true","","",""
"","html-keyboard-response","248","328822","0.0-391.0","foco8xjj","2560","1440","","","","","","","","","","","null","+","Fixation - short","","null","","","","","","","","","","","","",""
"","html-keyboard-response","249","329287","0.0-392.0","foco8xjj","2560","1440","","","","","","","","","","","465","saj","Inducer trial","","j","5","","true","","","j","1","RIGHT","","","","",""
"","html-keyboard-response","250","330802","0.0-395.0","foco8xjj","2560","1440","","","","","","","","","","","null","+","Fixation - long","","null","","","","","","","","","","","","",""
"","html-keyboard-response","251","331855","0.0-396.0","foco8xjj","2560","1440","","","","","","","","","","","1052","If lpn press RIGHT | If drk press LEFT","Inducer instructions",""," ","6","","","","","","","","","","","",""
"","html-keyboard-response","252","332613","0.0-397.0","foco8xjj","2560","1440","","","","","","","","","","","null","+","Fixation - short","","null","","","","","","","","","","","","",""
"","html-keyboard-response","253","333807","0.0-398.0","foco8xjj","2560","1440","","","","","","","","","","","1194","lpn","Diagnostic trial","","j","6","0","false","true","RIGHT","j","1","","LEFT","false","","",""
"","html-keyboard-response","254","334565","0.0-401.0","foco8xjj","2560","1440","","","","","","","","","","","null","+","Fixation - short","","null","","","","","","","","","","","","",""
"","html-keyboard-response","255","335159","0.0-402.0","foco8xjj","2560","1440","","","","","","","","","","","593","lpn","Diagnostic trial","","f","6","1","false","false","LEFT","f","1","","LEFT","true","","",""
"","html-keyboard-response","256","335920","0.0-405.0","foco8xjj","2560","1440","","","","","","","","","","","null","+","Fixation - short","","null","","","","","","","","","","","","",""
"","html-keyboard-response","257","336551","0.0-406.0","foco8xjj","2560","1440","","","","","","","","","","","631","lpn","Diagnostic trial","","j","6","2","false","true","RIGHT","j","1","","LEFT","false","","",""
"","html-keyboard-response","258","337308","0.0-409.0","foco8xjj","2560","1440","","","","","","","","","","","null","+","Fixation - short","","null","","","","","","","","","","","","",""
"","html-keyboard-response","259","338191","0.0-410.0","foco8xjj","2560","1440","","","","","","","","","","","883","drk","Diagnostic trial","","f","6","3","false","false","LEFT","f","1","","RIGHT","false","","",""
"","html-keyboard-response","260","338943","0.0-413.0","foco8xjj","2560","1440","","","","","","","","","","","null","+","Fixation - short","","null","","","","","","","","","","","","",""
"","html-keyboard-response","261","339607","0.0-414.0","foco8xjj","2560","1440","","","","","","","","","","","664","lpn","Diagnostic trial","","j","6","4","false","true","RIGHT","j","1","","LEFT","false","","",""
"","html-keyboard-response","262","340363","0.0-417.0","foco8xjj","2560","1440","","","","","","","","","","","null","+","Fixation - short","","null","","","","","","","","","","","","",""
"","html-keyboard-response","263","340960","0.0-418.0","foco8xjj","2560","1440","","","","","","","","","","","596","lpn","Diagnostic trial","","f","6","5","false","false","LEFT","f","1","","LEFT","true","","",""
"","html-keyboard-response","264","341722","0.0-421.0","foco8xjj","2560","1440","","","","","","","","","","","null","+","Fixation - short","","null","","","","","","","","","","","","",""
"","html-keyboard-response","265","342455","0.0-422.0","foco8xjj","2560","1440","","","","","","","","","","","733","drk","Diagnostic trial","","j","6","6","false","true","RIGHT","j","1","","RIGHT","true","","",""
"","html-keyboard-response","266","343217","0.0-425.0","foco8xjj","2560","1440","","","","","","","","","","","null","+","Fixation - short","","null","","","","","","","","","","","","",""
"","html-keyboard-response","267","343935","0.0-426.0","foco8xjj","2560","1440","","","","","","","","","","","718","lpn","Inducer trial","","j","6","","true","","","j","1","RIGHT","","","","",""
"","html-keyboard-response","268","345451","0.0-429.0","foco8xjj","2560","1440","","","","","","","","","","","null","+","Fixation - long","","null","","","","","","","","","","","","",""
"","html-keyboard-response","269","348655","0.0-430.0","foco8xjj","2560","1440","","","","","","","","","","","3203","If chy press RIGHT | If ila press LEFT","Inducer instructions",""," ","7","","","","","","","","","","","",""
"","html-keyboard-response","270","349411","0.0-431.0","foco8xjj","2560","1440","","","","","","","","","","","null","+","Fixation - short","","null","","","","","","","","","","","","",""
"","html-keyboard-response","271","350415","0.0-432.0","foco8xjj","2560","1440","","","","","","","","","","","1004","ila","Diagnostic trial","","f","7","0","false","false","LEFT","f","1","","RIGHT","false","","",""
"","html-keyboard-response","272","351172","0.0-435.0","foco8xjj","2560","1440","","","","","","","","","","","null","+","Fixation - short","","null","","","","","","","","","","","","",""
"","html-keyboard-response","273","352863","0.0-436.0","foco8xjj","2560","1440","","","","","","","","","","","1691","chy","Diagnostic trial","","j","7","1","false","true","RIGHT","j","1","","LEFT","false","","",""
"","html-keyboard-response","274","353619","0.0-439.0","foco8xjj","2560","1440","","","","","","","","","","","null","+","Fixation - short","","null","","","","","","","","","","","","",""
"","html-keyboard-response","275","354143","0.0-440.0","foco8xjj","2560","1440","","","","","","","","","","","523","ila","Diagnostic trial","","f","7","2","false","false","LEFT","f","1","","RIGHT","false","","",""
"","html-keyboard-response","276","354899","0.0-443.0","foco8xjj","2560","1440","","","","","","","","","","","null","+","Fixation - short","","null","","","","","","","","","","","","",""
"","html-keyboard-response","277","355823","0.0-444.0","foco8xjj","2560","1440","","","","","","","","","","","923","chy","Diagnostic trial","","f","7","3","false","false","LEFT","f","1","","LEFT","true","","",""
"","html-keyboard-response","278","356588","0.0-447.0","foco8xjj","2560","1440","","","","","","","","","","","null","+","Fixation - short","","null","","","","","","","","","","","","",""
"","html-keyboard-response","279","357200","0.0-448.0","foco8xjj","2560","1440","","","","","","","","","","","611","ila","Diagnostic trial","","f","7","4","false","false","LEFT","f","1","","RIGHT","false","","",""
"","html-keyboard-response","280","357959","0.0-451.0","foco8xjj","2560","1440","","","","","","","","","","","null","+","Fixation - short","","null","","","","","","","","","","","","",""
"","html-keyboard-response","281","358767","0.0-452.0","foco8xjj","2560","1440","","","","","","","","","","","808","ila","Inducer trial","","j","7","","true","","","f","0","LEFT","","","","",""
"","call-function","282","358768","0.0-454.0-0.0","foco8xjj","","","","","","","","","","","","","","","","","","","","","","","","","","","","","",""
"","html-keyboard-response","283","359081","0.0-454.0-1.0","foco8xjj","2560","1440","","","","","","","","","","","null","Wrong","Feedback","","null","","","","","","","","","","","","",""
"","call-function","284","359082","0.0-454.0-2.0","foco8xjj","","","","","","","","","","","","","","","","","","","","","","","","","","","","","",""
"","html-keyboard-response","285","360593","0.0-455.0","foco8xjj","2560","1440","","","","","","","","","","","null","+","Fixation - long","","null","","","","","","","","","","","","",""
"","html-keyboard-response","286","361671","0.0-456.0","foco8xjj","2560","1440","","","","","","","","","","","1077","If vpu press RIGHT | If jey press LEFT","Inducer instructions",""," ","8","","","","","","","","","","","",""
"","html-keyboard-response","287","362433","0.0-457.0","foco8xjj","2560","1440","","","","","","","","","","","null","+","Fixation - short","","null","","","","","","","","","","","","",""
"","html-keyboard-response","288","364436","0.0-458.0","foco8xjj","2560","1440","","","","","","","","","","","null","vpu","Diagnostic trial","","null","8","0","false","true","RIGHT","j","NaN","","LEFT","false","","",""
"","call-function","289","364436","0.0-459.0-0.0","foco8xjj","","","","","","","","","","","","","","","","","","","","","","","","","","","","","",""
"","html-keyboard-response","290","364750","0.0-459.0-1.0","foco8xjj","2560","1440","","","","","","","","","","","null","Slow","Feedback","","null","","","","","","","","","","","","",""
"","call-function","291","364750","0.0-459.0-2.0","foco8xjj","","","","","","","","","","","","","","","","","","","","","","","","","","","","","",""
"","html-keyboard-response","292","365513","0.0-461.0","foco8xjj","2560","1440","","","","","","","","","","","null","+","Fixation - short","","null","","","","","","","","","","","","",""
"","html-keyboard-response","293","366239","0.0-462.0","foco8xjj","2560","1440","","","","","","","","","","","726","vpu","Diagnostic trial","","f","8","1","false","true","RIGHT","j","0","","LEFT","false","","",""
"","call-function","294","366239","0.0-464.0-0.0","foco8xjj","","","","","","","","","","","","","","","","","","","","","","","","","","","","","",""
"","html-keyboard-response","295","366542","0.0-464.0-1.0","foco8xjj","2560","1440","","","","","","","","","","","null","Wrong","Feedback","","null","","","","","","","","","","","","",""
"","call-function","296","366542","0.0-464.0-2.0","foco8xjj","","","","","","","","","","","","","","","","","","","","","","","","","","","","","",""
"","html-keyboard-response","297","367309","0.0-465.0","foco8xjj","2560","1440","","","","","","","","","","","null","+","Fixation - short","","null","","","","","","","","","","","","",""
"","html-keyboard-response","298","367879","0.0-466.0","foco8xjj","2560","1440","","","","","","","","","","","570","vpu","Diagnostic trial","","j","8","2","false","false","LEFT","f","0","","LEFT","true","","",""
"","call-function","299","367880","0.0-468.0-0.0","foco8xjj","","","","","","","","","","","","","","","","","","","","","","","","","","","","","",""
"","html-keyboard-response","300","368181","0.0-468.0-1.0","foco8xjj","2560","1440","","","","","","","","","","","null","Wrong","Feedback","","null","","","","","","","","","","","","",""
"","call-function","301","368181","0.0-468.0-2.0","foco8xjj","","","","","","","","","","","","","","","","","","","","","","","","","","","","","",""
"","html-keyboard-response","302","368940","0.0-469.0","foco8xjj","2560","1440","","","","","","","","","","","null","+","Fixation - short","","null","","","","","","","","","","","","",""
"","html-keyboard-response","303","370112","0.0-470.0","foco8xjj","2560","1440","","","","","","","","","","","1172","jey","Diagnostic trial","","f","8","3","false","false","LEFT","f","1","","RIGHT","false","","",""
"","html-keyboard-response","304","370875","0.0-473.0","foco8xjj","2560","1440","","","","","","","","","","","null","+","Fixation - short","","null","","","","","","","","","","","","",""
"","html-keyboard-response","305","371927","0.0-474.0","foco8xjj","2560","1440","","","","","","","","","","","1051","vpu","Diagnostic trial","","f","8","4","false","true","RIGHT","j","0","","LEFT","false","","",""
"","call-function","306","371927","0.0-476.0-0.0","foco8xjj","","","","","","","","","","","","","","","","","","","","","","","","","","","","","",""
"","html-keyboard-response","307","372235","0.0-476.0-1.0","foco8xjj","2560","1440","","","","","","","","","","","null","Wrong","Feedback","","null","","","","","","","","","","","","",""
"","call-function","308","372235","0.0-476.0-2.0","foco8xjj","","","","","","","","","","","","","","","","","","","","","","","","","","","","","",""
"","html-keyboard-response","309","373001","0.0-477.0","foco8xjj","2560","1440","","","","","","","","","","","null","+","Fixation - short","","null","","","","","","","","","","","","",""
"","html-keyboard-response","310","374087","0.0-478.0","foco8xjj","2560","1440","","","","","","","","","","","1086","jey","Diagnostic trial","","j","8","5","false","true","RIGHT","j","1","","RIGHT","true","","",""
"","html-keyboard-response","311","374844","0.0-481.0","foco8xjj","2560","1440","","","","","","","","","","","null","+","Fixation - short","","null","","","","","","","","","","","","",""
"","html-keyboard-response","312","375527","0.0-482.0","foco8xjj","2560","1440","","","","","","","","","","","683","jey","Diagnostic trial","","j","8","6","false","true","RIGHT","j","1","","RIGHT","true","","",""
"","html-keyboard-response","313","376279","0.0-485.0","foco8xjj","2560","1440","","","","","","","","","","","null","+","Fixation - short","","null","","","","","","","","","","","","",""
"","html-keyboard-response","314","377135","0.0-486.0","foco8xjj","2560","1440","","","","","","","","","","","856","vpu","Inducer trial","","j","8","","true","","","j","1","RIGHT","","","","",""
"","html-keyboard-response","315","378641","0.0-489.0","foco8xjj","2560","1440","","","","","","","","","","","null","+","Fixation - long","","null","","","","","","","","","","","","",""
"","html-keyboard-response","316","379839","0.0-490.0","foco8xjj","2560","1440","","","","","","","","","","","1198","If pbz press RIGHT | If prg press LEFT","Inducer instructions",""," ","9","","","","","","","","","","","",""
"","html-keyboard-response","317","380593","0.0-491.0","foco8xjj","2560","1440","","","","","","","","","","","null","+","Fixation - short","","null","","","","","","","","","","","","",""
"","html-keyboard-response","318","381464","0.0-492.0","foco8xjj","2560","1440","","","","","","","","","","","870","pbz","Diagnostic trial","","j","9","0","false","true","RIGHT","j","1","","LEFT","false","","",""
"","html-keyboard-response","319","382217","0.0-495.0","foco8xjj","2560","1440","","","","","","","","","","","null","+","Fixation - short","","null","","","","","","","","","","","","",""
"","html-keyboard-response","320","382847","0.0-496.0","foco8xjj","2560","1440","","","","","","","","","","","630","prg","Diagnostic trial","","f","9","1","false","false","LEFT","f","1","","RIGHT","false","","",""
"","html-keyboard-response","321","383607","0.0-499.0","foco8xjj","2560","1440","","","","","","","","","","","null","+","Fixation - short","","null","","","","","","","","","","","","",""
"","html-keyboard-response","322","384335","0.0-500.0","foco8xjj","2560","1440","","","","","","","","","","","728","prg","Diagnostic trial","","f","9","2","false","false","LEFT","f","1","","RIGHT","false","","",""
"","html-keyboard-response","323","385093","0.0-503.0","foco8xjj","2560","1440","","","","","","","","","","","null","+","Fixation - short","","null","","","","","","","","","","","","",""
"","html-keyboard-response","324","385687","0.0-504.0","foco8xjj","2560","1440","","","","","","","","","","","594","pbz","Diagnostic trial","","j","9","3","false","true","RIGHT","j","1","","LEFT","false","","",""
"","html-keyboard-response","325","386449","0.0-507.0","foco8xjj","2560","1440","","","","","","","","","","","null","+","Fixation - short","","null","","","","","","","","","","","","",""
"","html-keyboard-response","326","387439","0.0-508.0","foco8xjj","2560","1440","","","","","","","","","","","990","pbz","Diagnostic trial","","f","9","4","false","false","LEFT","f","1","","LEFT","true","","",""
"","html-keyboard-response","327","388197","0.0-511.0","foco8xjj","2560","1440","","","","","","","","","","","null","+","Fixation - short","","null","","","","","","","","","","","","",""
"","html-keyboard-response","328","389103","0.0-512.0","foco8xjj","2560","1440","","","","","","","","","","","905","prg","Diagnostic trial","","f","9","5","false","false","LEFT","f","1","","RIGHT","false","","",""
"","html-keyboard-response","329","389864","0.0-515.0","foco8xjj","2560","1440","","","","","","","","","","","null","+","Fixation - short","","null","","","","","","","","","","","","",""
"","html-keyboard-response","330","390519","0.0-516.0","foco8xjj","2560","1440","","","","","","","","","","","655","prg","Diagnostic trial","","j","9","6","false","true","RIGHT","j","1","","RIGHT","true","","",""
"","html-keyboard-response","331","391280","0.0-519.0","foco8xjj","2560","1440","","","","","","","","","","","null","+","Fixation - short","","null","","","","","","","","","","","","",""
"","html-keyboard-response","332","392263","0.0-520.0","foco8xjj","2560","1440","","","","","","","","","","","983","pbz","Diagnostic trial","","j","9","7","false","false","LEFT","f","0","","LEFT","true","","",""
"","call-function","333","392264","0.0-522.0-0.0","foco8xjj","","","","","","","","","","","","","","","","","","","","","","","","","","","","","",""
"","html-keyboard-response","334","392575","0.0-522.0-1.0","foco8xjj","2560","1440","","","","","","","","","","","null","Wrong","Feedback","","null","","","","","","","","","","","","",""
"","call-function","335","392575","0.0-522.0-2.0","foco8xjj","","","","","","","","","","","","","","","","","","","","","","","","","","","","","",""
"","html-keyboard-response","336","393338","0.0-523.0","foco8xjj","2560","1440","","","","","","","","","","","null","+","Fixation - short","","null","","","","","","","","","","","","",""
"","html-keyboard-response","337","394295","0.0-524.0","foco8xjj","2560","1440","","","","","","","","","","","956","prg","Diagnostic trial","","j","9","8","false","true","RIGHT","j","1","","RIGHT","true","","",""
"","html-keyboard-response","338","395055","0.0-527.0","foco8xjj","2560","1440","","","","","","","","","","","null","+","Fixation - short","","null","","","","","","","","","","","","",""
"","html-keyboard-response","339","395655","0.0-528.0","foco8xjj","2560","1440","","","","","","","","","","","599","prg","Diagnostic trial","","j","9","9","false","true","RIGHT","j","1","","RIGHT","true","","",""
"","html-keyboard-response","340","396410","0.0-531.0","foco8xjj","2560","1440","","","","","","","","","","","null","+","Fixation - short","","null","","","","","","","","","","","","",""
"","html-keyboard-response","341","397215","0.0-532.0","foco8xjj","2560","1440","","","","","","","","","","","804","pbz","Diagnostic trial","","f","9","10","false","false","LEFT","f","1","","LEFT","true","","",""
"","html-keyboard-response","342","397982","0.0-535.0","foco8xjj","2560","1440","","","","","","","","","","","null","+","Fixation - short","","null","","","","","","","","","","","","",""
"","html-keyboard-response","343","398831","0.0-536.0","foco8xjj","2560","1440","","","","","","","","","","","849","prg","Diagnostic trial","","j","9","11","false","true","RIGHT","j","1","","RIGHT","true","","",""
"","html-keyboard-response","344","399589","0.0-539.0","foco8xjj","2560","1440","","","","","","","","","","","null","+","Fixation - short","","null","","","","","","","","","","","","",""
"","html-keyboard-response","345","400511","0.0-540.0","foco8xjj","2560","1440","","","","","","","","","","","922","prg","Inducer trial","","f","9","","true","","","f","1","LEFT","","","","",""
"","html-keyboard-response","346","402025","0.0-543.0","foco8xjj","2560","1440","","","","","","","","","","","null","+","Fixation - long","","null","","","","","","","","","","","","",""
"","html-keyboard-response","347","403288","0.0-544.0","foco8xjj","2560","1440","","","","","","","","","","","1262","If swr press RIGHT | If guf press LEFT","Inducer instructions",""," ","10","","","","","","","","","","","",""
"","html-keyboard-response","348","404039","0.0-545.0","foco8xjj","2560","1440","","","","","","","","","","","null","+","Fixation - short","","null","","","","","","","","","","","","",""
"","html-keyboard-response","349","405151","0.0-546.0","foco8xjj","2560","1440","","","","","","","","","","","1112","guf","Diagnostic trial","","f","10","0","false","false","LEFT","f","1","","RIGHT","false","","",""
"","html-keyboard-response","350","405913","0.0-549.0","foco8xjj","2560","1440","","","","","","","","","","","null","+","Fixation - short","","null","","","","","","","","","","","","",""
"","html-keyboard-response","351","406623","0.0-550.0","foco8xjj","2560","1440","","","","","","","","","","","709","guf","Diagnostic trial","","j","10","1","false","true","RIGHT","j","1","","RIGHT","true","","",""
"","html-keyboard-response","352","407383","0.0-553.0","foco8xjj","2560","1440","","","","","","","","","","","null","+","Fixation - short","","null","","","","","","","","","","","","",""
"","html-keyboard-response","353","407976","0.0-554.0","foco8xjj","2560","1440","","","","","","","","","","","592","swr","Diagnostic trial","","j","10","2","false","true","RIGHT","j","1","","LEFT","false","","",""
"","html-keyboard-response","354","408727","0.0-557.0","foco8xjj","2560","1440","","","","","","","","","","","null","+","Fixation - short","","null","","","","","","","","","","","","",""
"","html-keyboard-response","355","409408","0.0-558.0","foco8xjj","2560","1440","","","","","","","","","","","680","guf","Diagnostic trial","","f","10","3","false","false","LEFT","f","1","","RIGHT","false","","",""
"","html-keyboard-response","356","410171","0.0-561.0","foco8xjj","2560","1440","","","","","","","","","","","null","+","Fixation - short","","null","","","","","","","","","","","","",""
"","html-keyboard-response","357","410903","0.0-562.0","foco8xjj","2560","1440","","","","","","","","","","","732","guf","Diagnostic trial","","j","10","4","false","true","RIGHT","j","1","","RIGHT","true","","",""
"","html-keyboard-response","358","411655","0.0-565.0","foco8xjj","2560","1440","","","","","","","","","","","null","+","Fixation - short","","null","","","","","","","","","","","","",""
"","html-keyboard-response","359","412575","0.0-566.0","foco8xjj","2560","1440","","","","","","","","","","","920","guf","Inducer trial","","f","10","","true","","","f","1","LEFT","","","","",""
"","html-keyboard-response","360","414092","0.0-569.0","foco8xjj","2560","1440","","","","","","","","","","","null","+","Fixation - long","","null","","","","","","","","","","","","",""
"","html-keyboard-response","361","415032","0.0-570.0","foco8xjj","2560","1440","","","","","","","","","","","939","If dgv press RIGHT | If wab press LEFT","Inducer instructions",""," ","11","","","","","","","","","","","",""
"","html-keyboard-response","362","415788","0.0-571.0","foco8xjj","2560","1440","","","","","","","","","","","null","+","Fixation - short","","null","","","","","","","","","","","","",""
"","html-keyboard-response","363","416647","0.0-572.0","foco8xjj","2560","1440","","","","","","","","","","","858","wab","Diagnostic trial","","f","11","0","false","false","LEFT","f","1","","RIGHT","false","","",""
"","html-keyboard-response","364","417408","0.0-575.0","foco8xjj","2560","1440","","","","","","","","","","","null","+","Fixation - short","","null","","","","","","","","","","","","",""
"","html-keyboard-response","365","418255","0.0-576.0","foco8xjj","2560","1440","","","","","","","","","","","847","dgv","Diagnostic trial","","f","11","1","false","false","LEFT","f","1","","LEFT","true","","",""
"","html-keyboard-response","366","419015","0.0-579.0","foco8xjj","2560","1440","","","","","","","","","","","null","+","Fixation - short","","null","","","","","","","","","","","","",""
"","html-keyboard-response","367","419936","0.0-580.0","foco8xjj","2560","1440","","","","","","","","","","","920","dgv","Diagnostic trial","","f","11","2","false","false","LEFT","f","1","","LEFT","true","","",""
"","html-keyboard-response","368","420688","0.0-583.0","foco8xjj","2560","1440","","","","","","","","","","","null","+","Fixation - short","","null","","","","","","","","","","","","",""
"","html-keyboard-response","369","421311","0.0-584.0","foco8xjj","2560","1440","","","","","","","","","","","623","dgv","Diagnostic trial","","j","11","3","false","true","RIGHT","j","1","","LEFT","false","","",""
"","html-keyboard-response","370","422077","0.0-587.0","foco8xjj","2560","1440","","","","","","","","","","","null","+","Fixation - short","","null","","","","","","","","","","","","",""
"","html-keyboard-response","371","423088","0.0-588.0","foco8xjj","2560","1440","","","","","","","","","","","1010","dgv","Diagnostic trial","","j","11","4","false","true","RIGHT","j","1","","LEFT","false","","",""
"","html-keyboard-response","372","423852","0.0-591.0","foco8xjj","2560","1440","","","","","","","","","","","null","+","Fixation - short","","null","","","","","","","","","","","","",""
"","html-keyboard-response","373","424639","0.0-592.0","foco8xjj","2560","1440","","","","","","","","","","","787","wab","Diagnostic trial","","f","11","5","false","false","LEFT","f","1","","RIGHT","false","","",""
"","html-keyboard-response","374","425393","0.0-595.0","foco8xjj","2560","1440","","","","","","","","","","","null","+","Fixation - short","","null","","","","","","","","","","","","",""
"","html-keyboard-response","375","426328","0.0-596.0","foco8xjj","2560","1440","","","","","","","","","","","934","dgv","Diagnostic trial","","j","11","6","false","true","RIGHT","j","1","","LEFT","false","","",""
"","html-keyboard-response","376","427092","0.0-599.0","foco8xjj","2560","1440","","","","","","","","","","","null","+","Fixation - short","","null","","","","","","","","","","","","",""
"","html-keyboard-response","377","427952","0.0-600.0","foco8xjj","2560","1440","","","","","","","","","","","860","wab","Diagnostic trial","","f","11","7","false","false","LEFT","f","1","","RIGHT","false","","",""
"","html-keyboard-response","378","428716","0.0-603.0","foco8xjj","2560","1440","","","","","","","","","","","null","+","Fixation - short","","null","","","","","","","","","","","","",""
"","html-keyboard-response","379","429760","0.0-604.0","foco8xjj","2560","1440","","","","","","","","","","","1043","dgv","Diagnostic trial","","j","11","8","false","true","RIGHT","j","1","","LEFT","false","","",""
"","html-keyboard-response","380","430525","0.0-607.0","foco8xjj","2560","1440","","","","","","","","","","","null","+","Fixation - short","","null","","","","","","","","","","","","",""
"","html-keyboard-response","381","431063","0.0-608.0","foco8xjj","2560","1440","","","","","","","","","","","538","wab","Diagnostic trial","","f","11","9","false","false","LEFT","f","1","","RIGHT","false","","",""
"","html-keyboard-response","382","431822","0.0-611.0","foco8xjj","2560","1440","","","","","","","","","","","null","+","Fixation - short","","null","","","","","","","","","","","","",""
"","html-keyboard-response","383","432295","0.0-612.0","foco8xjj","2560","1440","","","","","","","","","","","472","wab","Diagnostic trial","","f","11","10","false","false","LEFT","f","1","","RIGHT","false","","",""
"","html-keyboard-response","384","433054","0.0-615.0","foco8xjj","2560","1440","","","","","","","","","","","null","+","Fixation - short","","null","","","","","","","","","","","","",""
"","html-keyboard-response","385","433687","0.0-616.0","foco8xjj","2560","1440","","","","","","","","","","","633","dgv","Diagnostic trial","","j","11","11","false","false","LEFT","f","0","","LEFT","true","","",""
"","call-function","386","433687","0.0-618.0-0.0","foco8xjj","","","","","","","","","","","","","","","","","","","","","","","","","","","","","",""
"","html-keyboard-response","387","433993","0.0-618.0-1.0","foco8xjj","2560","1440","","","","","","","","","","","null","Wrong","Feedback","","null","","","","","","","","","","","","",""
"","call-function","388","433993","0.0-618.0-2.0","foco8xjj","","","","","","","","","","","","","","","","","","","","","","","","","","","","","",""
"","html-keyboard-response","389","434754","0.0-619.0","foco8xjj","2560","1440","","","","","","","","","","","null","+","Fixation - short","","null","","","","","","","","","","","","",""
"","html-keyboard-response","390","435511","0.0-620.0","foco8xjj","2560","1440","","","","","","","","","","","757","dgv","Diagnostic trial","","j","11","12","false","true","RIGHT","j","1","","LEFT","false","","",""
"","html-keyboard-response","391","436265","0.0-623.0","foco8xjj","2560","1440","","","","","","","","","","","null","+","Fixation - short","","null","","","","","","","","","","","","",""
"","html-keyboard-response","392","436719","0.0-624.0","foco8xjj","2560","1440","","","","","","","","","","","453","dgv","Diagnostic trial","","j","11","13","false","true","RIGHT","j","1","","LEFT","false","","",""
"","html-keyboard-response","393","437480","0.0-627.0","foco8xjj","2560","1440","","","","","","","","","","","null","+","Fixation - short","","null","","","","","","","","","","","","",""
"","html-keyboard-response","394","438079","0.0-628.0","foco8xjj","2560","1440","","","","","","","","","","","598","wab","Inducer trial","","f","11","","true","","","f","1","LEFT","","","","",""
"","html-keyboard-response","395","439589","0.0-631.0","foco8xjj","2560","1440","","","","","","","","","","","null","+","Fixation - long","","null","","","","","","","","","","","","",""
"","html-keyboard-response","396","440583","0.0-632.0","foco8xjj","2560","1440","","","","","","","","","","","994","If geb press RIGHT | If mda press LEFT","Inducer instructions",""," ","12","","","","","","","","","","","",""
"","html-keyboard-response","397","441339","0.0-633.0","foco8xjj","2560","1440","","","","","","","","","","","null","+","Fixation - short","","null","","","","","","","","","","","","",""
"","html-keyboard-response","398","441839","0.0-634.0","foco8xjj","2560","1440","","","","","","","","","","","500","mda","Diagnostic trial","","f","12","0","false","false","LEFT","f","1","","RIGHT","false","","",""
"","html-keyboard-response","399","442603","0.0-637.0","foco8xjj","2560","1440","","","","","","","","","","","null","+","Fixation - short","","null","","","","","","","","","","","","",""
"","html-keyboard-response","400","443039","0.0-638.0","foco8xjj","2560","1440","","","","","","","","","","","436","geb","Diagnostic trial","","f","12","1","false","false","LEFT","f","1","","LEFT","true","","",""
"","html-keyboard-response","401","443804","0.0-641.0","foco8xjj","2560","1440","","","","","","","","","","","null","+","Fixation - short","","null","","","","","","","","","","","","",""
"","html-keyboard-response","402","444703","0.0-642.0","foco8xjj","2560","1440","","","","","","","","","","","899","mda","Diagnostic trial","","j","12","2","false","true","RIGHT","j","1","","RIGHT","true","","",""
"","html-keyboard-response","403","445463","0.0-645.0","foco8xjj","2560","1440","","","","","","","","","","","null","+","Fixation - short","","null","","","","","","","","","","","","",""
"","html-keyboard-response","404","446087","0.0-646.0","foco8xjj","2560","1440","","","","","","","","","","","624","geb","Diagnostic trial","","f","12","3","false","false","LEFT","f","1","","LEFT","true","","",""
"","html-keyboard-response","405","446849","0.0-649.0","foco8xjj","2560","1440","","","","","","","","","","","null","+","Fixation - short","","null","","","","","","","","","","","","",""
"","html-keyboard-response","406","447784","0.0-650.0","foco8xjj","2560","1440","","","","","","","","","","","934","mda","Inducer trial","","f","12","","true","","","f","1","LEFT","","","","",""
"","html-keyboard-response","407","449297","0.0-653.0","foco8xjj","2560","1440","","","","","","","","","","","null","+","Fixation - long","","null","","","","","","","","","","","","",""
"","html-keyboard-response","408","450552","0.0-654.0","foco8xjj","2560","1440","","","","","","","","","","","1255","If mvv press RIGHT | If vle press LEFT","Inducer instructions",""," ","13","","","","","","","","","","","",""
"","html-keyboard-response","409","451311","0.0-655.0","foco8xjj","2560","1440","","","","","","","","","","","null","+","Fixation - short","","null","","","","","","","","","","","","",""
"","html-keyboard-response","410","452527","0.0-656.0","foco8xjj","2560","1440","","","","","","","","","","","1216","vle","Diagnostic trial","","f","13","0","false","false","LEFT","f","1","","RIGHT","false","","",""
"","html-keyboard-response","411","453288","0.0-659.0","foco8xjj","2560","1440","","","","","","","","","","","null","+","Fixation - short","","null","","","","","","","","","","","","",""
"","html-keyboard-response","412","454167","0.0-660.0","foco8xjj","2560","1440","","","","","","","","","","","879","vle","Diagnostic trial","","f","13","1","false","true","RIGHT","j","0","","RIGHT","true","","",""
"","call-function","413","454167","0.0-662.0-0.0","foco8xjj","","","","","","","","","","","","","","","","","","","","","","","","","","","","","",""
"","html-keyboard-response","414","454475","0.0-662.0-1.0","foco8xjj","2560","1440","","","","","","","","","","","null","Wrong","Feedback","","null","","","","","","","","","","","","",""
"","call-function","415","454475","0.0-662.0-2.0","foco8xjj","","","","","","","","","","","","","","","","","","","","","","","","","","","","","",""
"","html-keyboard-response","416","455241","0.0-663.0","foco8xjj","2560","1440","","","","","","","","","","","null","+","Fixation - short","","null","","","","","","","","","","","","",""
"","html-keyboard-response","417","455719","0.0-664.0","foco8xjj","2560","1440","","","","","","","","","","","478","vle","Diagnostic trial","","j","13","2","false","true","RIGHT","j","1","","RIGHT","true","","",""
"","html-keyboard-response","418","456473","0.0-667.0","foco8xjj","2560","1440","","","","","","","","","","","null","+","Fixation - short","","null","","","","","","","","","","","","",""
"","html-keyboard-response","419","457239","0.0-668.0","foco8xjj","2560","1440","","","","","","","","","","","765","mvv","Diagnostic trial","","f","13","3","false","true","RIGHT","j","0","","LEFT","false","","",""
"","call-function","420","457239","0.0-670.0-0.0","foco8xjj","","","","","","","","","","","","","","","","","","","","","","","","","","","","","",""
"","html-keyboard-response","421","457545","0.0-670.0-1.0","foco8xjj","2560","1440","","","","","","","","","","","null","Wrong","Feedback","","null","","","","","","","","","","","","",""
"","call-function","422","457545","0.0-670.0-2.0","foco8xjj","","","","","","","","","","","","","","","","","","","","","","","","","","","","","",""
"","html-keyboard-response","423","458310","0.0-671.0","foco8xjj","2560","1440","","","","","","","","","","","null","+","Fixation - short","","null","","","","","","","","","","","","",""
"","html-keyboard-response","424","459063","0.0-672.0","foco8xjj","2560","1440","","","","","","","","","","","752","vle","Diagnostic trial","","f","13","4","false","false","LEFT","f","1","","RIGHT","false","","",""
"","html-keyboard-response","425","459820","0.0-675.0","foco8xjj","2560","1440","","","","","","","","","","","null","+","Fixation - short","","null","","","","","","","","","","","","",""
"","html-keyboard-response","426","460287","0.0-676.0","foco8xjj","2560","1440","","","","","","","","","","","466","mvv","Diagnostic trial","","j","13","5","false","true","RIGHT","j","1","","LEFT","false","","",""
"","html-keyboard-response","427","461038","0.0-679.0","foco8xjj","2560","1440","","","","","","","","","","","null","+","Fixation - short","","null","","","","","","","","","","","","",""
"","html-keyboard-response","428","461583","0.0-680.0","foco8xjj","2560","1440","","","","","","","","","","","545","vle","Diagnostic trial","","j","13","6","false","true","RIGHT","j","1","","RIGHT","true","","",""
"","html-keyboard-response","429","462343","0.0-683.0","foco8xjj","2560","1440","","","","","","","","","","","null","+","Fixation - short","","null","","","","","","","","","","","","",""
"","html-keyboard-response","430","462782","0.0-684.0","foco8xjj","2560","1440","","","","","","","","","","","439","vle","Diagnostic trial","","j","13","7","false","true","RIGHT","j","1","","RIGHT","true","","",""
"","html-keyboard-response","431","463546","0.0-687.0","foco8xjj","2560","1440","","","","","","","","","","","null","+","Fixation - short","","null","","","","","","","","","","","","",""
"","html-keyboard-response","432","464023","0.0-688.0","foco8xjj","2560","1440","","","","","","","","","","","477","mvv","Diagnostic trial","","j","13","8","false","false","LEFT","f","0","","LEFT","true","","",""
"","call-function","433","464024","0.0-690.0-0.0","foco8xjj","","","","","","","","","","","","","","","","","","","","","","","","","","","","","",""
"","html-keyboard-response","434","464340","0.0-690.0-1.0","foco8xjj","2560","1440","","","","","","","","","","","null","Wrong","Feedback","","null","","","","","","","","","","","","",""
"","call-function","435","464340","0.0-690.0-2.0","foco8xjj","","","","","","","","","","","","","","","","","","","","","","","","","","","","","",""
"","html-keyboard-response","436","465107","0.0-691.0","foco8xjj","2560","1440","","","","","","","","","","","null","+","Fixation - short","","null","","","","","","","","","","","","",""
"","html-keyboard-response","437","465671","0.0-692.0","foco8xjj","2560","1440","","","","","","","","","","","564","mvv","Diagnostic trial","","j","13","9","false","true","RIGHT","j","1","","LEFT","false","","",""
"","html-keyboard-response","438","466434","0.0-695.0","foco8xjj","2560","1440","","","","","","","","","","","null","+","Fixation - short","","null","","","","","","","","","","","","",""
"","html-keyboard-response","439","467351","0.0-696.0","foco8xjj","2560","1440","","","","","","","","","","","916","vle","Diagnostic trial","","f","13","10","false","false","LEFT","f","1","","RIGHT","false","","",""
"","html-keyboard-response","440","468117","0.0-699.0","foco8xjj","2560","1440","","","","","","","","","","","null","+","Fixation - short","","null","","","","","","","","","","","","",""
"","html-keyboard-response","441","469023","0.0-700.0","foco8xjj","2560","1440","","","","","","","","","","","906","mvv","Diagnostic trial","","f","13","11","false","false","LEFT","f","1","","LEFT","true","","",""
"","html-keyboard-response","442","469787","0.0-703.0","foco8xjj","2560","1440","","","","","","","","","","","null","+","Fixation - short","","null","","","","","","","","","","","","",""
"","html-keyboard-response","443","470655","0.0-704.0","foco8xjj","2560","1440","","","","","","","","","","","868","mvv","Inducer trial","","j","13","","true","","","j","1","RIGHT","","","","",""
"","html-keyboard-response","444","472161","0.0-707.0","foco8xjj","2560","1440","","","","","","","","","","","null","+","Fixation - long","","null","","","","","","","","","","","","",""
"","html-keyboard-response","445","472903","0.0-708.0","foco8xjj","2560","1440","","","","","","","","","","","742","If ori press RIGHT | If vrm press LEFT","Inducer instructions",""," ","14","","","","","","","","","","","",""
"","html-keyboard-response","446","473656","0.0-709.0","foco8xjj","2560","1440","","","","","","","","","","","null","+","Fixation - short","","null","","","","","","","","","","","","",""
"","html-keyboard-response","447","474183","0.0-710.0","foco8xjj","2560","1440","","","","","","","","","","","527","ori","Diagnostic trial","","f","14","0","false","false","LEFT","f","1","","LEFT","true","","",""
"","html-keyboard-response","448","474950","0.0-713.0","foco8xjj","2560","1440","","","","","","","","","","","null","+","Fixation - short","","null","","","","","","","","","","","","",""
"","html-keyboard-response","449","476231","0.0-714.0","foco8xjj","2560","1440","","","","","","","","","","","1281","ori","Diagnostic trial","","j","14","1","false","true","RIGHT","j","1","","LEFT","false","","",""
"","html-keyboard-response","450","476985","0.0-717.0","foco8xjj","2560","1440","","","","","","","","","","","null","+","Fixation - short","","null","","","","","","","","","","","","",""
"","html-keyboard-response","451","477711","0.0-718.0","foco8xjj","2560","1440","","","","","","","","","","","725","vrm","Diagnostic trial","","j","14","2","false","true","RIGHT","j","1","","RIGHT","true","","",""
"","html-keyboard-response","452","478464","0.0-721.0","foco8xjj","2560","1440","","","","","","","","","","","null","+","Fixation - short","","null","","","","","","","","","","","","",""
"","html-keyboard-response","453","479079","0.0-722.0","foco8xjj","2560","1440","","","","","","","","","","","614","ori","Diagnostic trial","","f","14","3","false","false","LEFT","f","1","","LEFT","true","","",""
"","html-keyboard-response","454","479842","0.0-725.0","foco8xjj","2560","1440","","","","","","","","","","","null","+","Fixation - short","","null","","","","","","","","","","","","",""
"","html-keyboard-response","455","480607","0.0-726.0","foco8xjj","2560","1440","","","","","","","","","","","765","vrm","Diagnostic trial","","j","14","4","false","true","RIGHT","j","1","","RIGHT","true","","",""
"","html-keyboard-response","456","481371","0.0-729.0","foco8xjj","2560","1440","","","","","","","","","","","null","+","Fixation - short","","null","","","","","","","","","","","","",""
"","html-keyboard-response","457","482287","0.0-730.0","foco8xjj","2560","1440","","","","","","","","","","","916","vrm","Inducer trial","","f","14","","true","","","f","1","LEFT","","","","",""
"","html-keyboard-response","458","483801","0.0-733.0","foco8xjj","2560","1440","","","","","","","","","","","null","+","Fixation - long","","null","","","","","","","","","","","","",""
"","html-keyboard-response","459","484391","0.0-734.0","foco8xjj","2560","1440","","","","","","","","","","","590","If ccx press RIGHT | If yna press LEFT","Inducer instructions",""," ","15","","","","","","","","","","","",""
"","html-keyboard-response","460","485158","0.0-735.0","foco8xjj","2560","1440","","","","","","","","","","","null","+","Fixation - short","","null","","","","","","","","","","","","",""
"","html-keyboard-response","461","487159","0.0-736.0","foco8xjj","2560","1440","","","","","","","","","","","null","yna","Diagnostic trial","","null","15","0","false","false","LEFT","f","NaN","","RIGHT","false","","",""
"","call-function","462","487159","0.0-737.0-0.0","foco8xjj","","","","","","","","","","","","","","","","","","","","","","","","","","","","","",""
"","html-keyboard-response","463","487469","0.0-737.0-1.0","foco8xjj","2560","1440","","","","","","","","","","","null","Slow","Feedback","","null","","","","","","","","","","","","",""
"","call-function","464","487469","0.0-737.0-2.0","foco8xjj","","","","","","","","","","","","","","","","","","","","","","","","","","","","","",""
"","html-keyboard-response","465","488233","0.0-739.0","foco8xjj","2560","1440","","","","","","","","","","","null","+","Fixation - short","","null","","","","","","","","","","","","",""
"","html-keyboard-response","466","489063","0.0-740.0","foco8xjj","2560","1440","","","","","","","","","","","829","ccx","Diagnostic trial","","f","15","1","false","false","LEFT","f","1","","LEFT","true","","",""
"","html-keyboard-response","467","489826","0.0-743.0","foco8xjj","2560","1440","","","","","","","","","","","null","+","Fixation - short","","null","","","","","","","","","","","","",""
"","html-keyboard-response","468","490447","0.0-744.0","foco8xjj","2560","1440","","","","","","","","","","","621","ccx","Diagnostic trial","","f","15","2","false","false","LEFT","f","1","","LEFT","true","","",""
"","html-keyboard-response","469","491211","0.0-747.0","foco8xjj","2560","1440","","","","","","","","","","","null","+","Fixation - short","","null","","","","","","","","","","","","",""
"","html-keyboard-response","470","491799","0.0-748.0","foco8xjj","2560","1440","","","","","","","","","","","588","yna","Diagnostic trial","","f","15","3","false","false","LEFT","f","1","","RIGHT","false","","",""
"","html-keyboard-response","471","492551","0.0-751.0","foco8xjj","2560","1440","","","","","","","","","","","null","+","Fixation - short","","null","","","","","","","","","","","","",""
"","html-keyboard-response","472","492999","0.0-752.0","foco8xjj","2560","1440","","","","","","","","","","","448","yna","Diagnostic trial","","f","15","4","false","false","LEFT","f","1","","RIGHT","false","","",""
"","html-keyboard-response","473","493754","0.0-755.0","foco8xjj","2560","1440","","","","","","","","","","","null","+","Fixation - short","","null","","","","","","","","","","","","",""
"","html-keyboard-response","474","494695","0.0-756.0","foco8xjj","2560","1440","","","","","","","","","","","941","ccx","Diagnostic trial","","j","15","5","false","true","RIGHT","j","1","","LEFT","false","","",""
"","html-keyboard-response","475","495461","0.0-759.0","foco8xjj","2560","1440","","","","","","","","","","","null","+","Fixation - short","","null","","","","","","","","","","","","",""
"","html-keyboard-response","476","496055","0.0-760.0","foco8xjj","2560","1440","","","","","","","","","","","594","ccx","Diagnostic trial","","f","15","6","false","false","LEFT","f","1","","LEFT","true","","",""
"","html-keyboard-response","477","496819","0.0-763.0","foco8xjj","2560","1440","","","","","","","","","","","null","+","Fixation - short","","null","","","","","","","","","","","","",""
"","html-keyboard-response","478","497552","0.0-764.0","foco8xjj","2560","1440","","","","","","","","","","","732","yna","Diagnostic trial","","f","15","7","false","false","LEFT","f","1","","RIGHT","false","","",""
"","html-keyboard-response","479","498315","0.0-767.0","foco8xjj","2560","1440","","","","","","","","","","","null","+","Fixation - short","","null","","","","","","","","","","","","",""
"","html-keyboard-response","480","498879","0.0-768.0","foco8xjj","2560","1440","","","","","","","","","","","563","ccx","Diagnostic trial","","j","15","8","false","true","RIGHT","j","1","","LEFT","false","","",""
"","html-keyboard-response","481","499639","0.0-771.0","foco8xjj","2560","1440","","","","","","","","","","","null","+","Fixation - short","","null","","","","","","","","","","","","",""
"","html-keyboard-response","482","500647","0.0-772.0","foco8xjj","2560","1440","","","","","","","","","","","1008","yna","Diagnostic trial","","j","15","9","false","true","RIGHT","j","1","","RIGHT","true","","",""
"","html-keyboard-response","483","501403","0.0-775.0","foco8xjj","2560","1440","","","","","","","","","","","null","+","Fixation - short","","null","","","","","","","","","","","","",""
"","html-keyboard-response","484","502311","0.0-776.0","foco8xjj","2560","1440","","","","","","","","","","","908","ccx","Inducer trial","","j","15","","true","","","j","1","RIGHT","","","","",""
"","html-keyboard-response","485","503816","0.0-779.0","foco8xjj","2560","1440","","","","","","","","","","","null","+","Fixation - long","","null","","","","","","","","","","","","",""
"","html-keyboard-response","486","504783","0.0-780.0","foco8xjj","2560","1440","","","","","","","","","","","966","If gso press RIGHT | If eeu press LEFT","Inducer instructions",""," ","16","","","","","","","","","","","",""
"","html-keyboard-response","487","505535","0.0-781.0","foco8xjj","2560","1440","","","","","","","","","","","null","+","Fixation - short","","null","","","","","","","","","","","","",""
"","html-keyboard-response","488","506231","0.0-782.0","foco8xjj","2560","1440","","","","","","","","","","","696","eeu","Diagnostic trial","","f","16","0","false","false","LEFT","f","1","","RIGHT","false","","",""
"","html-keyboard-response","489","506985","0.0-785.0","foco8xjj","2560","1440","","","","","","","","","","","null","+","Fixation - short","","null","","","","","","","","","","","","",""
"","html-keyboard-response","490","507615","0.0-786.0","foco8xjj","2560","1440","","","","","","","","","","","630","eeu","Diagnostic trial","","j","16","1","false","true","RIGHT","j","1","","RIGHT","true","","",""
"","html-keyboard-response","491","508377","0.0-789.0","foco8xjj","2560","1440","","","","","","","","","","","null","+","Fixation - short","","null","","","","","","","","","","","","",""
"","html-keyboard-response","492","509031","0.0-790.0","foco8xjj","2560","1440","","","","","","","","","","","654","gso","Diagnostic trial","","f","16","2","false","false","LEFT","f","1","","LEFT","true","","",""
"","html-keyboard-response","493","509797","0.0-793.0","foco8xjj","2560","1440","","","","","","","","","","","null","+","Fixation - short","","null","","","","","","","","","","","","",""
"","html-keyboard-response","494","510327","0.0-794.0","foco8xjj","2560","1440","","","","","","","","","","","530","eeu","Diagnostic trial","","j","16","3","false","true","RIGHT","j","1","","RIGHT","true","","",""
"","html-keyboard-response","495","511092","0.0-797.0","foco8xjj","2560","1440","","","","","","","","","","","null","+","Fixation - short","","null","","","","","","","","","","","","",""
"","html-keyboard-response","496","511951","0.0-798.0","foco8xjj","2560","1440","","","","","","","","","","","859","eeu","Diagnostic trial","","j","16","4","false","true","RIGHT","j","1","","RIGHT","true","","",""
"","html-keyboard-response","497","512717","0.0-801.0","foco8xjj","2560","1440","","","","","","","","","","","null","+","Fixation - short","","null","","","","","","","","","","","","",""
"","html-keyboard-response","498","513183","0.0-802.0","foco8xjj","2560","1440","","","","","","","","","","","466","gso","Diagnostic trial","","f","16","5","false","true","RIGHT","j","0","","LEFT","false","","",""
"","call-function","499","513183","0.0-804.0-0.0","foco8xjj","","","","","","","","","","","","","","","","","","","","","","","","","","","","","",""
"","html-keyboard-response","500","513497","0.0-804.0-1.0","foco8xjj","2560","1440","","","","","","","","","","","null","Wrong","Feedback","","null","","","","","","","","","","","","",""
"","call-function","501","513497","0.0-804.0-2.0","foco8xjj","","","","","","","","","","","","","","","","","","","","","","","","","","","","","",""
"","html-keyboard-response","502","514261","0.0-805.0","foco8xjj","2560","1440","","","","","","","","","","","null","+","Fixation - short","","null","","","","","","","","","","","","",""
"","html-keyboard-response","503","514879","0.0-806.0","foco8xjj","2560","1440","","","","","","","","","","","618","gso","Diagnostic trial","","j","16","6","false","true","RIGHT","j","1","","LEFT","false","","",""
"","html-keyboard-response","504","515637","0.0-809.0","foco8xjj","2560","1440","","","","","","","","","","","null","+","Fixation - short","","null","","","","","","","","","","","","",""
