"value","trial_type","trial_index","time_elapsed","internal_node_id","id","width","height","webaudio","browser","browser_version","mobile","os","fullscreen","vsync_rate","webcam","microphone","view_history","rt","stimulus","trial_info","success","response","inducer_run","diagnostic_run","inducer_trial","italic","correct_diag_response_side","correct_response_key","correct_response","correct_indu_response_side","correct_inducer_response_side","congruent","accuracy","open_feedback","interactive"
"","call-function","0","6","0.0-0.0","zoum5kls","","","","","","","","","","","","","","","","","","","","","","","","","","","","","",""
"","browser-check","1","2001","0.0-1.0","zoum5kls","1920","919","true","chrome","120.0.0","false","Windows 10","true","146.84","false","true","","","","","","","","","","","","","","","","","","",""
"","instructions","2","1069250","0.0-2.0","zoum5kls","","","","","","","","","","","","[{""page_index"":0,""viewing_time"":1879},{""page_index"":1,""viewing_time"":1062558},{""page_index"":2,""viewing_time"":2811}]","1067248","The experiment and consent","The experiment and consent","","","","","","","","","","","","","","",""
"","fullscreen","3","1071579","0.0-3.0","zoum5kls","1920","1080","","","","","","","","","","","1320","","Full screen","true","","","","","","","","","","","","","",""
"","instructions","4","1090999","0.0-4.0","zoum5kls","1920","1080","","","","","","","","","","[{""page_index"":0,""viewing_time"":13650},{""page_index"":1,""viewing_time"":5769}]","19419","Instructions","Basic overview explanation","","","","","","","","","","","","","","",""
"","html-keyboard-response","5","1097511","0.0-5.0","zoum5kls","1920","1080","","","","","","","","","","","4997","If italic press LEFT | If upright press RIGHT","Diagnostic instructions",""," ","","","","","","","","","","","","",""
"","html-keyboard-response","6","1098271","0.0-6.0","zoum5kls","1920","1080","","","","","","","","","","","null","+","Fixation - short","","null","","","","","","","","","","","","",""
"","html-keyboard-response","7","1098895","0.0-7.0","zoum5kls","1920","1080","","","","","","","","","","","624","ydi","Practice diganostic trial","","f","practice","0","false","1","LEFT","f","1","","","","","",""
"","html-keyboard-response","8","1099657","0.0-10.0","zoum5kls","1920","1080","","","","","","","","","","","null","+","Fixation - short","","null","","","","","","","","","","","","",""
"","html-keyboard-response","9","1100251","0.0-11.0","zoum5kls","1920","1080","","","","","","","","","","","594","ydi","Practice diganostic trial","","j","practice","1","false","0","RIGHT","j","1","","","","","",""
"","html-keyboard-response","10","1101010","0.0-14.0","zoum5kls","1920","1080","","","","","","","","","","","null","+","Fixation - short","","null","","","","","","","","","","","","",""
"","html-keyboard-response","11","1101485","0.0-15.0","zoum5kls","1920","1080","","","","","","","","","","","474","ydi","Practice diganostic trial","","j","practice","2","false","0","RIGHT","j","1","","","","","",""
"","html-keyboard-response","12","1102241","0.0-18.0","zoum5kls","1920","1080","","","","","","","","","","","null","+","Fixation - short","","null","","","","","","","","","","","","",""
"","html-keyboard-response","13","1102648","0.0-19.0","zoum5kls","1920","1080","","","","","","","","","","","407","ydi","Practice diganostic trial","","j","practice","3","false","0","RIGHT","j","1","","","","","",""
"","html-keyboard-response","14","1103413","0.0-22.0","zoum5kls","1920","1080","","","","","","","","","","","null","+","Fixation - short","","null","","","","","","","","","","","","",""
"","html-keyboard-response","15","1103891","0.0-23.0","zoum5kls","1920","1080","","","","","","","","","","","478","dof","Practice diganostic trial","","j","practice","4","false","0","RIGHT","j","1","","","","","",""
"","html-keyboard-response","16","1104652","0.0-26.0","zoum5kls","1920","1080","","","","","","","","","","","null","+","Fixation - short","","null","","","","","","","","","","","","",""
"","html-keyboard-response","17","1105118","0.0-27.0","zoum5kls","1920","1080","","","","","","","","","","","465","ydi","Practice diganostic trial","","f","practice","5","false","1","LEFT","f","1","","","","","",""
"","html-keyboard-response","18","1105876","0.0-30.0","zoum5kls","1920","1080","","","","","","","","","","","null","+","Fixation - short","","null","","","","","","","","","","","","",""
"","html-keyboard-response","19","1106275","0.0-31.0","zoum5kls","1920","1080","","","","","","","","","","","399","ydi","Practice diganostic trial","","f","practice","6","false","1","LEFT","f","1","","","","","",""
"","html-keyboard-response","20","1107028","0.0-34.0","zoum5kls","1920","1080","","","","","","","","","","","null","+","Fixation - short","","null","","","","","","","","","","","","",""
"","html-keyboard-response","21","1107465","0.0-35.0","zoum5kls","1920","1080","","","","","","","","","","","437","dof","Practice diganostic trial","","j","practice","7","false","0","RIGHT","j","1","","","","","",""
"","html-keyboard-response","22","1108216","0.0-38.0","zoum5kls","1920","1080","","","","","","","","","","","null","+","Fixation - short","","null","","","","","","","","","","","","",""
"","html-keyboard-response","23","1108685","0.0-39.0","zoum5kls","1920","1080","","","","","","","","","","","469","ydi","Practice diganostic trial","","f","practice","8","false","1","LEFT","f","1","","","","","",""
"","html-keyboard-response","24","1109436","0.0-42.0","zoum5kls","1920","1080","","","","","","","","","","","null","+","Fixation - short","","null","","","","","","","","","","","","",""
"","html-keyboard-response","25","1110017","0.0-43.0","zoum5kls","1920","1080","","","","","","","","","","","580","ydi","Practice diganostic trial","","f","practice","9","false","0","RIGHT","j","0","","","","","",""
"","call-function","26","1110017","0.0-45.0-0.0","zoum5kls","","","","","","","","","","","","","","","","","","","","","","","","","","","","","",""
"","html-keyboard-response","27","1110324","0.0-45.0-1.0","zoum5kls","1920","1080","","","","","","","","","","","null","Wrong","Feedback","","null","","","","","","","","","","","","",""
"","call-function","28","1110324","0.0-45.0-2.0","zoum5kls","","","","","","","","","","","","","","","","","","","","","","","","","","","","","",""
"","html-keyboard-response","29","1111086","0.0-46.0","zoum5kls","1920","1080","","","","","","","","","","","null","+","Fixation - short","","null","","","","","","","","","","","","",""
"","html-keyboard-response","30","1111788","0.0-47.0","zoum5kls","1920","1080","","","","","","","","","","","701","ydi","Practice diganostic trial","","f","practice","10","false","1","LEFT","f","1","","","","","",""
"","html-keyboard-response","31","1112540","0.0-50.0","zoum5kls","1920","1080","","","","","","","","","","","null","+","Fixation - short","","null","","","","","","","","","","","","",""
"","html-keyboard-response","32","1113257","0.0-51.0","zoum5kls","1920","1080","","","","","","","","","","","717","dof","Practice diganostic trial","","f","practice","11","false","1","LEFT","f","1","","","","","",""
"","html-keyboard-response","33","1114021","0.0-54.0","zoum5kls","1920","1080","","","","","","","","","","","null","+","Fixation - short","","null","","","","","","","","","","","","",""
"","html-keyboard-response","34","1114415","0.0-55.0","zoum5kls","1920","1080","","","","","","","","","","","393","dof","Practice diganostic trial","","f","practice","12","false","1","LEFT","f","1","","","","","",""
"","html-keyboard-response","35","1115179","0.0-58.0","zoum5kls","1920","1080","","","","","","","","","","","null","+","Fixation - short","","null","","","","","","","","","","","","",""
"","html-keyboard-response","36","1115710","0.0-59.0","zoum5kls","1920","1080","","","","","","","","","","","530","dof","Practice diganostic trial","","j","practice","13","false","0","RIGHT","j","1","","","","","",""
"","html-keyboard-response","37","1116468","0.0-62.0","zoum5kls","1920","1080","","","","","","","","","","","null","+","Fixation - short","","null","","","","","","","","","","","","",""
"","html-keyboard-response","38","1116931","0.0-63.0","zoum5kls","1920","1080","","","","","","","","","","","462","dof","Practice diganostic trial","","j","practice","14","false","1","LEFT","f","0","","","","","",""
"","call-function","39","1116931","0.0-65.0-0.0","zoum5kls","","","","","","","","","","","","","","","","","","","","","","","","","","","","","",""
"","html-keyboard-response","40","1117243","0.0-65.0-1.0","zoum5kls","1920","1080","","","","","","","","","","","null","Wrong","Feedback","","null","","","","","","","","","","","","",""
"","call-function","41","1117243","0.0-65.0-2.0","zoum5kls","","","","","","","","","","","","","","","","","","","","","","","","","","","","","",""
"","html-keyboard-response","42","1118006","0.0-66.0","zoum5kls","1920","1080","","","","","","","","","","","null","+","Fixation - short","","null","","","","","","","","","","","","",""
"","html-keyboard-response","43","1118579","0.0-67.0","zoum5kls","1920","1080","","","","","","","","","","","572","dof","Practice diganostic trial","","j","practice","15","false","0","RIGHT","j","1","","","","","",""
"","html-keyboard-response","44","1119336","0.0-70.0","zoum5kls","1920","1080","","","","","","","","","","","null","+","Fixation - short","","null","","","","","","","","","","","","",""
"","instructions","45","1125609","0.0-71.0","zoum5kls","1920","1080","","","","","","","","","","[{""page_index"":0,""viewing_time"":6272}]","6272","Instructions","Final experiment explanation","","","","","","","","","","","","","","",""
"","html-keyboard-response","46","1132314","0.0-72.0","zoum5kls","1920","1080","","","","","","","","","","","5196","If afp press LEFT | If quy press RIGHT","Practice inducer instructions",""," ","practice","","","","","","","","","","","",""
"","html-keyboard-response","47","1133200","0.0-73.0","zoum5kls","1920","1080","","","","","","","","","","","885","","Practice inducer trial","","f","practice","","true","","","f","1","LEFT","","","","",""
"","html-keyboard-response","48","1133952","0.0-76.0","zoum5kls","1920","1080","","","","","","","","","","","null","+","Fixation - short","","null","","","","","","","","","","","","",""
"","html-keyboard-response","49","1137860","0.0-77.0","zoum5kls","1920","1080","","","","","","","","","","","3908","If gso press LEFT | If imm press RIGHT","Practice inducer instructions",""," ","practice","","","","","","","","","","","",""
"","html-keyboard-response","50","1138476","0.0-78.0","zoum5kls","1920","1080","","","","","","","","","","","615","","Practice inducer trial","","f","practice","","true","","","f","1","LEFT","","","","",""
"","html-keyboard-response","51","1139236","0.0-81.0","zoum5kls","1920","1080","","","","","","","","","","","null","+","Fixation - short","","null","","","","","","","","","","","","",""
"","html-keyboard-response","52","1139950","0.0-82.0","zoum5kls","1920","1080","","","","","","","","","","","714","If snx press LEFT | If pcm press RIGHT","Practice inducer instructions",""," ","practice","","","","","","","","","","","",""
"","html-keyboard-response","53","1140563","0.0-83.0","zoum5kls","1920","1080","","","","","","","","","","","613","","Practice inducer trial","","j","practice","","true","","","j","1","RIGHT","","","","",""
"","html-keyboard-response","54","1141316","0.0-86.0","zoum5kls","1920","1080","","","","","","","","","","","null","+","Fixation - short","","null","","","","","","","","","","","","",""
"","html-keyboard-response","55","1142107","0.0-87.0","zoum5kls","1920","1080","","","","","","","","","","","791","If vpu press LEFT | If tkb press RIGHT","Practice inducer instructions",""," ","practice","","","","","","","","","","","",""
"","html-keyboard-response","56","1142714","0.0-88.0","zoum5kls","1920","1080","","","","","","","","","","","607","","Practice inducer trial","","j","practice","","true","","","j","1","RIGHT","","","","",""
"","html-keyboard-response","57","1143476","0.0-91.0","zoum5kls","1920","1080","","","","","","","","","","","null","+","Fixation - short","","null","","","","","","","","","","","","",""
"","html-keyboard-response","58","1144391","0.0-92.0","zoum5kls","1920","1080","","","","","","","","","","","915","If flh press LEFT | If epy press RIGHT","Practice inducer instructions",""," ","practice","","","","","","","","","","","",""
"","html-keyboard-response","59","1144967","0.0-93.0","zoum5kls","1920","1080","","","","","","","","","","","576","","Practice inducer trial","","f","practice","","true","","","f","1","LEFT","","","","",""
"","html-keyboard-response","60","1145723","0.0-96.0","zoum5kls","1920","1080","","","","","","","","","","","null","+","Fixation - short","","null","","","","","","","","","","","","",""
"","html-keyboard-response","61","1146379","0.0-97.0","zoum5kls","1920","1080","","","","","","","","","","","655","If crf press LEFT | If vsc press RIGHT","Practice inducer instructions",""," ","practice","","","","","","","","","","","",""
"","html-keyboard-response","62","1146920","0.0-98.0","zoum5kls","1920","1080","","","","","","","","","","","541","","Practice inducer trial","","j","practice","","true","","","j","1","RIGHT","","","","",""
"","html-keyboard-response","63","1147675","0.0-101.0","zoum5kls","1920","1080","","","","","","","","","","","null","+","Fixation - short","","null","","","","","","","","","","","","",""
"","html-keyboard-response","64","1154205","0.0-102.0","zoum5kls","1920","1080","","","","","","","","","","","6529","End practice","End of practice",""," ","","","","","","","","","","","","",""
"","html-keyboard-response","65","1155718","0.0-103.0","zoum5kls","1920","1080","","","","","","","","","","","null","+","Fixation - long","","null","","","","","","","","","","","","",""
"","html-keyboard-response","66","1156761","0.0-104.0","zoum5kls","1920","1080","","","","","","","","","","","1042","If dij press LEFT | If nga press RIGHT","Inducer instructions",""," ","0","","","","","","","","","","","",""
"","html-keyboard-response","67","1157518","0.0-105.0","zoum5kls","1920","1080","","","","","","","","","","","null","+","Fixation - short","","null","","","","","","","","","","","","",""
"","html-keyboard-response","68","1158217","0.0-106.0","zoum5kls","1920","1080","","","","","","","","","","","698","nga","Diagnostic trial","","j","0","0","false","true","LEFT","f","0","","RIGHT","false","","",""
"","call-function","69","1158217","0.0-108.0-0.0","zoum5kls","","","","","","","","","","","","","","","","","","","","","","","","","","","","","",""
"","html-keyboard-response","70","1158517","0.0-108.0-1.0","zoum5kls","1920","1080","","","","","","","","","","","null","Wrong","Feedback","","null","","","","","","","","","","","","",""
"","call-function","71","1158518","0.0-108.0-2.0","zoum5kls","","","","","","","","","","","","","","","","","","","","","","","","","","","","","",""
"","html-keyboard-response","72","1159283","0.0-109.0","zoum5kls","1920","1080","","","","","","","","","","","null","+","Fixation - short","","null","","","","","","","","","","","","",""
"","html-keyboard-response","73","1160147","0.0-110.0","zoum5kls","1920","1080","","","","","","","","","","","864","dij","Diagnostic trial","","f","0","1","false","true","LEFT","f","1","","LEFT","true","","",""
"","html-keyboard-response","74","1160900","0.0-113.0","zoum5kls","1920","1080","","","","","","","","","","","null","+","Fixation - short","","null","","","","","","","","","","","","",""
"","html-keyboard-response","75","1161613","0.0-114.0","zoum5kls","1920","1080","","","","","","","","","","","712","nga","Diagnostic trial","","f","0","2","false","true","LEFT","f","1","","RIGHT","false","","",""
"","html-keyboard-response","76","1162367","0.0-117.0","zoum5kls","1920","1080","","","","","","","","","","","null","+","Fixation - short","","null","","","","","","","","","","","","",""
"","html-keyboard-response","77","1163292","0.0-118.0","zoum5kls","1920","1080","","","","","","","","","","","924","dij","Diagnostic trial","","f","0","3","false","true","LEFT","f","1","","LEFT","true","","",""
"","html-keyboard-response","78","1164047","0.0-121.0","zoum5kls","1920","1080","","","","","","","","","","","null","+","Fixation - short","","null","","","","","","","","","","","","",""
"","html-keyboard-response","79","1164730","0.0-122.0","zoum5kls","1920","1080","","","","","","","","","","","682","dij","Diagnostic trial","","j","0","4","false","false","RIGHT","j","1","","LEFT","false","","",""
"","html-keyboard-response","80","1165489","0.0-125.0","zoum5kls","1920","1080","","","","","","","","","","","null","+","Fixation - short","","null","","","","","","","","","","","","",""
"","html-keyboard-response","81","1166094","0.0-126.0","zoum5kls","1920","1080","","","","","","","","","","","605","dij","Diagnostic trial","","f","0","5","false","true","LEFT","f","1","","LEFT","true","","",""
"","html-keyboard-response","82","1166852","0.0-129.0","zoum5kls","1920","1080","","","","","","","","","","","null","+","Fixation - short","","null","","","","","","","","","","","","",""
"","html-keyboard-response","83","1167966","0.0-130.0","zoum5kls","1920","1080","","","","","","","","","","","1114","dij","Inducer trial","","f","0","","true","","","f","1","LEFT","","","","",""
"","html-keyboard-response","84","1169482","0.0-133.0","zoum5kls","1920","1080","","","","","","","","","","","null","+","Fixation - long","","null","","","","","","","","","","","","",""
"","html-keyboard-response","85","1175451","0.0-134.0","zoum5kls","1920","1080","","","","","","","","","","","5969","If oez press LEFT | If eeu press RIGHT","Inducer instructions",""," ","1","","","","","","","","","","","",""
"","html-keyboard-response","86","1176208","0.0-135.0","zoum5kls","1920","1080","","","","","","","","","","","null","+","Fixation - short","","null","","","","","","","","","","","","",""
"","html-keyboard-response","87","1177015","0.0-136.0","zoum5kls","1920","1080","","","","","","","","","","","806","eeu","Diagnostic trial","","j","1","0","false","false","RIGHT","j","1","","RIGHT","true","","",""
"","html-keyboard-response","88","1177767","0.0-139.0","zoum5kls","1920","1080","","","","","","","","","","","null","+","Fixation - short","","null","","","","","","","","","","","","",""
"","html-keyboard-response","89","1178328","0.0-140.0","zoum5kls","1920","1080","","","","","","","","","","","560","eeu","Diagnostic trial","","j","1","1","false","false","RIGHT","j","1","","RIGHT","true","","",""
"","html-keyboard-response","90","1179083","0.0-143.0","zoum5kls","1920","1080","","","","","","","","","","","null","+","Fixation - short","","null","","","","","","","","","","","","",""
"","html-keyboard-response","91","1179780","0.0-144.0","zoum5kls","1920","1080","","","","","","","","","","","697","oez","Diagnostic trial","","j","1","2","false","false","RIGHT","j","1","","LEFT","false","","",""
"","html-keyboard-response","92","1180537","0.0-147.0","zoum5kls","1920","1080","","","","","","","","","","","null","+","Fixation - short","","null","","","","","","","","","","","","",""
"","html-keyboard-response","93","1181313","0.0-148.0","zoum5kls","1920","1080","","","","","","","","","","","775","eeu","Diagnostic trial","","f","1","3","false","true","LEFT","f","1","","RIGHT","false","","",""
"","html-keyboard-response","94","1182075","0.0-151.0","zoum5kls","1920","1080","","","","","","","","","","","null","+","Fixation - short","","null","","","","","","","","","","","","",""
"","html-keyboard-response","95","1183139","0.0-152.0","zoum5kls","1920","1080","","","","","","","","","","","1064","oez","Inducer trial","","j","1","","true","","","f","0","LEFT","","","","",""
"","call-function","96","1183140","0.0-154.0-0.0","zoum5kls","","","","","","","","","","","","","","","","","","","","","","","","","","","","","",""
"","html-keyboard-response","97","1183442","0.0-154.0-1.0","zoum5kls","1920","1080","","","","","","","","","","","null","Wrong","Feedback","","null","","","","","","","","","","","","",""
"","call-function","98","1183442","0.0-154.0-2.0","zoum5kls","","","","","","","","","","","","","","","","","","","","","","","","","","","","","",""
"","html-keyboard-response","99","1184949","0.0-155.0","zoum5kls","1920","1080","","","","","","","","","","","null","+","Fixation - long","","null","","","","","","","","","","","","",""
"","html-keyboard-response","100","1186074","0.0-156.0","zoum5kls","1920","1080","","","","","","","","","","","1125","If geb press LEFT | If chy press RIGHT","Inducer instructions",""," ","2","","","","","","","","","","","",""
"","html-keyboard-response","101","1186830","0.0-157.0","zoum5kls","1920","1080","","","","","","","","","","","null","+","Fixation - short","","null","","","","","","","","","","","","",""
"","html-keyboard-response","102","1188003","0.0-158.0","zoum5kls","1920","1080","","","","","","","","","","","1173","geb","Diagnostic trial","","f","2","0","false","true","LEFT","f","1","","LEFT","true","","",""
"","html-keyboard-response","103","1188765","0.0-161.0","zoum5kls","1920","1080","","","","","","","","","","","null","+","Fixation - short","","null","","","","","","","","","","","","",""
"","html-keyboard-response","104","1189401","0.0-162.0","zoum5kls","1920","1080","","","","","","","","","","","635","geb","Diagnostic trial","","j","2","1","false","false","RIGHT","j","1","","LEFT","false","","",""
"","html-keyboard-response","105","1190162","0.0-165.0","zoum5kls","1920","1080","","","","","","","","","","","null","+","Fixation - short","","null","","","","","","","","","","","","",""
"","html-keyboard-response","106","1190691","0.0-166.0","zoum5kls","1920","1080","","","","","","","","","","","528","geb","Diagnostic trial","","f","2","2","false","true","LEFT","f","1","","LEFT","true","","",""
"","html-keyboard-response","107","1191448","0.0-169.0","zoum5kls","1920","1080","","","","","","","","","","","null","+","Fixation - short","","null","","","","","","","","","","","","",""
"","html-keyboard-response","108","1192459","0.0-170.0","zoum5kls","1920","1080","","","","","","","","","","","1011","chy","Diagnostic trial","","f","2","3","false","true","LEFT","f","1","","RIGHT","false","","",""
"","html-keyboard-response","109","1193222","0.0-173.0","zoum5kls","1920","1080","","","","","","","","","","","null","+","Fixation - short","","null","","","","","","","","","","","","",""
"","html-keyboard-response","110","1193882","0.0-174.0","zoum5kls","1920","1080","","","","","","","","","","","659","geb","Diagnostic trial","","j","2","4","false","false","RIGHT","j","1","","LEFT","false","","",""
"","html-keyboard-response","111","1194638","0.0-177.0","zoum5kls","1920","1080","","","","","","","","","","","null","+","Fixation - short","","null","","","","","","","","","","","","",""
"","html-keyboard-response","112","1195356","0.0-178.0","zoum5kls","1920","1080","","","","","","","","","","","716","geb","Diagnostic trial","","f","2","5","false","true","LEFT","f","1","","LEFT","true","","",""
"","html-keyboard-response","113","1196116","0.0-181.0","zoum5kls","1920","1080","","","","","","","","","","","null","+","Fixation - short","","null","","","","","","","","","","","","",""
"","html-keyboard-response","114","1196995","0.0-182.0","zoum5kls","1920","1080","","","","","","","","","","","879","geb","Inducer trial","","f","2","","true","","","f","1","LEFT","","","","",""
"","html-keyboard-response","115","1198501","0.0-185.0","zoum5kls","1920","1080","","","","","","","","","","","null","+","Fixation - long","","null","","","","","","","","","","","","",""
"","html-keyboard-response","116","1200974","0.0-186.0","zoum5kls","1920","1080","","","","","","","","","","","2472","If adj press LEFT | If vle press RIGHT","Inducer instructions",""," ","3","","","","","","","","","","","",""
"","html-keyboard-response","117","1201737","0.0-187.0","zoum5kls","1920","1080","","","","","","","","","","","null","+","Fixation - short","","null","","","","","","","","","","","","",""
"","html-keyboard-response","118","1202538","0.0-188.0","zoum5kls","1920","1080","","","","","","","","","","","800","vle","Diagnostic trial","","f","3","0","false","true","LEFT","f","1","","RIGHT","false","","",""
"","html-keyboard-response","119","1203304","0.0-191.0","zoum5kls","1920","1080","","","","","","","","","","","null","+","Fixation - short","","null","","","","","","","","","","","","",""
"","html-keyboard-response","120","1204196","0.0-192.0","zoum5kls","1920","1080","","","","","","","","","","","891","vle","Diagnostic trial","","f","3","1","false","true","LEFT","f","1","","RIGHT","false","","",""
"","html-keyboard-response","121","1204959","0.0-195.0","zoum5kls","1920","1080","","","","","","","","","","","null","+","Fixation - short","","null","","","","","","","","","","","","",""
"","html-keyboard-response","122","1205517","0.0-196.0","zoum5kls","1920","1080","","","","","","","","","","","558","vle","Diagnostic trial","","f","3","2","false","true","LEFT","f","1","","RIGHT","false","","",""
"","html-keyboard-response","123","1206277","0.0-199.0","zoum5kls","1920","1080","","","","","","","","","","","null","+","Fixation - short","","null","","","","","","","","","","","","",""
"","html-keyboard-response","124","1206791","0.0-200.0","zoum5kls","1920","1080","","","","","","","","","","","513","vle","Diagnostic trial","","j","3","3","false","false","RIGHT","j","1","","RIGHT","true","","",""
"","html-keyboard-response","125","1207545","0.0-203.0","zoum5kls","1920","1080","","","","","","","","","","","null","+","Fixation - short","","null","","","","","","","","","","","","",""
"","html-keyboard-response","126","1208161","0.0-204.0","zoum5kls","1920","1080","","","","","","","","","","","615","vle","Inducer trial","","f","3","","true","","","j","0","RIGHT","","","","",""
"","call-function","127","1208161","0.0-206.0-0.0","zoum5kls","","","","","","","","","","","","","","","","","","","","","","","","","","","","","",""
"","html-keyboard-response","128","1208471","0.0-206.0-1.0","zoum5kls","1920","1080","","","","","","","","","","","null","Wrong","Feedback","","null","","","","","","","","","","","","",""
"","call-function","129","1208471","0.0-206.0-2.0","zoum5kls","","","","","","","","","","","","","","","","","","","","","","","","","","","","","",""
"","html-keyboard-response","130","1209975","0.0-207.0","zoum5kls","1920","1080","","","","","","","","","","","null","+","Fixation - long","","null","","","","","","","","","","","","",""
"","html-keyboard-response","131","1210735","0.0-208.0","zoum5kls","1920","1080","","","","","","","","","","","759","If jup press LEFT | If ivr press RIGHT","Inducer instructions",""," ","4","","","","","","","","","","","",""
"","html-keyboard-response","132","1211495","0.0-209.0","zoum5kls","1920","1080","","","","","","","","","","","null","+","Fixation - short","","null","","","","","","","","","","","","",""
"","html-keyboard-response","133","1212174","0.0-210.0","zoum5kls","1920","1080","","","","","","","","","","","679","jup","Diagnostic trial","","f","4","0","false","true","LEFT","f","1","","LEFT","true","","",""
"","html-keyboard-response","134","1212931","0.0-213.0","zoum5kls","1920","1080","","","","","","","","","","","null","+","Fixation - short","","null","","","","","","","","","","","","",""
"","html-keyboard-response","135","1213463","0.0-214.0","zoum5kls","1920","1080","","","","","","","","","","","532","jup","Diagnostic trial","","f","4","1","false","true","LEFT","f","1","","LEFT","true","","",""
"","html-keyboard-response","136","1214225","0.0-217.0","zoum5kls","1920","1080","","","","","","","","","","","null","+","Fixation - short","","null","","","","","","","","","","","","",""
"","html-keyboard-response","137","1214641","0.0-218.0","zoum5kls","1920","1080","","","","","","","","","","","416","jup","Diagnostic trial","","f","4","2","false","true","LEFT","f","1","","LEFT","true","","",""
"","html-keyboard-response","138","1215398","0.0-221.0","zoum5kls","1920","1080","","","","","","","","","","","null","+","Fixation - short","","null","","","","","","","","","","","","",""
"","html-keyboard-response","139","1215795","0.0-222.0","zoum5kls","1920","1080","","","","","","","","","","","397","jup","Diagnostic trial","","f","4","3","false","true","LEFT","f","1","","LEFT","true","","",""
"","html-keyboard-response","140","1216553","0.0-225.0","zoum5kls","1920","1080","","","","","","","","","","","null","+","Fixation - short","","null","","","","","","","","","","","","",""
"","html-keyboard-response","141","1216924","0.0-226.0","zoum5kls","1920","1080","","","","","","","","","","","370","jup","Diagnostic trial","","f","4","4","false","true","LEFT","f","1","","LEFT","true","","",""
"","html-keyboard-response","142","1217676","0.0-229.0","zoum5kls","1920","1080","","","","","","","","","","","null","+","Fixation - short","","null","","","","","","","","","","","","",""
"","html-keyboard-response","143","1218049","0.0-230.0","zoum5kls","1920","1080","","","","","","","","","","","373","jup","Diagnostic trial","","f","4","5","false","true","LEFT","f","1","","LEFT","true","","",""
"","html-keyboard-response","144","1218800","0.0-233.0","zoum5kls","1920","1080","","","","","","","","","","","null","+","Fixation - short","","null","","","","","","","","","","","","",""
"","html-keyboard-response","145","1219391","0.0-234.0","zoum5kls","1920","1080","","","","","","","","","","","591","jup","Diagnostic trial","","j","4","6","false","false","RIGHT","j","1","","LEFT","false","","",""
"","html-keyboard-response","146","1220151","0.0-237.0","zoum5kls","1920","1080","","","","","","","","","","","null","+","Fixation - short","","null","","","","","","","","","","","","",""
"","html-keyboard-response","147","1221157","0.0-238.0","zoum5kls","1920","1080","","","","","","","","","","","1006","ivr","Diagnostic trial","","j","4","7","false","false","RIGHT","j","1","","RIGHT","true","","",""
"","html-keyboard-response","148","1221910","0.0-241.0","zoum5kls","1920","1080","","","","","","","","","","","null","+","Fixation - short","","null","","","","","","","","","","","","",""
"","html-keyboard-response","149","1222422","0.0-242.0","zoum5kls","1920","1080","","","","","","","","","","","511","ivr","Diagnostic trial","","j","4","8","false","false","RIGHT","j","1","","RIGHT","true","","",""
"","html-keyboard-response","150","1223178","0.0-245.0","zoum5kls","1920","1080","","","","","","","","","","","null","+","Fixation - short","","null","","","","","","","","","","","","",""
"","html-keyboard-response","151","1223567","0.0-246.0","zoum5kls","1920","1080","","","","","","","","","","","389","ivr","Diagnostic trial","","j","4","9","false","false","RIGHT","j","1","","RIGHT","true","","",""
"","html-keyboard-response","152","1224332","0.0-249.0","zoum5kls","1920","1080","","","","","","","","","","","null","+","Fixation - short","","null","","","","","","","","","","","","",""
"","html-keyboard-response","153","1224855","0.0-250.0","zoum5kls","1920","1080","","","","","","","","","","","523","jup","Diagnostic trial","","f","4","10","false","true","LEFT","f","1","","LEFT","true","","",""
"","html-keyboard-response","154","1225614","0.0-253.0","zoum5kls","1920","1080","","","","","","","","","","","null","+","Fixation - short","","null","","","","","","","","","","","","",""
"","html-keyboard-response","155","1226424","0.0-254.0","zoum5kls","1920","1080","","","","","","","","","","","810","jup","Inducer trial","","f","4","","true","","","f","1","LEFT","","","","",""
"","html-keyboard-response","156","1227925","0.0-257.0","zoum5kls","1920","1080","","","","","","","","","","","null","+","Fixation - long","","null","","","","","","","","","","","","",""
"","html-keyboard-response","157","1247926","0.0-258.0","zoum5kls","1920","1080","","","","","","","","","","","null","If bsh press LEFT | If cer press RIGHT","Inducer instructions","","null","5","","","","","","","","","","","",""
"","html-keyboard-response","158","1248685","0.0-259.0","zoum5kls","1920","1080","","","","","","","","","","","null","+","Fixation - short","","null","","","","","","","","","","","","",""
"","html-keyboard-response","159","1250286","0.0-260.0","zoum5kls","1920","1080","","","","","","","","","","","1601","cer","Diagnostic trial","","f","5","0","false","true","LEFT","f","1","","RIGHT","false","","",""
"","html-keyboard-response","160","1251037","0.0-263.0","zoum5kls","1920","1080","","","","","","","","","","","null","+","Fixation - short","","null","","","","","","","","","","","","",""
"","html-keyboard-response","161","1251406","0.0-264.0","zoum5kls","1920","1080","","","","","","","","","","","367","cer","Diagnostic trial","","f","5","1","false","true","LEFT","f","1","","RIGHT","false","","",""
"","html-keyboard-response","162","1252172","0.0-267.0","zoum5kls","1920","1080","","","","","","","","","","","null","+","Fixation - short","","null","","","","","","","","","","","","",""
"","html-keyboard-response","163","1252535","0.0-268.0","zoum5kls","1920","1080","","","","","","","","","","","362","cer","Diagnostic trial","","f","5","2","false","true","LEFT","f","1","","RIGHT","false","","",""
"","html-keyboard-response","164","1253295","0.0-271.0","zoum5kls","1920","1080","","","","","","","","","","","null","+","Fixation - short","","null","","","","","","","","","","","","",""
"","html-keyboard-response","165","1253748","0.0-272.0","zoum5kls","1920","1080","","","","","","","","","","","453","bsh","Diagnostic trial","","j","5","3","false","false","RIGHT","j","1","","LEFT","false","","",""
"","html-keyboard-response","166","1254514","0.0-275.0","zoum5kls","1920","1080","","","","","","","","","","","null","+","Fixation - short","","null","","","","","","","","","","","","",""
"","html-keyboard-response","167","1254975","0.0-276.0","zoum5kls","1920","1080","","","","","","","","","","","461","bsh","Diagnostic trial","","j","5","4","false","true","LEFT","f","0","","LEFT","true","","",""
"","call-function","168","1254975","0.0-278.0-0.0","zoum5kls","","","","","","","","","","","","","","","","","","","","","","","","","","","","","",""
"","html-keyboard-response","169","1255287","0.0-278.0-1.0","zoum5kls","1920","1080","","","","","","","","","","","null","Wrong","Feedback","","null","","","","","","","","","","","","",""
"","call-function","170","1255287","0.0-278.0-2.0","zoum5kls","","","","","","","","","","","","","","","","","","","","","","","","","","","","","",""
"","html-keyboard-response","171","1256048","0.0-279.0","zoum5kls","1920","1080","","","","","","","","","","","null","+","Fixation - short","","null","","","","","","","","","","","","",""
"","html-keyboard-response","172","1256550","0.0-280.0","zoum5kls","1920","1080","","","","","","","","","","","501","bsh","Diagnostic trial","","f","5","5","false","true","LEFT","f","1","","LEFT","true","","",""
"","html-keyboard-response","173","1257312","0.0-283.0","zoum5kls","1920","1080","","","","","","","","","","","null","+","Fixation - short","","null","","","","","","","","","","","","",""
"","html-keyboard-response","174","1257823","0.0-284.0","zoum5kls","1920","1080","","","","","","","","","","","510","cer","Diagnostic trial","","j","5","6","false","false","RIGHT","j","1","","RIGHT","true","","",""
"","html-keyboard-response","175","1258577","0.0-287.0","zoum5kls","1920","1080","","","","","","","","","","","null","+","Fixation - short","","null","","","","","","","","","","","","",""
"","html-keyboard-response","176","1259119","0.0-288.0","zoum5kls","1920","1080","","","","","","","","","","","542","cer","Diagnostic trial","","f","5","7","false","true","LEFT","f","1","","RIGHT","false","","",""
"","html-keyboard-response","177","1259880","0.0-291.0","zoum5kls","1920","1080","","","","","","","","","","","null","+","Fixation - short","","null","","","","","","","","","","","","",""
"","html-keyboard-response","178","1260629","0.0-292.0","zoum5kls","1920","1080","","","","","","","","","","","749","cer","Diagnostic trial","","f","5","8","false","true","LEFT","f","1","","RIGHT","false","","",""
"","html-keyboard-response","179","1261392","0.0-295.0","zoum5kls","1920","1080","","","","","","","","","","","null","+","Fixation - short","","null","","","","","","","","","","","","",""
"","html-keyboard-response","180","1262276","0.0-296.0","zoum5kls","1920","1080","","","","","","","","","","","883","bsh","Diagnostic trial","","f","5","9","false","true","LEFT","f","1","","LEFT","true","","",""
"","html-keyboard-response","181","1263027","0.0-299.0","zoum5kls","1920","1080","","","","","","","","","","","null","+","Fixation - short","","null","","","","","","","","","","","","",""
"","html-keyboard-response","182","1263678","0.0-300.0","zoum5kls","1920","1080","","","","","","","","","","","651","cer","Diagnostic trial","","j","5","10","false","false","RIGHT","j","1","","RIGHT","true","","",""
"","html-keyboard-response","183","1264435","0.0-303.0","zoum5kls","1920","1080","","","","","","","","","","","null","+","Fixation - short","","null","","","","","","","","","","","","",""
"","html-keyboard-response","184","1265057","0.0-304.0","zoum5kls","1920","1080","","","","","","","","","","","621","bsh","Diagnostic trial","","j","5","11","false","false","RIGHT","j","1","","LEFT","false","","",""
"","html-keyboard-response","185","1265812","0.0-307.0","zoum5kls","1920","1080","","","","","","","","","","","null","+","Fixation - short","","null","","","","","","","","","","","","",""
"","html-keyboard-response","186","1266332","0.0-308.0","zoum5kls","1920","1080","","","","","","","","","","","520","bsh","Diagnostic trial","","f","5","12","false","true","LEFT","f","1","","LEFT","true","","",""
"","html-keyboard-response","187","1267089","0.0-311.0","zoum5kls","1920","1080","","","","","","","","","","","null","+","Fixation - short","","null","","","","","","","","","","","","",""
"","html-keyboard-response","188","1267611","0.0-312.0","zoum5kls","1920","1080","","","","","","","","","","","522","cer","Diagnostic trial","","f","5","13","false","true","LEFT","f","1","","RIGHT","false","","",""
"","html-keyboard-response","189","1268369","0.0-315.0","zoum5kls","1920","1080","","","","","","","","","","","null","+","Fixation - short","","null","","","","","","","","","","","","",""
"","html-keyboard-response","190","1269221","0.0-316.0","zoum5kls","1920","1080","","","","","","","","","","","851","cer","Inducer trial","","f","5","","true","","","j","0","RIGHT","","","","",""
"","call-function","191","1269222","0.0-318.0-0.0","zoum5kls","","","","","","","","","","","","","","","","","","","","","","","","","","","","","",""
"","html-keyboard-response","192","1269526","0.0-318.0-1.0","zoum5kls","1920","1080","","","","","","","","","","","null","Wrong","Feedback","","null","","","","","","","","","","","","",""
"","call-function","193","1269526","0.0-318.0-2.0","zoum5kls","","","","","","","","","","","","","","","","","","","","","","","","","","","","","",""
"","html-keyboard-response","194","1271042","0.0-319.0","zoum5kls","1920","1080","","","","","","","","","","","null","+","Fixation - long","","null","","","","","","","","","","","","",""
"","html-keyboard-response","195","1275044","0.0-320.0","zoum5kls","1920","1080","","","","","","","","","","","4001","If byy press LEFT | If ume press RIGHT","Inducer instructions",""," ","6","","","","","","","","","","","",""
"","html-keyboard-response","196","1275804","0.0-321.0","zoum5kls","1920","1080","","","","","","","","","","","null","+","Fixation - short","","null","","","","","","","","","","","","",""
"","html-keyboard-response","197","1276646","0.0-322.0","zoum5kls","1920","1080","","","","","","","","","","","841","ume","Diagnostic trial","","j","6","0","false","false","RIGHT","j","1","","RIGHT","true","","",""
"","html-keyboard-response","198","1277409","0.0-325.0","zoum5kls","1920","1080","","","","","","","","","","","null","+","Fixation - short","","null","","","","","","","","","","","","",""
"","html-keyboard-response","199","1278026","0.0-326.0","zoum5kls","1920","1080","","","","","","","","","","","616","ume","Diagnostic trial","","j","6","1","false","false","RIGHT","j","1","","RIGHT","true","","",""
"","html-keyboard-response","200","1278790","0.0-329.0","zoum5kls","1920","1080","","","","","","","","","","","null","+","Fixation - short","","null","","","","","","","","","","","","",""
"","html-keyboard-response","201","1279515","0.0-330.0","zoum5kls","1920","1080","","","","","","","","","","","724","byy","Diagnostic trial","","j","6","2","false","false","RIGHT","j","1","","LEFT","false","","",""
"","html-keyboard-response","202","1280266","0.0-333.0","zoum5kls","1920","1080","","","","","","","","","","","null","+","Fixation - short","","null","","","","","","","","","","","","",""
"","html-keyboard-response","203","1280748","0.0-334.0","zoum5kls","1920","1080","","","","","","","","","","","482","byy","Diagnostic trial","","f","6","3","false","true","LEFT","f","1","","LEFT","true","","",""
"","html-keyboard-response","204","1281510","0.0-337.0","zoum5kls","1920","1080","","","","","","","","","","","null","+","Fixation - short","","null","","","","","","","","","","","","",""
"","html-keyboard-response","205","1282095","0.0-338.0","zoum5kls","1920","1080","","","","","","","","","","","585","ume","Diagnostic trial","","f","6","4","false","true","LEFT","f","1","","RIGHT","false","","",""
"","html-keyboard-response","206","1282854","0.0-341.0","zoum5kls","1920","1080","","","","","","","","","","","null","+","Fixation - short","","null","","","","","","","","","","","","",""
"","html-keyboard-response","207","1283575","0.0-342.0","zoum5kls","1920","1080","","","","","","","","","","","720","byy","Inducer trial","","f","6","","true","","","f","1","LEFT","","","","",""
"","html-keyboard-response","208","1285088","0.0-345.0","zoum5kls","1920","1080","","","","","","","","","","","null","+","Fixation - long","","null","","","","","","","","","","","","",""
"","html-keyboard-response","209","1285663","0.0-346.0","zoum5kls","1920","1080","","","","","","","","","","","574","If dul press LEFT | If upf press RIGHT","Inducer instructions",""," ","7","","","","","","","","","","","",""
"","html-keyboard-response","210","1286421","0.0-347.0","zoum5kls","1920","1080","","","","","","","","","","","null","+","Fixation - short","","null","","","","","","","","","","","","",""
"","html-keyboard-response","211","1287006","0.0-348.0","zoum5kls","1920","1080","","","","","","","","","","","584","dul","Diagnostic trial","","f","7","0","false","true","LEFT","f","1","","LEFT","true","","",""
"","html-keyboard-response","212","1287761","0.0-351.0","zoum5kls","1920","1080","","","","","","","","","","","null","+","Fixation - short","","null","","","","","","","","","","","","",""
"","html-keyboard-response","213","1288230","0.0-352.0","zoum5kls","1920","1080","","","","","","","","","","","469","upf","Diagnostic trial","","j","7","1","false","false","RIGHT","j","1","","RIGHT","true","","",""
"","html-keyboard-response","214","1288990","0.0-355.0","zoum5kls","1920","1080","","","","","","","","","","","null","+","Fixation - short","","null","","","","","","","","","","","","",""
"","html-keyboard-response","215","1289413","0.0-356.0","zoum5kls","1920","1080","","","","","","","","","","","423","dul","Diagnostic trial","","f","7","2","false","true","LEFT","f","1","","LEFT","true","","",""
"","html-keyboard-response","216","1290164","0.0-359.0","zoum5kls","1920","1080","","","","","","","","","","","null","+","Fixation - short","","null","","","","","","","","","","","","",""
"","html-keyboard-response","217","1290624","0.0-360.0","zoum5kls","1920","1080","","","","","","","","","","","460","dul","Diagnostic trial","","f","7","3","false","true","LEFT","f","1","","LEFT","true","","",""
"","html-keyboard-response","218","1291386","0.0-363.0","zoum5kls","1920","1080","","","","","","","","","","","null","+","Fixation - short","","null","","","","","","","","","","","","",""
"","html-keyboard-response","219","1291994","0.0-364.0","zoum5kls","1920","1080","","","","","","","","","","","608","upf","Diagnostic trial","","j","7","4","false","true","LEFT","f","0","","RIGHT","false","","",""
"","call-function","220","1291995","0.0-366.0-0.0","zoum5kls","","","","","","","","","","","","","","","","","","","","","","","","","","","","","",""
"","html-keyboard-response","221","1292304","0.0-366.0-1.0","zoum5kls","1920","1080","","","","","","","","","","","null","Wrong","Feedback","","null","","","","","","","","","","","","",""
"","call-function","222","1292305","0.0-366.0-2.0","zoum5kls","","","","","","","","","","","","","","","","","","","","","","","","","","","","","",""
"","html-keyboard-response","223","1293065","0.0-367.0","zoum5kls","1920","1080","","","","","","","","","","","null","+","Fixation - short","","null","","","","","","","","","","","","",""
"","html-keyboard-response","224","1293547","0.0-368.0","zoum5kls","1920","1080","","","","","","","","","","","482","dul","Diagnostic trial","","f","7","5","false","false","RIGHT","j","0","","LEFT","false","","",""
"","call-function","225","1293547","0.0-370.0-0.0","zoum5kls","","","","","","","","","","","","","","","","","","","","","","","","","","","","","",""
"","html-keyboard-response","226","1293859","0.0-370.0-1.0","zoum5kls","1920","1080","","","","","","","","","","","null","Wrong","Feedback","","null","","","","","","","","","","","","",""
"","call-function","227","1293859","0.0-370.0-2.0","zoum5kls","","","","","","","","","","","","","","","","","","","","","","","","","","","","","",""
"","html-keyboard-response","228","1294621","0.0-371.0","zoum5kls","1920","1080","","","","","","","","","","","null","+","Fixation - short","","null","","","","","","","","","","","","",""
"","html-keyboard-response","229","1295357","0.0-372.0","zoum5kls","1920","1080","","","","","","","","","","","735","dul","Diagnostic trial","","j","7","6","false","false","RIGHT","j","1","","LEFT","false","","",""
"","html-keyboard-response","230","1296116","0.0-375.0","zoum5kls","1920","1080","","","","","","","","","","","null","+","Fixation - short","","null","","","","","","","","","","","","",""
"","html-keyboard-response","231","1296919","0.0-376.0","zoum5kls","1920","1080","","","","","","","","","","","803","upf","Diagnostic trial","","f","7","7","false","true","LEFT","f","1","","RIGHT","false","","",""
"","html-keyboard-response","232","1297685","0.0-379.0","zoum5kls","1920","1080","","","","","","","","","","","null","+","Fixation - short","","null","","","","","","","","","","","","",""
"","html-keyboard-response","233","1298243","0.0-380.0","zoum5kls","1920","1080","","","","","","","","","","","558","dul","Diagnostic trial","","f","7","8","false","true","LEFT","f","1","","LEFT","true","","",""
"","html-keyboard-response","234","1299003","0.0-383.0","zoum5kls","1920","1080","","","","","","","","","","","null","+","Fixation - short","","null","","","","","","","","","","","","",""
"","html-keyboard-response","235","1299385","0.0-384.0","zoum5kls","1920","1080","","","","","","","","","","","381","dul","Diagnostic trial","","f","7","9","false","true","LEFT","f","1","","LEFT","true","","",""
"","html-keyboard-response","236","1300140","0.0-387.0","zoum5kls","1920","1080","","","","","","","","","","","null","+","Fixation - short","","null","","","","","","","","","","","","",""
"","html-keyboard-response","237","1300721","0.0-388.0","zoum5kls","1920","1080","","","","","","","","","","","581","dul","Inducer trial","","f","7","","true","","","f","1","LEFT","","","","",""
"","html-keyboard-response","238","1302225","0.0-391.0","zoum5kls","1920","1080","","","","","","","","","","","null","+","Fixation - long","","null","","","","","","","","","","","","",""
"","html-keyboard-response","239","1302755","0.0-392.0","zoum5kls","1920","1080","","","","","","","","","","","529","If lpn press LEFT | If mda press RIGHT","Inducer instructions",""," ","8","","","","","","","","","","","",""
"","html-keyboard-response","240","1303509","0.0-393.0","zoum5kls","1920","1080","","","","","","","","","","","null","+","Fixation - short","","null","","","","","","","","","","","","",""
"","html-keyboard-response","241","1304382","0.0-394.0","zoum5kls","1920","1080","","","","","","","","","","","872","lpn","Diagnostic trial","","f","8","0","false","true","LEFT","f","1","","LEFT","true","","",""
"","html-keyboard-response","242","1305147","0.0-397.0","zoum5kls","1920","1080","","","","","","","","","","","null","+","Fixation - short","","null","","","","","","","","","","","","",""
"","html-keyboard-response","243","1305743","0.0-398.0","zoum5kls","1920","1080","","","","","","","","","","","596","mda","Diagnostic trial","","f","8","1","false","true","LEFT","f","1","","RIGHT","false","","",""
"","html-keyboard-response","244","1306509","0.0-401.0","zoum5kls","1920","1080","","","","","","","","","","","null","+","Fixation - short","","null","","","","","","","","","","","","",""
"","html-keyboard-response","245","1307017","0.0-402.0","zoum5kls","1920","1080","","","","","","","","","","","508","mda","Diagnostic trial","","j","8","2","false","false","RIGHT","j","1","","RIGHT","true","","",""
"","html-keyboard-response","246","1307778","0.0-405.0","zoum5kls","1920","1080","","","","","","","","","","","null","+","Fixation - short","","null","","","","","","","","","","","","",""
"","html-keyboard-response","247","1308496","0.0-406.0","zoum5kls","1920","1080","","","","","","","","","","","717","lpn","Diagnostic trial","","j","8","3","false","false","RIGHT","j","1","","LEFT","false","","",""
"","html-keyboard-response","248","1309253","0.0-409.0","zoum5kls","1920","1080","","","","","","","","","","","null","+","Fixation - short","","null","","","","","","","","","","","","",""
"","html-keyboard-response","249","1309792","0.0-410.0","zoum5kls","1920","1080","","","","","","","","","","","539","lpn","Diagnostic trial","","f","8","4","false","true","LEFT","f","1","","LEFT","true","","",""
"","html-keyboard-response","250","1310551","0.0-413.0","zoum5kls","1920","1080","","","","","","","","","","","null","+","Fixation - short","","null","","","","","","","","","","","","",""
"","html-keyboard-response","251","1311075","0.0-414.0","zoum5kls","1920","1080","","","","","","","","","","","524","lpn","Diagnostic trial","","f","8","5","false","true","LEFT","f","1","","LEFT","true","","",""
"","html-keyboard-response","252","1311833","0.0-417.0","zoum5kls","1920","1080","","","","","","","","","","","null","+","Fixation - short","","null","","","","","","","","","","","","",""
"","html-keyboard-response","253","1312364","0.0-418.0","zoum5kls","1920","1080","","","","","","","","","","","531","mda","Diagnostic trial","","j","8","6","false","false","RIGHT","j","1","","RIGHT","true","","",""
"","html-keyboard-response","254","1313120","0.0-421.0","zoum5kls","1920","1080","","","","","","","","","","","null","+","Fixation - short","","null","","","","","","","","","","","","",""
"","html-keyboard-response","255","1313750","0.0-422.0","zoum5kls","1920","1080","","","","","","","","","","","630","lpn","Diagnostic trial","","j","8","7","false","false","RIGHT","j","1","","LEFT","false","","",""
"","html-keyboard-response","256","1314511","0.0-425.0","zoum5kls","1920","1080","","","","","","","","","","","null","+","Fixation - short","","null","","","","","","","","","","","","",""
"","html-keyboard-response","257","1314979","0.0-426.0","zoum5kls","1920","1080","","","","","","","","","","","467","mda","Diagnostic trial","","j","8","8","false","false","RIGHT","j","1","","RIGHT","true","","",""
"","html-keyboard-response","258","1315744","0.0-429.0","zoum5kls","1920","1080","","","","","","","","","","","null","+","Fixation - short","","null","","","","","","","","","","","","",""
"","html-keyboard-response","259","1316534","0.0-430.0","zoum5kls","1920","1080","","","","","","","","","","","790","lpn","Inducer trial","","f","8","","true","","","f","1","LEFT","","","","",""
"","html-keyboard-response","260","1318035","0.0-433.0","zoum5kls","1920","1080","","","","","","","","","","","null","+","Fixation - long","","null","","","","","","","","","","","","",""
"","html-keyboard-response","261","1319127","0.0-434.0","zoum5kls","1920","1080","","","","","","","","","","","1092","If bwe press LEFT | If vnn press RIGHT","Inducer instructions",""," ","9","","","","","","","","","","","",""
"","html-keyboard-response","262","1319881","0.0-435.0","zoum5kls","1920","1080","","","","","","","","","","","null","+","Fixation - short","","null","","","","","","","","","","","","",""
"","html-keyboard-response","263","1320523","0.0-436.0","zoum5kls","1920","1080","","","","","","","","","","","642","vnn","Diagnostic trial","","j","9","0","false","false","RIGHT","j","1","","RIGHT","true","","",""
"","html-keyboard-response","264","1321274","0.0-439.0","zoum5kls","1920","1080","","","","","","","","","","","null","+","Fixation - short","","null","","","","","","","","","","","","",""
"","html-keyboard-response","265","1321773","0.0-440.0","zoum5kls","1920","1080","","","","","","","","","","","499","bwe","Diagnostic trial","","j","9","1","false","false","RIGHT","j","1","","LEFT","false","","",""
"","html-keyboard-response","266","1322527","0.0-443.0","zoum5kls","1920","1080","","","","","","","","","","","null","+","Fixation - short","","null","","","","","","","","","","","","",""
"","html-keyboard-response","267","1323140","0.0-444.0","zoum5kls","1920","1080","","","","","","","","","","","613","vnn","Diagnostic trial","","f","9","2","false","true","LEFT","f","1","","RIGHT","false","","",""
"","html-keyboard-response","268","1323895","0.0-447.0","zoum5kls","1920","1080","","","","","","","","","","","null","+","Fixation - short","","null","","","","","","","","","","","","",""
"","html-keyboard-response","269","1324631","0.0-448.0","zoum5kls","1920","1080","","","","","","","","","","","736","bwe","Diagnostic trial","","f","9","3","false","true","LEFT","f","1","","LEFT","true","","",""
"","html-keyboard-response","270","1325386","0.0-451.0","zoum5kls","1920","1080","","","","","","","","","","","null","+","Fixation - short","","null","","","","","","","","","","","","",""
"","html-keyboard-response","271","1325791","0.0-452.0","zoum5kls","1920","1080","","","","","","","","","","","405","bwe","Diagnostic trial","","f","9","4","false","true","LEFT","f","1","","LEFT","true","","",""
"","html-keyboard-response","272","1326557","0.0-455.0","zoum5kls","1920","1080","","","","","","","","","","","null","+","Fixation - short","","null","","","","","","","","","","","","",""
"","html-keyboard-response","273","1327059","0.0-456.0","zoum5kls","1920","1080","","","","","","","","","","","502","vnn","Diagnostic trial","","f","9","5","false","true","LEFT","f","1","","RIGHT","false","","",""
"","html-keyboard-response","274","1327813","0.0-459.0","zoum5kls","1920","1080","","","","","","","","","","","null","+","Fixation - short","","null","","","","","","","","","","","","",""
"","html-keyboard-response","275","1328240","0.0-460.0","zoum5kls","1920","1080","","","","","","","","","","","427","bwe","Diagnostic trial","","f","9","6","false","true","LEFT","f","1","","LEFT","true","","",""
"","html-keyboard-response","276","1329003","0.0-463.0","zoum5kls","1920","1080","","","","","","","","","","","null","+","Fixation - short","","null","","","","","","","","","","","","",""
"","html-keyboard-response","277","1329428","0.0-464.0","zoum5kls","1920","1080","","","","","","","","","","","424","bwe","Diagnostic trial","","f","9","7","false","true","LEFT","f","1","","LEFT","true","","",""
"","html-keyboard-response","278","1330192","0.0-467.0","zoum5kls","1920","1080","","","","","","","","","","","null","+","Fixation - short","","null","","","","","","","","","","","","",""
"","html-keyboard-response","279","1330750","0.0-468.0","zoum5kls","1920","1080","","","","","","","","","","","558","vnn","Diagnostic trial","","f","9","8","false","true","LEFT","f","1","","RIGHT","false","","",""
"","html-keyboard-response","280","1331510","0.0-471.0","zoum5kls","1920","1080","","","","","","","","","","","null","+","Fixation - short","","null","","","","","","","","","","","","",""
"","html-keyboard-response","281","1331971","0.0-472.0","zoum5kls","1920","1080","","","","","","","","","","","461","vnn","Inducer trial","","j","9","","true","","","j","1","RIGHT","","","","",""
"","html-keyboard-response","282","1333485","0.0-475.0","zoum5kls","1920","1080","","","","","","","","","","","null","+","Fixation - long","","null","","","","","","","","","","","","",""
"","html-keyboard-response","283","1334565","0.0-476.0","zoum5kls","1920","1080","","","","","","","","","","","1079","If prg press LEFT | If mts press RIGHT","Inducer instructions",""," ","10","","","","","","","","","","","",""
"","html-keyboard-response","284","1335329","0.0-477.0","zoum5kls","1920","1080","","","","","","","","","","","null","+","Fixation - short","","null","","","","","","","","","","","","",""
"","html-keyboard-response","285","1335913","0.0-478.0","zoum5kls","1920","1080","","","","","","","","","","","583","mts","Diagnostic trial","","j","10","0","false","false","RIGHT","j","1","","RIGHT","true","","",""
"","html-keyboard-response","286","1336670","0.0-481.0","zoum5kls","1920","1080","","","","","","","","","","","null","+","Fixation - short","","null","","","","","","","","","","","","",""
"","html-keyboard-response","287","1337190","0.0-482.0","zoum5kls","1920","1080","","","","","","","","","","","520","prg","Diagnostic trial","","j","10","1","false","false","RIGHT","j","1","","LEFT","false","","",""
"","html-keyboard-response","288","1337957","0.0-485.0","zoum5kls","1920","1080","","","","","","","","","","","null","+","Fixation - short","","null","","","","","","","","","","","","",""
"","html-keyboard-response","289","1338372","0.0-486.0","zoum5kls","1920","1080","","","","","","","","","","","415","mts","Diagnostic trial","","j","10","2","false","false","RIGHT","j","1","","RIGHT","true","","",""
"","html-keyboard-response","290","1339132","0.0-489.0","zoum5kls","1920","1080","","","","","","","","","","","null","+","Fixation - short","","null","","","","","","","","","","","","",""
"","html-keyboard-response","291","1339630","0.0-490.0","zoum5kls","1920","1080","","","","","","","","","","","498","prg","Diagnostic trial","","f","10","3","false","true","LEFT","f","1","","LEFT","true","","",""
"","html-keyboard-response","292","1340386","0.0-493.0","zoum5kls","1920","1080","","","","","","","","","","","null","+","Fixation - short","","null","","","","","","","","","","","","",""
"","html-keyboard-response","293","1340930","0.0-494.0","zoum5kls","1920","1080","","","","","","","","","","","543","prg","Diagnostic trial","","f","10","4","false","true","LEFT","f","1","","LEFT","true","","",""
"","html-keyboard-response","294","1341690","0.0-497.0","zoum5kls","1920","1080","","","","","","","","","","","null","+","Fixation - short","","null","","","","","","","","","","","","",""
"","html-keyboard-response","295","1342179","0.0-498.0","zoum5kls","1920","1080","","","","","","","","","","","489","mts","Diagnostic trial","","j","10","5","false","false","RIGHT","j","1","","RIGHT","true","","",""
"","html-keyboard-response","296","1342941","0.0-501.0","zoum5kls","1920","1080","","","","","","","","","","","null","+","Fixation - short","","null","","","","","","","","","","","","",""
"","html-keyboard-response","297","1343485","0.0-502.0","zoum5kls","1920","1080","","","","","","","","","","","543","mts","Diagnostic trial","","f","10","6","false","true","LEFT","f","1","","RIGHT","false","","",""
"","html-keyboard-response","298","1344248","0.0-505.0","zoum5kls","1920","1080","","","","","","","","","","","null","+","Fixation - short","","null","","","","","","","","","","","","",""
"","html-keyboard-response","299","1344787","0.0-506.0","zoum5kls","1920","1080","","","","","","","","","","","538","prg","Diagnostic trial","","j","10","7","false","false","RIGHT","j","1","","LEFT","false","","",""
"","html-keyboard-response","300","1345547","0.0-509.0","zoum5kls","1920","1080","","","","","","","","","","","null","+","Fixation - short","","null","","","","","","","","","","","","",""
"","html-keyboard-response","301","1346108","0.0-510.0","zoum5kls","1920","1080","","","","","","","","","","","560","prg","Diagnostic trial","","f","10","8","false","true","LEFT","f","1","","LEFT","true","","",""
"","html-keyboard-response","302","1346860","0.0-513.0","zoum5kls","1920","1080","","","","","","","","","","","null","+","Fixation - short","","null","","","","","","","","","","","","",""
"","html-keyboard-response","303","1347516","0.0-514.0","zoum5kls","1920","1080","","","","","","","","","","","656","prg","Inducer trial","","f","10","","true","","","f","1","LEFT","","","","",""
"","html-keyboard-response","304","1349018","0.0-517.0","zoum5kls","1920","1080","","","","","","","","","","","null","+","Fixation - long","","null","","","","","","","","","","","","",""
"","html-keyboard-response","305","1349517","0.0-518.0","zoum5kls","1920","1080","","","","","","","","","","","498","If yrp press LEFT | If faq press RIGHT","Inducer instructions",""," ","11","","","","","","","","","","","",""
"","html-keyboard-response","306","1350278","0.0-519.0","zoum5kls","1920","1080","","","","","","","","","","","null","+","Fixation - short","","null","","","","","","","","","","","","",""
"","html-keyboard-response","307","1350946","0.0-520.0","zoum5kls","1920","1080","","","","","","","","","","","667","faq","Diagnostic trial","","f","11","0","false","true","LEFT","f","1","","RIGHT","false","","",""
"","html-keyboard-response","308","1351698","0.0-523.0","zoum5kls","1920","1080","","","","","","","","","","","null","+","Fixation - short","","null","","","","","","","","","","","","",""
"","html-keyboard-response","309","1352244","0.0-524.0","zoum5kls","1920","1080","","","","","","","","","","","546","faq","Diagnostic trial","","f","11","1","false","true","LEFT","f","1","","RIGHT","false","","",""
"","html-keyboard-response","310","1353004","0.0-527.0","zoum5kls","1920","1080","","","","","","","","","","","null","+","Fixation - short","","null","","","","","","","","","","","","",""
"","html-keyboard-response","311","1353496","0.0-528.0","zoum5kls","1920","1080","","","","","","","","","","","492","yrp","Diagnostic trial","","j","11","2","false","false","RIGHT","j","1","","LEFT","false","","",""
"","html-keyboard-response","312","1354250","0.0-531.0","zoum5kls","1920","1080","","","","","","","","","","","null","+","Fixation - short","","null","","","","","","","","","","","","",""
"","html-keyboard-response","313","1354758","0.0-532.0","zoum5kls","1920","1080","","","","","","","","","","","508","faq","Diagnostic trial","","f","11","3","false","true","LEFT","f","1","","RIGHT","false","","",""
"","html-keyboard-response","314","1355522","0.0-535.0","zoum5kls","1920","1080","","","","","","","","","","","null","+","Fixation - short","","null","","","","","","","","","","","","",""
"","html-keyboard-response","315","1355991","0.0-536.0","zoum5kls","1920","1080","","","","","","","","","","","469","faq","Diagnostic trial","","f","11","4","false","true","LEFT","f","1","","RIGHT","false","","",""
"","html-keyboard-response","316","1356744","0.0-539.0","zoum5kls","1920","1080","","","","","","","","","","","null","+","Fixation - short","","null","","","","","","","","","","","","",""
"","html-keyboard-response","317","1357834","0.0-540.0","zoum5kls","1920","1080","","","","","","","","","","","1090","faq","Diagnostic trial","","j","11","5","false","false","RIGHT","j","1","","RIGHT","true","","",""
"","html-keyboard-response","318","1358591","0.0-543.0","zoum5kls","1920","1080","","","","","","","","","","","null","+","Fixation - short","","null","","","","","","","","","","","","",""
"","html-keyboard-response","319","1359015","0.0-544.0","zoum5kls","1920","1080","","","","","","","","","","","424","faq","Diagnostic trial","","j","11","6","false","false","RIGHT","j","1","","RIGHT","true","","",""
"","html-keyboard-response","320","1359775","0.0-547.0","zoum5kls","1920","1080","","","","","","","","","","","null","+","Fixation - short","","null","","","","","","","","","","","","",""
"","html-keyboard-response","321","1360244","0.0-548.0","zoum5kls","1920","1080","","","","","","","","","","","469","yrp","Diagnostic trial","","f","11","7","false","true","LEFT","f","1","","LEFT","true","","",""
"","html-keyboard-response","322","1361000","0.0-551.0","zoum5kls","1920","1080","","","","","","","","","","","null","+","Fixation - short","","null","","","","","","","","","","","","",""
"","html-keyboard-response","323","1361587","0.0-552.0","zoum5kls","1920","1080","","","","","","","","","","","586","faq","Diagnostic trial","","j","11","8","false","false","RIGHT","j","1","","RIGHT","true","","",""
"","html-keyboard-response","324","1362347","0.0-555.0","zoum5kls","1920","1080","","","","","","","","","","","null","+","Fixation - short","","null","","","","","","","","","","","","",""
"","html-keyboard-response","325","1362874","0.0-556.0","zoum5kls","1920","1080","","","","","","","","","","","526","yrp","Diagnostic trial","","j","11","9","false","false","RIGHT","j","1","","LEFT","false","","",""
"","html-keyboard-response","326","1363634","0.0-559.0","zoum5kls","1920","1080","","","","","","","","","","","null","+","Fixation - short","","null","","","","","","","","","","","","",""
"","html-keyboard-response","327","1364248","0.0-560.0","zoum5kls","1920","1080","","","","","","","","","","","614","yrp","Diagnostic trial","","f","11","10","false","true","LEFT","f","1","","LEFT","true","","",""
"","html-keyboard-response","328","1365004","0.0-563.0","zoum5kls","1920","1080","","","","","","","","","","","null","+","Fixation - short","","null","","","","","","","","","","","","",""
"","html-keyboard-response","329","1365439","0.0-564.0","zoum5kls","1920","1080","","","","","","","","","","","434","faq","Diagnostic trial","","f","11","11","false","true","LEFT","f","1","","RIGHT","false","","",""
"","html-keyboard-response","330","1366190","0.0-567.0","zoum5kls","1920","1080","","","","","","","","","","","null","+","Fixation - short","","null","","","","","","","","","","","","",""
"","html-keyboard-response","331","1366524","0.0-568.0","zoum5kls","1920","1080","","","","","","","","","","","333","faq","Diagnostic trial","","f","11","12","false","false","RIGHT","j","0","","RIGHT","true","","",""
"","call-function","332","1366524","0.0-570.0-0.0","zoum5kls","","","","","","","","","","","","","","","","","","","","","","","","","","","","","",""
"","html-keyboard-response","333","1366827","0.0-570.0-1.0","zoum5kls","1920","1080","","","","","","","","","","","null","Wrong","Feedback","","null","","","","","","","","","","","","",""
"","call-function","334","1366827","0.0-570.0-2.0","zoum5kls","","","","","","","","","","","","","","","","","","","","","","","","","","","","","",""
"","html-keyboard-response","335","1367583","0.0-571.0","zoum5kls","1920","1080","","","","","","","","","","","null","+","Fixation - short","","null","","","","","","","","","","","","",""
"","html-keyboard-response","336","1368444","0.0-572.0","zoum5kls","1920","1080","","","","","","","","","","","861","yrp","Diagnostic trial","","j","11","13","false","false","RIGHT","j","1","","LEFT","false","","",""
"","html-keyboard-response","337","1369204","0.0-575.0","zoum5kls","1920","1080","","","","","","","","","","","null","+","Fixation - short","","null","","","","","","","","","","","","",""
"","html-keyboard-response","338","1369843","0.0-576.0","zoum5kls","1920","1080","","","","","","","","","","","639","faq","Diagnostic trial","","j","11","14","false","false","RIGHT","j","1","","RIGHT","true","","",""
"","html-keyboard-response","339","1370600","0.0-579.0","zoum5kls","1920","1080","","","","","","","","","","","null","+","Fixation - short","","null","","","","","","","","","","","","",""
"","html-keyboard-response","340","1372079","0.0-580.0","zoum5kls","1920","1080","","","","","","","","","","","1479","faq","Inducer trial","","j","11","","true","","","j","1","RIGHT","","","","",""
"","html-keyboard-response","341","1373584","0.0-583.0","zoum5kls","1920","1080","","","","","","","","","","","null","+","Fixation - long","","null","","","","","","","","","","","","",""
"","html-keyboard-response","342","1373994","0.0-584.0","zoum5kls","1920","1080","","","","","","","","","","","410","If efg press LEFT | If sjn press RIGHT","Inducer instructions",""," ","12","","","","","","","","","","","",""
"","html-keyboard-response","343","1374758","0.0-585.0","zoum5kls","1920","1080","","","","","","","","","","","null","+","Fixation - short","","null","","","","","","","","","","","","",""
"","html-keyboard-response","344","1375774","0.0-586.0","zoum5kls","1920","1080","","","","","","","","","","","1015","efg","Diagnostic trial","","f","12","0","false","true","LEFT","f","1","","LEFT","true","","",""
"","html-keyboard-response","345","1376532","0.0-589.0","zoum5kls","1920","1080","","","","","","","","","","","null","+","Fixation - short","","null","","","","","","","","","","","","",""
"","html-keyboard-response","346","1377417","0.0-590.0","zoum5kls","1920","1080","","","","","","","","","","","885","sjn","Diagnostic trial","","f","12","1","false","true","LEFT","f","1","","RIGHT","false","","",""
"","html-keyboard-response","347","1378170","0.0-593.0","zoum5kls","1920","1080","","","","","","","","","","","null","+","Fixation - short","","null","","","","","","","","","","","","",""
"","html-keyboard-response","348","1378662","0.0-594.0","zoum5kls","1920","1080","","","","","","","","","","","492","efg","Diagnostic trial","","j","12","2","false","false","RIGHT","j","1","","LEFT","false","","",""
"","html-keyboard-response","349","1379427","0.0-597.0","zoum5kls","1920","1080","","","","","","","","","","","null","+","Fixation - short","","null","","","","","","","","","","","","",""
"","html-keyboard-response","350","1379867","0.0-598.0","zoum5kls","1920","1080","","","","","","","","","","","439","sjn","Diagnostic trial","","j","12","3","false","false","RIGHT","j","1","","RIGHT","true","","",""
"","html-keyboard-response","351","1380632","0.0-601.0","zoum5kls","1920","1080","","","","","","","","","","","null","+","Fixation - short","","null","","","","","","","","","","","","",""
"","html-keyboard-response","352","1381127","0.0-602.0","zoum5kls","1920","1080","","","","","","","","","","","494","sjn","Diagnostic trial","","f","12","4","false","true","LEFT","f","1","","RIGHT","false","","",""
"","html-keyboard-response","353","1381887","0.0-605.0","zoum5kls","1920","1080","","","","","","","","","","","null","+","Fixation - short","","null","","","","","","","","","","","","",""
"","html-keyboard-response","354","1382399","0.0-606.0","zoum5kls","1920","1080","","","","","","","","","","","512","sjn","Diagnostic trial","","j","12","5","false","false","RIGHT","j","1","","RIGHT","true","","",""
"","html-keyboard-response","355","1383160","0.0-609.0","zoum5kls","1920","1080","","","","","","","","","","","null","+","Fixation - short","","null","","","","","","","","","","","","",""
"","html-keyboard-response","356","1383504","0.0-610.0","zoum5kls","1920","1080","","","","","","","","","","","344","sjn","Diagnostic trial","","j","12","6","false","false","RIGHT","j","1","","RIGHT","true","","",""
"","html-keyboard-response","357","1384264","0.0-613.0","zoum5kls","1920","1080","","","","","","","","","","","null","+","Fixation - short","","null","","","","","","","","","","","","",""
"","html-keyboard-response","358","1384616","0.0-614.0","zoum5kls","1920","1080","","","","","","","","","","","352","sjn","Diagnostic trial","","j","12","7","false","false","RIGHT","j","1","","RIGHT","true","","",""
"","html-keyboard-response","359","1385376","0.0-617.0","zoum5kls","1920","1080","","","","","","","","","","","null","+","Fixation - short","","null","","","","","","","","","","","","",""
"","html-keyboard-response","360","1385708","0.0-618.0","zoum5kls","1920","1080","","","","","","","","","","","331","sjn","Diagnostic trial","","j","12","8","false","true","LEFT","f","0","","RIGHT","false","","",""
"","call-function","361","1385708","0.0-620.0-0.0","zoum5kls","","","","","","","","","","","","","","","","","","","","","","","","","","","","","",""
"","html-keyboard-response","362","1386013","0.0-620.0-1.0","zoum5kls","1920","1080","","","","","","","","","","","null","Wrong","Feedback","","null","","","","","","","","","","","","",""
"","call-function","363","1386013","0.0-620.0-2.0","zoum5kls","","","","","","","","","","","","","","","","","","","","","","","","","","","","","",""
"","html-keyboard-response","364","1386770","0.0-621.0","zoum5kls","1920","1080","","","","","","","","","","","null","+","Fixation - short","","null","","","","","","","","","","","","",""
"","html-keyboard-response","365","1388062","0.0-622.0","zoum5kls","1920","1080","","","","","","","","","","","1291","efg","Inducer trial","","f","12","","true","","","f","1","LEFT","","","","",""
"","html-keyboard-response","366","1389563","0.0-625.0","zoum5kls","1920","1080","","","","","","","","","","","null","+","Fixation - long","","null","","","","","","","","","","","","",""
"","html-keyboard-response","367","1389885","0.0-626.0","zoum5kls","1920","1080","","","","","","","","","","","322","If goj press LEFT | If jlm press RIGHT","Inducer instructions",""," ","13","","","","","","","","","","","",""
"","html-keyboard-response","368","1390646","0.0-627.0","zoum5kls","1920","1080","","","","","","","","","","","null","+","Fixation - short","","null","","","","","","","","","","","","",""
"","html-keyboard-response","369","1391377","0.0-628.0","zoum5kls","1920","1080","","","","","","","","","","","730","goj","Diagnostic trial","","f","13","0","false","true","LEFT","f","1","","LEFT","true","","",""
"","html-keyboard-response","370","1392141","0.0-631.0","zoum5kls","1920","1080","","","","","","","","","","","null","+","Fixation - short","","null","","","","","","","","","","","","",""
"","html-keyboard-response","371","1392484","0.0-632.0","zoum5kls","1920","1080","","","","","","","","","","","343","goj","Diagnostic trial","","f","13","1","false","true","LEFT","f","1","","LEFT","true","","",""
"","html-keyboard-response","372","1393239","0.0-635.0","zoum5kls","1920","1080","","","","","","","","","","","null","+","Fixation - short","","null","","","","","","","","","","","","",""
"","html-keyboard-response","373","1393773","0.0-636.0","zoum5kls","1920","1080","","","","","","","","","","","534","jlm","Diagnostic trial","","f","13","2","false","true","LEFT","f","1","","RIGHT","false","","",""
"","html-keyboard-response","374","1394534","0.0-639.0","zoum5kls","1920","1080","","","","","","","","","","","null","+","Fixation - short","","null","","","","","","","","","","","","",""
"","html-keyboard-response","375","1395040","0.0-640.0","zoum5kls","1920","1080","","","","","","","","","","","506","goj","Diagnostic trial","","f","13","3","false","true","LEFT","f","1","","LEFT","true","","",""
"","html-keyboard-response","376","1395802","0.0-643.0","zoum5kls","1920","1080","","","","","","","","","","","null","+","Fixation - short","","null","","","","","","","","","","","","",""
"","html-keyboard-response","377","1396328","0.0-644.0","zoum5kls","1920","1080","","","","","","","","","","","525","jlm","Diagnostic trial","","j","13","4","false","false","RIGHT","j","1","","RIGHT","true","","",""
"","html-keyboard-response","378","1397082","0.0-647.0","zoum5kls","1920","1080","","","","","","","","","","","null","+","Fixation - short","","null","","","","","","","","","","","","",""
"","html-keyboard-response","379","1397699","0.0-648.0","zoum5kls","1920","1080","","","","","","","","","","","616","goj","Diagnostic trial","","f","13","5","false","false","RIGHT","j","0","","LEFT","false","","",""
"","call-function","380","1397699","0.0-650.0-0.0","zoum5kls","","","","","","","","","","","","","","","","","","","","","","","","","","","","","",""
"","html-keyboard-response","381","1398002","0.0-650.0-1.0","zoum5kls","1920","1080","","","","","","","","","","","null","Wrong","Feedback","","null","","","","","","","","","","","","",""
"","call-function","382","1398003","0.0-650.0-2.0","zoum5kls","","","","","","","","","","","","","","","","","","","","","","","","","","","","","",""
"","html-keyboard-response","383","1398767","0.0-651.0","zoum5kls","1920","1080","","","","","","","","","","","null","+","Fixation - short","","null","","","","","","","","","","","","",""
"","html-keyboard-response","384","1399353","0.0-652.0","zoum5kls","1920","1080","","","","","","","","","","","585","jlm","Diagnostic trial","","f","13","6","false","true","LEFT","f","1","","RIGHT","false","","",""
"","html-keyboard-response","385","1400115","0.0-655.0","zoum5kls","1920","1080","","","","","","","","","","","null","+","Fixation - short","","null","","","","","","","","","","","","",""
"","html-keyboard-response","386","1400678","0.0-656.0","zoum5kls","1920","1080","","","","","","","","","","","562","jlm","Diagnostic trial","","j","13","7","false","false","RIGHT","j","1","","RIGHT","true","","",""
"","html-keyboard-response","387","1401430","0.0-659.0","zoum5kls","1920","1080","","","","","","","","","","","null","+","Fixation - short","","null","","","","","","","","","","","","",""
"","html-keyboard-response","388","1401966","0.0-660.0","zoum5kls","1920","1080","","","","","","","","","","","535","goj","Diagnostic trial","","f","13","8","false","true","LEFT","f","1","","LEFT","true","","",""
"","html-keyboard-response","389","1402716","0.0-663.0","zoum5kls","1920","1080","","","","","","","","","","","null","+","Fixation - short","","null","","","","","","","","","","","","",""
"","html-keyboard-response","390","1403282","0.0-664.0","zoum5kls","1920","1080","","","","","","","","","","","565","goj","Diagnostic trial","","j","13","9","false","false","RIGHT","j","1","","LEFT","false","","",""
"","html-keyboard-response","391","1404044","0.0-667.0","zoum5kls","1920","1080","","","","","","","","","","","null","+","Fixation - short","","null","","","","","","","","","","","","",""
"","html-keyboard-response","392","1404509","0.0-668.0","zoum5kls","1920","1080","","","","","","","","","","","465","goj","Diagnostic trial","","j","13","10","false","false","RIGHT","j","1","","LEFT","false","","",""
"","html-keyboard-response","393","1405265","0.0-671.0","zoum5kls","1920","1080","","","","","","","","","","","null","+","Fixation - short","","null","","","","","","","","","","","","",""
"","html-keyboard-response","394","1405868","0.0-672.0","zoum5kls","1920","1080","","","","","","","","","","","603","jlm","Diagnostic trial","","j","13","11","false","false","RIGHT","j","1","","RIGHT","true","","",""
"","html-keyboard-response","395","1406625","0.0-675.0","zoum5kls","1920","1080","","","","","","","","","","","null","+","Fixation - short","","null","","","","","","","","","","","","",""
"","html-keyboard-response","396","1407425","0.0-676.0","zoum5kls","1920","1080","","","","","","","","","","","800","jlm","Diagnostic trial","","f","13","12","false","true","LEFT","f","1","","RIGHT","false","","",""
"","html-keyboard-response","397","1408180","0.0-679.0","zoum5kls","1920","1080","","","","","","","","","","","null","+","Fixation - short","","null","","","","","","","","","","","","",""
"","html-keyboard-response","398","1408701","0.0-680.0","zoum5kls","1920","1080","","","","","","","","","","","521","goj","Diagnostic trial","","f","13","13","false","true","LEFT","f","1","","LEFT","true","","",""
"","html-keyboard-response","399","1409455","0.0-683.0","zoum5kls","1920","1080","","","","","","","","","","","null","+","Fixation - short","","null","","","","","","","","","","","","",""
"","html-keyboard-response","400","1409899","0.0-684.0","zoum5kls","1920","1080","","","","","","","","","","","444","jlm","Inducer trial","","j","13","","true","","","j","1","RIGHT","","","","",""
"","html-keyboard-response","401","1411409","0.0-687.0","zoum5kls","1920","1080","","","","","","","","","","","null","+","Fixation - long","","null","","","","","","","","","","","","",""
"","html-keyboard-response","402","1411921","0.0-688.0","zoum5kls","1920","1080","","","","","","","","","","","512","If feg press LEFT | If rrd press RIGHT","Inducer instructions",""," ","14","","","","","","","","","","","",""
"","html-keyboard-response","403","1412674","0.0-689.0","zoum5kls","1920","1080","","","","","","","","","","","null","+","Fixation - short","","null","","","","","","","","","","","","",""
"","html-keyboard-response","404","1413293","0.0-690.0","zoum5kls","1920","1080","","","","","","","","","","","619","feg","Diagnostic trial","","j","14","0","false","false","RIGHT","j","1","","LEFT","false","","",""
"","html-keyboard-response","405","1414057","0.0-693.0","zoum5kls","1920","1080","","","","","","","","","","","null","+","Fixation - short","","null","","","","","","","","","","","","",""
"","html-keyboard-response","406","1414589","0.0-694.0","zoum5kls","1920","1080","","","","","","","","","","","531","feg","Diagnostic trial","","f","14","1","false","true","LEFT","f","1","","LEFT","true","","",""
"","html-keyboard-response","407","1415344","0.0-697.0","zoum5kls","1920","1080","","","","","","","","","","","null","+","Fixation - short","","null","","","","","","","","","","","","",""
"","html-keyboard-response","408","1415924","0.0-698.0","zoum5kls","1920","1080","","","","","","","","","","","579","feg","Diagnostic trial","","j","14","2","false","false","RIGHT","j","1","","LEFT","false","","",""
"","html-keyboard-response","409","1416687","0.0-701.0","zoum5kls","1920","1080","","","","","","","","","","","null","+","Fixation - short","","null","","","","","","","","","","","","",""
"","html-keyboard-response","410","1417194","0.0-702.0","zoum5kls","1920","1080","","","","","","","","","","","507","feg","Diagnostic trial","","j","14","3","false","false","RIGHT","j","1","","LEFT","false","","",""
"","html-keyboard-response","411","1417952","0.0-705.0","zoum5kls","1920","1080","","","","","","","","","","","null","+","Fixation - short","","null","","","","","","","","","","","","",""
"","html-keyboard-response","412","1418406","0.0-706.0","zoum5kls","1920","1080","","","","","","","","","","","454","rrd","Diagnostic trial","","f","14","4","false","true","LEFT","f","1","","RIGHT","false","","",""
"","html-keyboard-response","413","1419163","0.0-709.0","zoum5kls","1920","1080","","","","","","","","","","","null","+","Fixation - short","","null","","","","","","","","","","","","",""
"","html-keyboard-response","414","1419800","0.0-710.0","zoum5kls","1920","1080","","","","","","","","","","","637","rrd","Diagnostic trial","","j","14","5","false","false","RIGHT","j","1","","RIGHT","true","","",""
"","html-keyboard-response","415","1420559","0.0-713.0","zoum5kls","1920","1080","","","","","","","","","","","null","+","Fixation - short","","null","","","","","","","","","","","","",""
"","html-keyboard-response","416","1420943","0.0-714.0","zoum5kls","1920","1080","","","","","","","","","","","383","rrd","Diagnostic trial","","j","14","6","false","false","RIGHT","j","1","","RIGHT","true","","",""
"","html-keyboard-response","417","1421703","0.0-717.0","zoum5kls","1920","1080","","","","","","","","","","","null","+","Fixation - short","","null","","","","","","","","","","","","",""
"","html-keyboard-response","418","1422142","0.0-718.0","zoum5kls","1920","1080","","","","","","","","","","","438","feg","Diagnostic trial","","f","14","7","false","true","LEFT","f","1","","LEFT","true","","",""
"","html-keyboard-response","419","1422904","0.0-721.0","zoum5kls","1920","1080","","","","","","","","","","","null","+","Fixation - short","","null","","","","","","","","","","","","",""
"","html-keyboard-response","420","1423419","0.0-722.0","zoum5kls","1920","1080","","","","","","","","","","","514","feg","Diagnostic trial","","j","14","8","false","false","RIGHT","j","1","","LEFT","false","","",""
"","html-keyboard-response","421","1424180","0.0-725.0","zoum5kls","1920","1080","","","","","","","","","","","null","+","Fixation - short","","null","","","","","","","","","","","","",""
"","html-keyboard-response","422","1424849","0.0-726.0","zoum5kls","1920","1080","","","","","","","","","","","668","rrd","Diagnostic trial","","j","14","9","false","false","RIGHT","j","1","","RIGHT","true","","",""
"","html-keyboard-response","423","1425612","0.0-729.0","zoum5kls","1920","1080","","","","","","","","","","","null","+","Fixation - short","","null","","","","","","","","","","","","",""
"","html-keyboard-response","424","1426361","0.0-730.0","zoum5kls","1920","1080","","","","","","","","","","","749","feg","Diagnostic trial","","j","14","10","false","false","RIGHT","j","1","","LEFT","false","","",""
"","html-keyboard-response","425","1427112","0.0-733.0","zoum5kls","1920","1080","","","","","","","","","","","null","+","Fixation - short","","null","","","","","","","","","","","","",""
"","html-keyboard-response","426","1427608","0.0-734.0","zoum5kls","1920","1080","","","","","","","","","","","496","feg","Diagnostic trial","","j","14","11","false","false","RIGHT","j","1","","LEFT","false","","",""
"","html-keyboard-response","427","1428364","0.0-737.0","zoum5kls","1920","1080","","","","","","","","","","","null","+","Fixation - short","","null","","","","","","","","","","","","",""
"","html-keyboard-response","428","1428759","0.0-738.0","zoum5kls","1920","1080","","","","","","","","","","","395","feg","Diagnostic trial","","j","14","12","false","true","LEFT","f","0","","LEFT","true","","",""
"","call-function","429","1428759","0.0-740.0-0.0","zoum5kls","","","","","","","","","","","","","","","","","","","","","","","","","","","","","",""
"","html-keyboard-response","430","1429064","0.0-740.0-1.0","zoum5kls","1920","1080","","","","","","","","","","","null","Wrong","Feedback","","null","","","","","","","","","","","","",""
"","call-function","431","1429064","0.0-740.0-2.0","zoum5kls","","","","","","","","","","","","","","","","","","","","","","","","","","","","","",""
"","html-keyboard-response","432","1429824","0.0-741.0","zoum5kls","1920","1080","","","","","","","","","","","null","+","Fixation - short","","null","","","","","","","","","","","","",""
"","html-keyboard-response","433","1430592","0.0-742.0","zoum5kls","1920","1080","","","","","","","","","","","767","rrd","Diagnostic trial","","f","14","13","false","true","LEFT","f","1","","RIGHT","false","","",""
"","html-keyboard-response","434","1431351","0.0-745.0","zoum5kls","1920","1080","","","","","","","","","","","null","+","Fixation - short","","null","","","","","","","","","","","","",""
"","html-keyboard-response","435","1432074","0.0-746.0","zoum5kls","1920","1080","","","","","","","","","","","722","feg","Inducer trial","","f","14","","true","","","f","1","LEFT","","","","",""
"","html-keyboard-response","436","1433586","0.0-749.0","zoum5kls","1920","1080","","","","","","","","","","","null","+","Fixation - long","","null","","","","","","","","","","","","",""
"","html-keyboard-response","437","1434290","0.0-750.0","zoum5kls","1920","1080","","","","","","","","","","","703","If gdn press LEFT | If asn press RIGHT","Inducer instructions",""," ","15","","","","","","","","","","","",""
"","html-keyboard-response","438","1435053","0.0-751.0","zoum5kls","1920","1080","","","","","","","","","","","null","+","Fixation - short","","null","","","","","","","","","","","","",""
"","html-keyboard-response","439","1435759","0.0-752.0","zoum5kls","1920","1080","","","","","","","","","","","705","gdn","Diagnostic trial","","f","15","0","false","true","LEFT","f","1","","LEFT","true","","",""
"","html-keyboard-response","440","1436511","0.0-755.0","zoum5kls","1920","1080","","","","","","","","","","","null","+","Fixation - short","","null","","","","","","","","","","","","",""
"","html-keyboard-response","441","1436985","0.0-756.0","zoum5kls","1920","1080","","","","","","","","","","","473","asn","Diagnostic trial","","f","15","1","false","true","LEFT","f","1","","RIGHT","false","","",""
"","html-keyboard-response","442","1437743","0.0-759.0","zoum5kls","1920","1080","","","","","","","","","","","null","+","Fixation - short","","null","","","","","","","","","","","","",""
"","html-keyboard-response","443","1438291","0.0-760.0","zoum5kls","1920","1080","","","","","","","","","","","547","asn","Diagnostic trial","","f","15","2","false","true","LEFT","f","1","","RIGHT","false","","",""
"","html-keyboard-response","444","1439045","0.0-763.0","zoum5kls","1920","1080","","","","","","","","","","","null","+","Fixation - short","","null","","","","","","","","","","","","",""
"","html-keyboard-response","445","1439678","0.0-764.0","zoum5kls","1920","1080","","","","","","","","","","","633","asn","Diagnostic trial","","j","15","3","false","false","RIGHT","j","1","","RIGHT","true","","",""
"","html-keyboard-response","446","1440432","0.0-767.0","zoum5kls","1920","1080","","","","","","","","","","","null","+","Fixation - short","","null","","","","","","","","","","","","",""
"","html-keyboard-response","447","1441136","0.0-768.0","zoum5kls","1920","1080","","","","","","","","","","","704","asn","Diagnostic trial","","f","15","4","false","true","LEFT","f","1","","RIGHT","false","","",""
"","html-keyboard-response","448","1441892","0.0-771.0","zoum5kls","1920","1080","","","","","","","","","","","null","+","Fixation - short","","null","","","","","","","","","","","","",""
"","html-keyboard-response","449","1442725","0.0-772.0","zoum5kls","1920","1080","","","","","","","","","","","833","gdn","Diagnostic trial","","j","15","5","false","false","RIGHT","j","1","","LEFT","false","","",""
"","html-keyboard-response","450","1443483","0.0-775.0","zoum5kls","1920","1080","","","","","","","","","","","null","+","Fixation - short","","null","","","","","","","","","","","","",""
"","html-keyboard-response","451","1443967","0.0-776.0","zoum5kls","1920","1080","","","","","","","","","","","484","gdn","Diagnostic trial","","j","15","6","false","false","RIGHT","j","1","","LEFT","false","","",""
"","html-keyboard-response","452","1444722","0.0-779.0","zoum5kls","1920","1080","","","","","","","","","","","null","+","Fixation - short","","null","","","","","","","","","","","","",""
"","html-keyboard-response","453","1445094","0.0-780.0","zoum5kls","1920","1080","","","","","","","","","","","372","gdn","Inducer trial","","f","15","","true","","","f","1","LEFT","","","","",""
"","html-keyboard-response","454","1446605","0.0-783.0","zoum5kls","1920","1080","","","","","","","","","","","null","+","Fixation - long","","null","","","","","","","","","","","","",""
"","html-keyboard-response","455","1447257","0.0-784.0","zoum5kls","1920","1080","","","","","","","","","","","651","If wwt press LEFT | If ois press RIGHT","Inducer instructions",""," ","16","","","","","","","","","","","",""
"","html-keyboard-response","456","1448019","0.0-785.0","zoum5kls","1920","1080","","","","","","","","","","","null","+","Fixation - short","","null","","","","","","","","","","","","",""
"","html-keyboard-response","457","1448824","0.0-786.0","zoum5kls","1920","1080","","","","","","","","","","","804","wwt","Diagnostic trial","","f","16","0","false","true","LEFT","f","1","","LEFT","true","","",""
"","html-keyboard-response","458","1449578","0.0-789.0","zoum5kls","1920","1080","","","","","","","","","","","null","+","Fixation - short","","null","","","","","","","","","","","","",""
"","html-keyboard-response","459","1449946","0.0-790.0","zoum5kls","1920","1080","","","","","","","","","","","367","wwt","Diagnostic trial","","f","16","1","false","false","RIGHT","j","0","","LEFT","false","","",""
"","call-function","460","1449946","0.0-792.0-0.0","zoum5kls","","","","","","","","","","","","","","","","","","","","","","","","","","","","","",""
"","html-keyboard-response","461","1450258","0.0-792.0-1.0","zoum5kls","1920","1080","","","","","","","","","","","null","Wrong","Feedback","","null","","","","","","","","","","","","",""
"","call-function","462","1450258","0.0-792.0-2.0","zoum5kls","","","","","","","","","","","","","","","","","","","","","","","","","","","","","",""
"","html-keyboard-response","463","1451017","0.0-793.0","zoum5kls","1920","1080","","","","","","","","","","","null","+","Fixation - short","","null","","","","","","","","","","","","",""
"","html-keyboard-response","464","1451647","0.0-794.0","zoum5kls","1920","1080","","","","","","","","","","","630","ois","Diagnostic trial","","j","16","2","false","false","RIGHT","j","1","","RIGHT","true","","",""
"","html-keyboard-response","465","1452407","0.0-797.0","zoum5kls","1920","1080","","","","","","","","","","","null","+","Fixation - short","","null","","","","","","","","","","","","",""
"","html-keyboard-response","466","1452963","0.0-798.0","zoum5kls","1920","1080","","","","","","","","","","","556","wwt","Diagnostic trial","","f","16","3","false","true","LEFT","f","1","","LEFT","true","","",""
"","html-keyboard-response","467","1453722","0.0-801.0","zoum5kls","1920","1080","","","","","","","","","","","null","+","Fixation - short","","null","","","","","","","","","","","","",""
"","html-keyboard-response","468","1454290","0.0-802.0","zoum5kls","1920","1080","","","","","","","","","","","568","ois","Diagnostic trial","","j","16","4","false","false","RIGHT","j","1","","RIGHT","true","","",""
"","html-keyboard-response","469","1455055","0.0-805.0","zoum5kls","1920","1080","","","","","","","","","","","null","+","Fixation - short","","null","","","","","","","","","","","","",""
"","html-keyboard-response","470","1455582","0.0-806.0","zoum5kls","1920","1080","","","","","","","","","","","527","wwt","Diagnostic trial","","f","16","5","false","true","LEFT","f","1","","LEFT","true","","",""
"","html-keyboard-response","471","1456341","0.0-809.0","zoum5kls","1920","1080","","","","","","","","","","","null","+","Fixation - short","","null","","","","","","","","","","","","",""
"","html-keyboard-response","472","1456773","0.0-810.0","zoum5kls","1920","1080","","","","","","","","","","","431","ois","Diagnostic trial","","f","16","6","false","true","LEFT","f","1","","RIGHT","false","","",""
"","html-keyboard-response","473","1457525","0.0-813.0","zoum5kls","1920","1080","","","","","","","","","","","null","+","Fixation - short","","null","","","","","","","","","","","","",""
"","html-keyboard-response","474","1458031","0.0-814.0","zoum5kls","1920","1080","","","","","","","","","","","505","wwt","Inducer trial","","j","16","","true","","","f","0","LEFT","","","","",""
"","call-function","475","1458031","0.0-816.0-0.0","zoum5kls","","","","","","","","","","","","","","","","","","","","","","","","","","","","","",""
"","html-keyboard-response","476","1458334","0.0-816.0-1.0","zoum5kls","1920","1080","","","","","","","","","","","null","Wrong","Feedback","","null","","","","","","","","","","","","",""
"","call-function","477","1458335","0.0-816.0-2.0","zoum5kls","","","","","","","","","","","","","","","","","","","","","","","","","","","","","",""
"","html-keyboard-response","478","1459847","0.0-817.0","zoum5kls","1920","1080","","","","","","","","","","","null","+","Fixation - long","","null","","","","","","","","","","","","",""
"","html-keyboard-response","479","1460291","0.0-818.0","zoum5kls","1920","1080","","","","","","","","","","","444","If drk press LEFT | If ccx press RIGHT","Inducer instructions",""," ","17","","","","","","","","","","","",""
"","html-keyboard-response","480","1461051","0.0-819.0","zoum5kls","1920","1080","","","","","","","","","","","null","+","Fixation - short","","null","","","","","","","","","","","","",""
"","html-keyboard-response","481","1461426","0.0-820.0","zoum5kls","1920","1080","","","","","","","","","","","374","drk","Diagnostic trial","","f","17","0","false","false","RIGHT","j","0","","LEFT","false","","",""
"","call-function","482","1461426","0.0-822.0-0.0","zoum5kls","","","","","","","","","","","","","","","","","","","","","","","","","","","","","",""
"","html-keyboard-response","483","1461734","0.0-822.0-1.0","zoum5kls","1920","1080","","","","","","","","","","","null","Wrong","Feedback","","null","","","","","","","","","","","","",""
"","call-function","484","1461734","0.0-822.0-2.0","zoum5kls","","","","","","","","","","","","","","","","","","","","","","","","","","","","","",""
"","html-keyboard-response","485","1462498","0.0-823.0","zoum5kls","1920","1080","","","","","","","","","","","null","+","Fixation - short","","null","","","","","","","","","","","","",""
"","html-keyboard-response","486","1463064","0.0-824.0","zoum5kls","1920","1080","","","","","","","","","","","565","drk","Diagnostic trial","","f","17","1","false","true","LEFT","f","1","","LEFT","true","","",""
"","html-keyboard-response","487","1463815","0.0-827.0","zoum5kls","1920","1080","","","","","","","","","","","null","+","Fixation - short","","null","","","","","","","","","","","","",""
"","html-keyboard-response","488","1464263","0.0-828.0","zoum5kls","1920","1080","","","","","","","","","","","448","drk","Diagnostic trial","","j","17","2","false","false","RIGHT","j","1","","LEFT","false","","",""
"","html-keyboard-response","489","1465019","0.0-831.0","zoum5kls","1920","1080","","","","","","","","","","","null","+","Fixation - short","","null","","","","","","","","","","","","",""
"","html-keyboard-response","490","1465568","0.0-832.0","zoum5kls","1920","1080","","","","","","","","","","","548","ccx","Diagnostic trial","","f","17","3","false","true","LEFT","f","1","","RIGHT","false","","",""
"","html-keyboard-response","491","1466324","0.0-835.0","zoum5kls","1920","1080","","","","","","","","","","","null","+","Fixation - short","","null","","","","","","","","","","","","",""
"","html-keyboard-response","492","1466810","0.0-836.0","zoum5kls","1920","1080","","","","","","","","","","","486","drk","Diagnostic trial","","j","17","4","false","false","RIGHT","j","1","","LEFT","false","","",""
"","html-keyboard-response","493","1467574","0.0-839.0","zoum5kls","1920","1080","","","","","","","","","","","null","+","Fixation - short","","null","","","","","","","","","","","","",""
"","html-keyboard-response","494","1468020","0.0-840.0","zoum5kls","1920","1080","","","","","","","","","","","446","ccx","Diagnostic trial","","f","17","5","false","true","LEFT","f","1","","RIGHT","false","","",""
"","html-keyboard-response","495","1468782","0.0-843.0","zoum5kls","1920","1080","","","","","","","","","","","null","+","Fixation - short","","null","","","","","","","","","","","","",""
"","html-keyboard-response","496","1469392","0.0-844.0","zoum5kls","1920","1080","","","","","","","","","","","609","ccx","Diagnostic trial","","j","17","6","false","false","RIGHT","j","1","","RIGHT","true","","",""
"","html-keyboard-response","497","1470150","0.0-847.0","zoum5kls","1920","1080","","","","","","","","","","","null","+","Fixation - short","","null","","","","","","","","","","","","",""
