"value","trial_type","trial_index","time_elapsed","internal_node_id","id","width","height","webaudio","browser","browser_version","mobile","os","fullscreen","vsync_rate","webcam","microphone","view_history","rt","stimulus","trial_info","success","response","inducer_run","diagnostic_run","inducer_trial","italic","correct_diag_response_side","correct_response_key","correct_response","correct_indu_response_side","correct_inducer_response_side","congruent","accuracy","open_feedback","interactive"
"","call-function","0","7","0.0-0.0","tbo7urpw","","","","","","","","","","","","","","","","","","","","","","","","","","","","","",""
"","browser-check","1","1030","0.0-1.0","tbo7urpw","1500","873","true","chrome","120.0.0","false","Windows 10","true","60.44","true","true","","","","","","","","","","","","","","","","","","",""
"","instructions","2","77567","0.0-2.0","tbo7urpw","","","","","","","","","","","","[{""page_index"":0,""viewing_time"":15392},{""page_index"":1,""viewing_time"":11445},{""page_index"":2,""viewing_time"":49690}]","76533","The experiment and consent","The experiment and consent","","","","","","","","","","","","","","",""
"","fullscreen","3","80508","0.0-3.0","tbo7urpw","1500","1000","","","","","","","","","","","1928","","Full screen","true","","","","","","","","","","","","","",""
"","instructions","4","99105","0.0-4.0","tbo7urpw","1500","1000","","","","","","","","","","[{""page_index"":0,""viewing_time"":12708},{""page_index"":1,""viewing_time"":5882}]","18591","Instructions","Basic overview explanation","","","","","","","","","","","","","","",""
"","html-keyboard-response","5","113347","0.0-5.0","tbo7urpw","1500","1000","","","","","","","","","","","12730","If italic press LEFT | If upright press RIGHT","Diagnostic instructions",""," ","","","","","","","","","","","","",""
"","html-keyboard-response","6","114109","0.0-6.0","tbo7urpw","1500","1000","","","","","","","","","","","null","+","Fixation - short","","null","","","","","","","","","","","","",""
"","html-keyboard-response","7","114848","0.0-7.0","tbo7urpw","1500","1000","","","","","","","","","","","735","chy","Practice diganostic trial","","f","practice","0","false","0","RIGHT","j","0","","","","","",""
"","call-function","8","114852","0.0-9.0-0.0","tbo7urpw","","","","","","","","","","","","","","","","","","","","","","","","","","","","","",""
"","html-keyboard-response","9","115169","0.0-9.0-1.0","tbo7urpw","1500","1000","","","","","","","","","","","null","Wrong","Feedback","","null","","","","","","","","","","","","",""
"","call-function","10","115172","0.0-9.0-2.0","tbo7urpw","","","","","","","","","","","","","","","","","","","","","","","","","","","","","",""
"","html-keyboard-response","11","115936","0.0-10.0","tbo7urpw","1500","1000","","","","","","","","","","","null","+","Fixation - short","","null","","","","","","","","","","","","",""
"","html-keyboard-response","12","116520","0.0-11.0","tbo7urpw","1500","1000","","","","","","","","","","","582","chy","Practice diganostic trial","","j","practice","1","false","0","RIGHT","j","1","","","","","",""
"","html-keyboard-response","13","117275","0.0-14.0","tbo7urpw","1500","1000","","","","","","","","","","","null","+","Fixation - short","","null","","","","","","","","","","","","",""
"","html-keyboard-response","14","117782","0.0-15.0","tbo7urpw","1500","1000","","","","","","","","","","","503","chy","Practice diganostic trial","","j","practice","2","false","0","RIGHT","j","1","","","","","",""
"","html-keyboard-response","15","118543","0.0-18.0","tbo7urpw","1500","1000","","","","","","","","","","","null","+","Fixation - short","","null","","","","","","","","","","","","",""
"","html-keyboard-response","16","119142","0.0-19.0","tbo7urpw","1500","1000","","","","","","","","","","","597","mda","Practice diganostic trial","","f","practice","3","false","1","LEFT","f","1","","","","","",""
"","html-keyboard-response","17","119901","0.0-22.0","tbo7urpw","1500","1000","","","","","","","","","","","null","+","Fixation - short","","null","","","","","","","","","","","","",""
"","html-keyboard-response","18","120704","0.0-23.0","tbo7urpw","1500","1000","","","","","","","","","","","801","chy","Practice diganostic trial","","j","practice","4","false","0","RIGHT","j","1","","","","","",""
"","html-keyboard-response","19","121464","0.0-26.0","tbo7urpw","1500","1000","","","","","","","","","","","null","+","Fixation - short","","null","","","","","","","","","","","","",""
"","html-keyboard-response","20","122181","0.0-27.0","tbo7urpw","1500","1000","","","","","","","","","","","714","chy","Practice diganostic trial","","f","practice","5","false","1","LEFT","f","1","","","","","",""
"","html-keyboard-response","21","122946","0.0-30.0","tbo7urpw","1500","1000","","","","","","","","","","","null","+","Fixation - short","","null","","","","","","","","","","","","",""
"","html-keyboard-response","22","123524","0.0-31.0","tbo7urpw","1500","1000","","","","","","","","","","","575","chy","Practice diganostic trial","","f","practice","6","false","1","LEFT","f","1","","","","","",""
"","html-keyboard-response","23","124289","0.0-34.0","tbo7urpw","1500","1000","","","","","","","","","","","null","+","Fixation - short","","null","","","","","","","","","","","","",""
"","html-keyboard-response","24","124870","0.0-35.0","tbo7urpw","1500","1000","","","","","","","","","","","577","chy","Practice diganostic trial","","f","practice","7","false","1","LEFT","f","1","","","","","",""
"","html-keyboard-response","25","125630","0.0-38.0","tbo7urpw","1500","1000","","","","","","","","","","","null","+","Fixation - short","","null","","","","","","","","","","","","",""
"","html-keyboard-response","26","126120","0.0-39.0","tbo7urpw","1500","1000","","","","","","","","","","","488","mda","Practice diganostic trial","","j","practice","8","false","0","RIGHT","j","1","","","","","",""
"","html-keyboard-response","27","126882","0.0-42.0","tbo7urpw","1500","1000","","","","","","","","","","","null","+","Fixation - short","","null","","","","","","","","","","","","",""
"","html-keyboard-response","28","127569","0.0-43.0","tbo7urpw","1500","1000","","","","","","","","","","","685","mda","Practice diganostic trial","","j","practice","9","false","0","RIGHT","j","1","","","","","",""
"","html-keyboard-response","29","128336","0.0-46.0","tbo7urpw","1500","1000","","","","","","","","","","","null","+","Fixation - short","","null","","","","","","","","","","","","",""
"","html-keyboard-response","30","128951","0.0-47.0","tbo7urpw","1500","1000","","","","","","","","","","","612","chy","Practice diganostic trial","","f","practice","10","false","1","LEFT","f","1","","","","","",""
"","html-keyboard-response","31","129714","0.0-50.0","tbo7urpw","1500","1000","","","","","","","","","","","null","+","Fixation - short","","null","","","","","","","","","","","","",""
"","html-keyboard-response","32","130202","0.0-51.0","tbo7urpw","1500","1000","","","","","","","","","","","486","chy","Practice diganostic trial","","f","practice","11","false","0","RIGHT","j","0","","","","","",""
"","call-function","33","130203","0.0-53.0-0.0","tbo7urpw","","","","","","","","","","","","","","","","","","","","","","","","","","","","","",""
"","html-keyboard-response","34","130513","0.0-53.0-1.0","tbo7urpw","1500","1000","","","","","","","","","","","null","Wrong","Feedback","","null","","","","","","","","","","","","",""
"","call-function","35","130515","0.0-53.0-2.0","tbo7urpw","","","","","","","","","","","","","","","","","","","","","","","","","","","","","",""
"","html-keyboard-response","36","131279","0.0-54.0","tbo7urpw","1500","1000","","","","","","","","","","","null","+","Fixation - short","","null","","","","","","","","","","","","",""
"","html-keyboard-response","37","131946","0.0-55.0","tbo7urpw","1500","1000","","","","","","","","","","","665","chy","Practice diganostic trial","","f","practice","12","false","1","LEFT","f","1","","","","","",""
"","html-keyboard-response","38","132714","0.0-58.0","tbo7urpw","1500","1000","","","","","","","","","","","null","+","Fixation - short","","null","","","","","","","","","","","","",""
"","html-keyboard-response","39","133274","0.0-59.0","tbo7urpw","1500","1000","","","","","","","","","","","558","chy","Practice diganostic trial","","f","practice","13","false","1","LEFT","f","1","","","","","",""
"","html-keyboard-response","40","134043","0.0-62.0","tbo7urpw","1500","1000","","","","","","","","","","","null","+","Fixation - short","","null","","","","","","","","","","","","",""
"","html-keyboard-response","41","134754","0.0-63.0","tbo7urpw","1500","1000","","","","","","","","","","","709","chy","Practice diganostic trial","","j","practice","14","false","0","RIGHT","j","1","","","","","",""
"","html-keyboard-response","42","135523","0.0-66.0","tbo7urpw","1500","1000","","","","","","","","","","","null","+","Fixation - short","","null","","","","","","","","","","","","",""
"","html-keyboard-response","43","136203","0.0-67.0","tbo7urpw","1500","1000","","","","","","","","","","","677","mda","Practice diganostic trial","","j","practice","15","false","1","LEFT","f","0","","","","","",""
"","call-function","44","136204","0.0-69.0-0.0","tbo7urpw","","","","","","","","","","","","","","","","","","","","","","","","","","","","","",""
"","html-keyboard-response","45","136512","0.0-69.0-1.0","tbo7urpw","1500","1000","","","","","","","","","","","null","Wrong","Feedback","","null","","","","","","","","","","","","",""
"","call-function","46","136513","0.0-69.0-2.0","tbo7urpw","","","","","","","","","","","","","","","","","","","","","","","","","","","","","",""
"","html-keyboard-response","47","137280","0.0-70.0","tbo7urpw","1500","1000","","","","","","","","","","","null","+","Fixation - short","","null","","","","","","","","","","","","",""
"","instructions","48","143631","0.0-71.0","tbo7urpw","1500","1000","","","","","","","","","","[{""page_index"":0,""viewing_time"":6347}]","6348","Instructions","Final experiment explanation","","","","","","","","","","","","","","",""
"","html-keyboard-response","49","151302","0.0-72.0","tbo7urpw","1500","1000","","","","","","","","","","","6152","If pte press LEFT | If csp press RIGHT","Practice inducer instructions",""," ","practice","","","","","","","","","","","",""
"","html-keyboard-response","50","152722","0.0-73.0","tbo7urpw","1500","1000","","","","","","","","","","","1416","","Practice inducer trial","","j","practice","","true","","","j","1","RIGHT","","","","",""
"","html-keyboard-response","51","153483","0.0-76.0","tbo7urpw","1500","1000","","","","","","","","","","","null","+","Fixation - short","","null","","","","","","","","","","","","",""
"","html-keyboard-response","52","157941","0.0-77.0","tbo7urpw","1500","1000","","","","","","","","","","","4456","If rbc press LEFT | If gso press RIGHT","Practice inducer instructions",""," ","practice","","","","","","","","","","","",""
"","html-keyboard-response","53","158659","0.0-78.0","tbo7urpw","1500","1000","","","","","","","","","","","716","","Practice inducer trial","","f","practice","","true","","","f","1","LEFT","","","","",""
"","html-keyboard-response","54","159413","0.0-81.0","tbo7urpw","1500","1000","","","","","","","","","","","null","+","Fixation - short","","null","","","","","","","","","","","","",""
"","html-keyboard-response","55","160784","0.0-82.0","tbo7urpw","1500","1000","","","","","","","","","","","1369","If hfs press LEFT | If anz press RIGHT","Practice inducer instructions",""," ","practice","","","","","","","","","","","",""
"","html-keyboard-response","56","161422","0.0-83.0","tbo7urpw","1500","1000","","","","","","","","","","","636","","Practice inducer trial","","f","practice","","true","","","f","1","LEFT","","","","",""
"","html-keyboard-response","57","162181","0.0-86.0","tbo7urpw","1500","1000","","","","","","","","","","","null","+","Fixation - short","","null","","","","","","","","","","","","",""
"","html-keyboard-response","58","163673","0.0-87.0","tbo7urpw","1500","1000","","","","","","","","","","","1488","If xlv press LEFT | If snx press RIGHT","Practice inducer instructions",""," ","practice","","","","","","","","","","","",""
"","html-keyboard-response","59","164369","0.0-88.0","tbo7urpw","1500","1000","","","","","","","","","","","694","","Practice inducer trial","","f","practice","","true","","","f","1","LEFT","","","","",""
"","html-keyboard-response","60","165137","0.0-91.0","tbo7urpw","1500","1000","","","","","","","","","","","null","+","Fixation - short","","null","","","","","","","","","","","","",""
"","html-keyboard-response","61","166849","0.0-92.0","tbo7urpw","1500","1000","","","","","","","","","","","1709","If adj press LEFT | If pxv press RIGHT","Practice inducer instructions",""," ","practice","","","","","","","","","","","",""
"","html-keyboard-response","62","167495","0.0-93.0","tbo7urpw","1500","1000","","","","","","","","","","","642","","Practice inducer trial","","j","practice","","true","","","j","1","RIGHT","","","","",""
"","html-keyboard-response","63","168257","0.0-96.0","tbo7urpw","1500","1000","","","","","","","","","","","null","+","Fixation - short","","null","","","","","","","","","","","","",""
"","html-keyboard-response","64","169938","0.0-97.0","tbo7urpw","1500","1000","","","","","","","","","","","1679","If uus press LEFT | If afp press RIGHT","Practice inducer instructions",""," ","practice","","","","","","","","","","","",""
"","html-keyboard-response","65","170608","0.0-98.0","tbo7urpw","1500","1000","","","","","","","","","","","667","","Practice inducer trial","","j","practice","","true","","","j","1","RIGHT","","","","",""
"","html-keyboard-response","66","171363","0.0-101.0","tbo7urpw","1500","1000","","","","","","","","","","","null","+","Fixation - short","","null","","","","","","","","","","","","",""
"","html-keyboard-response","67","179514","0.0-102.0","tbo7urpw","1500","1000","","","","","","","","","","","8147","End practice","End of practice",""," ","","","","","","","","","","","","",""
"","html-keyboard-response","68","181023","0.0-103.0","tbo7urpw","1500","1000","","","","","","","","","","","null","+","Fixation - long","","null","","","","","","","","","","","","",""
"","html-keyboard-response","69","183199","0.0-104.0","tbo7urpw","1500","1000","","","","","","","","","","","2172","If mik press LEFT | If quy press RIGHT","Inducer instructions",""," ","0","","","","","","","","","","","",""
"","html-keyboard-response","70","183967","0.0-105.0","tbo7urpw","1500","1000","","","","","","","","","","","null","+","Fixation - short","","null","","","","","","","","","","","","",""
"","html-keyboard-response","71","184565","0.0-106.0","tbo7urpw","1500","1000","","","","","","","","","","","595","mik","Diagnostic trial","","f","0","0","false","true","LEFT","f","1","","LEFT","true","","",""
"","html-keyboard-response","72","185324","0.0-109.0","tbo7urpw","1500","1000","","","","","","","","","","","null","+","Fixation - short","","null","","","","","","","","","","","","",""
"","html-keyboard-response","73","186221","0.0-110.0","tbo7urpw","1500","1000","","","","","","","","","","","894","mik","Diagnostic trial","","j","0","1","false","false","RIGHT","j","1","","LEFT","false","","",""
"","html-keyboard-response","74","186981","0.0-113.0","tbo7urpw","1500","1000","","","","","","","","","","","null","+","Fixation - short","","null","","","","","","","","","","","","",""
"","html-keyboard-response","75","187576","0.0-114.0","tbo7urpw","1500","1000","","","","","","","","","","","593","mik","Diagnostic trial","","j","0","2","false","false","RIGHT","j","1","","LEFT","false","","",""
"","html-keyboard-response","76","188341","0.0-117.0","tbo7urpw","1500","1000","","","","","","","","","","","null","+","Fixation - short","","null","","","","","","","","","","","","",""
"","html-keyboard-response","77","188838","0.0-118.0","tbo7urpw","1500","1000","","","","","","","","","","","494","mik","Diagnostic trial","","j","0","3","false","false","RIGHT","j","1","","LEFT","false","","",""
"","html-keyboard-response","78","189599","0.0-121.0","tbo7urpw","1500","1000","","","","","","","","","","","null","+","Fixation - short","","null","","","","","","","","","","","","",""
"","html-keyboard-response","79","190268","0.0-122.0","tbo7urpw","1500","1000","","","","","","","","","","","666","quy","Diagnostic trial","","j","0","4","false","false","RIGHT","j","1","","RIGHT","true","","",""
"","html-keyboard-response","80","191026","0.0-125.0","tbo7urpw","1500","1000","","","","","","","","","","","null","+","Fixation - short","","null","","","","","","","","","","","","",""
"","html-keyboard-response","81","191638","0.0-126.0","tbo7urpw","1500","1000","","","","","","","","","","","609","quy","Diagnostic trial","","f","0","5","false","true","LEFT","f","1","","RIGHT","false","","",""
"","html-keyboard-response","82","192393","0.0-129.0","tbo7urpw","1500","1000","","","","","","","","","","","null","+","Fixation - short","","null","","","","","","","","","","","","",""
"","html-keyboard-response","83","193211","0.0-130.0","tbo7urpw","1500","1000","","","","","","","","","","","815","quy","Diagnostic trial","","j","0","6","false","false","RIGHT","j","1","","RIGHT","true","","",""
"","html-keyboard-response","84","193975","0.0-133.0","tbo7urpw","1500","1000","","","","","","","","","","","null","+","Fixation - short","","null","","","","","","","","","","","","",""
"","html-keyboard-response","85","194917","0.0-134.0","tbo7urpw","1500","1000","","","","","","","","","","","939","mik","Diagnostic trial","","f","0","7","false","true","LEFT","f","1","","LEFT","true","","",""
"","html-keyboard-response","86","195673","0.0-137.0","tbo7urpw","1500","1000","","","","","","","","","","","null","+","Fixation - short","","null","","","","","","","","","","","","",""
"","html-keyboard-response","87","196278","0.0-138.0","tbo7urpw","1500","1000","","","","","","","","","","","601","mik","Diagnostic trial","","j","0","8","false","false","RIGHT","j","1","","LEFT","false","","",""
"","html-keyboard-response","88","197031","0.0-141.0","tbo7urpw","1500","1000","","","","","","","","","","","null","+","Fixation - short","","null","","","","","","","","","","","","",""
"","html-keyboard-response","89","197624","0.0-142.0","tbo7urpw","1500","1000","","","","","","","","","","","589","quy","Diagnostic trial","","j","0","9","false","false","RIGHT","j","1","","RIGHT","true","","",""
"","html-keyboard-response","90","198390","0.0-145.0","tbo7urpw","1500","1000","","","","","","","","","","","null","+","Fixation - short","","null","","","","","","","","","","","","",""
"","html-keyboard-response","91","198952","0.0-146.0","tbo7urpw","1500","1000","","","","","","","","","","","560","mik","Diagnostic trial","","j","0","10","false","false","RIGHT","j","1","","LEFT","false","","",""
"","html-keyboard-response","92","199719","0.0-149.0","tbo7urpw","1500","1000","","","","","","","","","","","null","+","Fixation - short","","null","","","","","","","","","","","","",""
"","html-keyboard-response","93","200261","0.0-150.0","tbo7urpw","1500","1000","","","","","","","","","","","540","quy","Diagnostic trial","","f","0","11","false","true","LEFT","f","1","","RIGHT","false","","",""
"","html-keyboard-response","94","201028","0.0-153.0","tbo7urpw","1500","1000","","","","","","","","","","","null","+","Fixation - short","","null","","","","","","","","","","","","",""
"","html-keyboard-response","95","201533","0.0-154.0","tbo7urpw","1500","1000","","","","","","","","","","","502","mik","Diagnostic trial","","j","0","12","false","false","RIGHT","j","1","","LEFT","false","","",""
"","html-keyboard-response","96","202291","0.0-157.0","tbo7urpw","1500","1000","","","","","","","","","","","null","+","Fixation - short","","null","","","","","","","","","","","","",""
"","html-keyboard-response","97","202747","0.0-158.0","tbo7urpw","1500","1000","","","","","","","","","","","453","mik","Diagnostic trial","","j","0","13","false","false","RIGHT","j","1","","LEFT","false","","",""
"","html-keyboard-response","98","203511","0.0-161.0","tbo7urpw","1500","1000","","","","","","","","","","","null","+","Fixation - short","","null","","","","","","","","","","","","",""
"","html-keyboard-response","99","204077","0.0-162.0","tbo7urpw","1500","1000","","","","","","","","","","","564","quy","Diagnostic trial","","j","0","14","false","false","RIGHT","j","1","","RIGHT","true","","",""
"","html-keyboard-response","100","204838","0.0-165.0","tbo7urpw","1500","1000","","","","","","","","","","","null","+","Fixation - short","","null","","","","","","","","","","","","",""
"","html-keyboard-response","101","205825","0.0-166.0","tbo7urpw","1500","1000","","","","","","","","","","","984","quy","Inducer trial","","j","0","","true","","","j","1","RIGHT","","","","",""
"","html-keyboard-response","102","207333","0.0-169.0","tbo7urpw","1500","1000","","","","","","","","","","","null","+","Fixation - long","","null","","","","","","","","","","","","",""
"","html-keyboard-response","103","227337","0.0-170.0","tbo7urpw","1500","1000","","","","","","","","","","","null","If amb press LEFT | If ecl press RIGHT","Inducer instructions","","null","1","","","","","","","","","","","",""
"","html-keyboard-response","104","228101","0.0-171.0","tbo7urpw","1500","1000","","","","","","","","","","","null","+","Fixation - short","","null","","","","","","","","","","","","",""
"","html-keyboard-response","105","228992","0.0-172.0","tbo7urpw","1500","1000","","","","","","","","","","","888","amb","Diagnostic trial","","f","1","0","false","false","RIGHT","j","0","","LEFT","false","","",""
"","call-function","106","228993","0.0-174.0-0.0","tbo7urpw","","","","","","","","","","","","","","","","","","","","","","","","","","","","","",""
"","html-keyboard-response","107","229303","0.0-174.0-1.0","tbo7urpw","1500","1000","","","","","","","","","","","null","Wrong","Feedback","","null","","","","","","","","","","","","",""
"","call-function","108","229305","0.0-174.0-2.0","tbo7urpw","","","","","","","","","","","","","","","","","","","","","","","","","","","","","",""
"","html-keyboard-response","109","230066","0.0-175.0","tbo7urpw","1500","1000","","","","","","","","","","","null","+","Fixation - short","","null","","","","","","","","","","","","",""
"","html-keyboard-response","110","230900","0.0-176.0","tbo7urpw","1500","1000","","","","","","","","","","","830","ecl","Diagnostic trial","","f","1","1","false","true","LEFT","f","1","","RIGHT","false","","",""
"","html-keyboard-response","111","231662","0.0-179.0","tbo7urpw","1500","1000","","","","","","","","","","","null","+","Fixation - short","","null","","","","","","","","","","","","",""
"","html-keyboard-response","112","232444","0.0-180.0","tbo7urpw","1500","1000","","","","","","","","","","","779","amb","Diagnostic trial","","j","1","2","false","true","LEFT","f","0","","LEFT","true","","",""
"","call-function","113","232445","0.0-182.0-0.0","tbo7urpw","","","","","","","","","","","","","","","","","","","","","","","","","","","","","",""
"","html-keyboard-response","114","232751","0.0-182.0-1.0","tbo7urpw","1500","1000","","","","","","","","","","","null","Wrong","Feedback","","null","","","","","","","","","","","","",""
"","call-function","115","232752","0.0-182.0-2.0","tbo7urpw","","","","","","","","","","","","","","","","","","","","","","","","","","","","","",""
"","html-keyboard-response","116","233512","0.0-183.0","tbo7urpw","1500","1000","","","","","","","","","","","null","+","Fixation - short","","null","","","","","","","","","","","","",""
"","html-keyboard-response","117","233999","0.0-184.0","tbo7urpw","1500","1000","","","","","","","","","","","485","ecl","Diagnostic trial","","j","1","3","false","false","RIGHT","j","1","","RIGHT","true","","",""
"","html-keyboard-response","118","234766","0.0-187.0","tbo7urpw","1500","1000","","","","","","","","","","","null","+","Fixation - short","","null","","","","","","","","","","","","",""
"","html-keyboard-response","119","235327","0.0-188.0","tbo7urpw","1500","1000","","","","","","","","","","","557","ecl","Diagnostic trial","","f","1","4","false","true","LEFT","f","1","","RIGHT","false","","",""
"","html-keyboard-response","120","236082","0.0-191.0","tbo7urpw","1500","1000","","","","","","","","","","","null","+","Fixation - short","","null","","","","","","","","","","","","",""
"","html-keyboard-response","121","236790","0.0-192.0","tbo7urpw","1500","1000","","","","","","","","","","","705","ecl","Diagnostic trial","","j","1","5","false","true","LEFT","f","0","","RIGHT","false","","",""
"","call-function","122","236791","0.0-194.0-0.0","tbo7urpw","","","","","","","","","","","","","","","","","","","","","","","","","","","","","",""
"","html-keyboard-response","123","237097","0.0-194.0-1.0","tbo7urpw","1500","1000","","","","","","","","","","","null","Wrong","Feedback","","null","","","","","","","","","","","","",""
"","call-function","124","237098","0.0-194.0-2.0","tbo7urpw","","","","","","","","","","","","","","","","","","","","","","","","","","","","","",""
"","html-keyboard-response","125","237863","0.0-195.0","tbo7urpw","1500","1000","","","","","","","","","","","null","+","Fixation - short","","null","","","","","","","","","","","","",""
"","html-keyboard-response","126","238801","0.0-196.0","tbo7urpw","1500","1000","","","","","","","","","","","934","amb","Diagnostic trial","","f","1","6","false","true","LEFT","f","1","","LEFT","true","","",""
"","html-keyboard-response","127","239567","0.0-199.0","tbo7urpw","1500","1000","","","","","","","","","","","null","+","Fixation - short","","null","","","","","","","","","","","","",""
"","html-keyboard-response","128","240287","0.0-200.0","tbo7urpw","1500","1000","","","","","","","","","","","716","ecl","Diagnostic trial","","f","1","7","false","true","LEFT","f","1","","RIGHT","false","","",""
"","html-keyboard-response","129","241050","0.0-203.0","tbo7urpw","1500","1000","","","","","","","","","","","null","+","Fixation - short","","null","","","","","","","","","","","","",""
"","html-keyboard-response","130","241708","0.0-204.0","tbo7urpw","1500","1000","","","","","","","","","","","655","ecl","Diagnostic trial","","f","1","8","false","true","LEFT","f","1","","RIGHT","false","","",""
"","html-keyboard-response","131","242472","0.0-207.0","tbo7urpw","1500","1000","","","","","","","","","","","null","+","Fixation - short","","null","","","","","","","","","","","","",""
"","html-keyboard-response","132","243005","0.0-208.0","tbo7urpw","1500","1000","","","","","","","","","","","532","ecl","Diagnostic trial","","f","1","9","false","true","LEFT","f","1","","RIGHT","false","","",""
"","html-keyboard-response","133","243769","0.0-211.0","tbo7urpw","1500","1000","","","","","","","","","","","null","+","Fixation - short","","null","","","","","","","","","","","","",""
"","html-keyboard-response","134","244396","0.0-212.0","tbo7urpw","1500","1000","","","","","","","","","","","624","ecl","Diagnostic trial","","j","1","10","false","false","RIGHT","j","1","","RIGHT","true","","",""
"","html-keyboard-response","135","245161","0.0-215.0","tbo7urpw","1500","1000","","","","","","","","","","","null","+","Fixation - short","","null","","","","","","","","","","","","",""
"","html-keyboard-response","136","245790","0.0-216.0","tbo7urpw","1500","1000","","","","","","","","","","","624","amb","Diagnostic trial","","f","1","11","false","true","LEFT","f","1","","LEFT","true","","",""
"","html-keyboard-response","137","246550","0.0-219.0","tbo7urpw","1500","1000","","","","","","","","","","","null","+","Fixation - short","","null","","","","","","","","","","","","",""
"","html-keyboard-response","138","247230","0.0-220.0","tbo7urpw","1500","1000","","","","","","","","","","","677","ecl","Diagnostic trial","","f","1","12","false","true","LEFT","f","1","","RIGHT","false","","",""
"","html-keyboard-response","139","247992","0.0-223.0","tbo7urpw","1500","1000","","","","","","","","","","","null","+","Fixation - short","","null","","","","","","","","","","","","",""
"","html-keyboard-response","140","248640","0.0-224.0","tbo7urpw","1500","1000","","","","","","","","","","","645","ecl","Diagnostic trial","","j","1","13","false","false","RIGHT","j","1","","RIGHT","true","","",""
"","html-keyboard-response","141","249393","0.0-227.0","tbo7urpw","1500","1000","","","","","","","","","","","null","+","Fixation - short","","null","","","","","","","","","","","","",""
"","html-keyboard-response","142","250435","0.0-228.0","tbo7urpw","1500","1000","","","","","","","","","","","1039","ecl","Inducer trial","","f","1","","true","","","j","0","RIGHT","","","","",""
"","call-function","143","250436","0.0-230.0-0.0","tbo7urpw","","","","","","","","","","","","","","","","","","","","","","","","","","","","","",""
"","html-keyboard-response","144","250750","0.0-230.0-1.0","tbo7urpw","1500","1000","","","","","","","","","","","null","Wrong","Feedback","","null","","","","","","","","","","","","",""
"","call-function","145","250752","0.0-230.0-2.0","tbo7urpw","","","","","","","","","","","","","","","","","","","","","","","","","","","","","",""
"","html-keyboard-response","146","252262","0.0-231.0","tbo7urpw","1500","1000","","","","","","","","","","","null","+","Fixation - long","","null","","","","","","","","","","","","",""
"","html-keyboard-response","147","272270","0.0-232.0","tbo7urpw","1500","1000","","","","","","","","","","","null","If jft press LEFT | If wrz press RIGHT","Inducer instructions","","null","2","","","","","","","","","","","",""
"","html-keyboard-response","148","273037","0.0-233.0","tbo7urpw","1500","1000","","","","","","","","","","","null","+","Fixation - short","","null","","","","","","","","","","","","",""
"","html-keyboard-response","149","275053","0.0-234.0","tbo7urpw","1500","1000","","","","","","","","","","","null","wrz","Diagnostic trial","","null","2","0","false","true","LEFT","f","NaN","","RIGHT","false","","",""
"","call-function","150","275055","0.0-235.0-0.0","tbo7urpw","","","","","","","","","","","","","","","","","","","","","","","","","","","","","",""
"","html-keyboard-response","151","275362","0.0-235.0-1.0","tbo7urpw","1500","1000","","","","","","","","","","","null","Slow","Feedback","","null","","","","","","","","","","","","",""
"","call-function","152","275363","0.0-235.0-2.0","tbo7urpw","","","","","","","","","","","","","","","","","","","","","","","","","","","","","",""
"","html-keyboard-response","153","276122","0.0-237.0","tbo7urpw","1500","1000","","","","","","","","","","","null","+","Fixation - short","","null","","","","","","","","","","","","",""
"","html-keyboard-response","154","277797","0.0-238.0","tbo7urpw","1500","1000","","","","","","","","","","","1673","wrz","Diagnostic trial","","j","2","1","false","true","LEFT","f","0","","RIGHT","false","","",""
"","call-function","155","277799","0.0-240.0-0.0","tbo7urpw","","","","","","","","","","","","","","","","","","","","","","","","","","","","","",""
"","html-keyboard-response","156","278104","0.0-240.0-1.0","tbo7urpw","1500","1000","","","","","","","","","","","null","Wrong","Feedback","","null","","","","","","","","","","","","",""
"","call-function","157","278105","0.0-240.0-2.0","tbo7urpw","","","","","","","","","","","","","","","","","","","","","","","","","","","","","",""
"","html-keyboard-response","158","278872","0.0-241.0","tbo7urpw","1500","1000","","","","","","","","","","","null","+","Fixation - short","","null","","","","","","","","","","","","",""
"","html-keyboard-response","159","279877","0.0-242.0","tbo7urpw","1500","1000","","","","","","","","","","","1003","jft","Diagnostic trial","","j","2","2","false","false","RIGHT","j","1","","LEFT","false","","",""
"","html-keyboard-response","160","280635","0.0-245.0","tbo7urpw","1500","1000","","","","","","","","","","","null","+","Fixation - short","","null","","","","","","","","","","","","",""
"","html-keyboard-response","161","281432","0.0-246.0","tbo7urpw","1500","1000","","","","","","","","","","","795","jft","Diagnostic trial","","f","2","3","false","true","LEFT","f","1","","LEFT","true","","",""
"","html-keyboard-response","162","282195","0.0-249.0","tbo7urpw","1500","1000","","","","","","","","","","","null","+","Fixation - short","","null","","","","","","","","","","","","",""
"","html-keyboard-response","163","282704","0.0-250.0","tbo7urpw","1500","1000","","","","","","","","","","","506","wrz","Diagnostic trial","","j","2","4","false","false","RIGHT","j","1","","RIGHT","true","","",""
"","html-keyboard-response","164","283467","0.0-253.0","tbo7urpw","1500","1000","","","","","","","","","","","null","+","Fixation - short","","null","","","","","","","","","","","","",""
"","html-keyboard-response","165","284225","0.0-254.0","tbo7urpw","1500","1000","","","","","","","","","","","756","jft","Diagnostic trial","","j","2","5","false","false","RIGHT","j","1","","LEFT","false","","",""
"","html-keyboard-response","166","284983","0.0-257.0","tbo7urpw","1500","1000","","","","","","","","","","","null","+","Fixation - short","","null","","","","","","","","","","","","",""
"","html-keyboard-response","167","285625","0.0-258.0","tbo7urpw","1500","1000","","","","","","","","","","","639","jft","Diagnostic trial","","f","2","6","false","true","LEFT","f","1","","LEFT","true","","",""
"","html-keyboard-response","168","286386","0.0-261.0","tbo7urpw","1500","1000","","","","","","","","","","","null","+","Fixation - short","","null","","","","","","","","","","","","",""
"","html-keyboard-response","169","287183","0.0-262.0","tbo7urpw","1500","1000","","","","","","","","","","","795","jft","Diagnostic trial","","f","2","7","false","true","LEFT","f","1","","LEFT","true","","",""
"","html-keyboard-response","170","287949","0.0-265.0","tbo7urpw","1500","1000","","","","","","","","","","","null","+","Fixation - short","","null","","","","","","","","","","","","",""
"","html-keyboard-response","171","288585","0.0-266.0","tbo7urpw","1500","1000","","","","","","","","","","","634","wrz","Diagnostic trial","","j","2","8","false","true","LEFT","f","0","","RIGHT","false","","",""
"","call-function","172","288587","0.0-268.0-0.0","tbo7urpw","","","","","","","","","","","","","","","","","","","","","","","","","","","","","",""
"","html-keyboard-response","173","288902","0.0-268.0-1.0","tbo7urpw","1500","1000","","","","","","","","","","","null","Wrong","Feedback","","null","","","","","","","","","","","","",""
"","call-function","174","288904","0.0-268.0-2.0","tbo7urpw","","","","","","","","","","","","","","","","","","","","","","","","","","","","","",""
"","html-keyboard-response","175","289662","0.0-269.0","tbo7urpw","1500","1000","","","","","","","","","","","null","+","Fixation - short","","null","","","","","","","","","","","","",""
"","html-keyboard-response","176","290509","0.0-270.0","tbo7urpw","1500","1000","","","","","","","","","","","845","wrz","Diagnostic trial","","f","2","9","false","false","RIGHT","j","0","","RIGHT","true","","",""
"","call-function","177","290511","0.0-272.0-0.0","tbo7urpw","","","","","","","","","","","","","","","","","","","","","","","","","","","","","",""
"","html-keyboard-response","178","290818","0.0-272.0-1.0","tbo7urpw","1500","1000","","","","","","","","","","","null","Wrong","Feedback","","null","","","","","","","","","","","","",""
"","call-function","179","290820","0.0-272.0-2.0","tbo7urpw","","","","","","","","","","","","","","","","","","","","","","","","","","","","","",""
"","html-keyboard-response","180","291580","0.0-273.0","tbo7urpw","1500","1000","","","","","","","","","","","null","+","Fixation - short","","null","","","","","","","","","","","","",""
"","html-keyboard-response","181","292440","0.0-274.0","tbo7urpw","1500","1000","","","","","","","","","","","855","wrz","Diagnostic trial","","j","2","10","false","false","RIGHT","j","1","","RIGHT","true","","",""
"","html-keyboard-response","182","293197","0.0-277.0","tbo7urpw","1500","1000","","","","","","","","","","","null","+","Fixation - short","","null","","","","","","","","","","","","",""
"","html-keyboard-response","183","293838","0.0-278.0","tbo7urpw","1500","1000","","","","","","","","","","","638","jft","Diagnostic trial","","j","2","11","false","false","RIGHT","j","1","","LEFT","false","","",""
"","html-keyboard-response","184","294597","0.0-281.0","tbo7urpw","1500","1000","","","","","","","","","","","null","+","Fixation - short","","null","","","","","","","","","","","","",""
"","html-keyboard-response","185","295550","0.0-282.0","tbo7urpw","1500","1000","","","","","","","","","","","948","wrz","Inducer trial","","j","2","","true","","","j","1","RIGHT","","","","",""
"","html-keyboard-response","186","297063","0.0-285.0","tbo7urpw","1500","1000","","","","","","","","","","","null","+","Fixation - long","","null","","","","","","","","","","","","",""
"","html-keyboard-response","187","317081","0.0-286.0","tbo7urpw","1500","1000","","","","","","","","","","","null","If kmh press LEFT | If otr press RIGHT","Inducer instructions","","null","3","","","","","","","","","","","",""
"","html-keyboard-response","188","317839","0.0-287.0","tbo7urpw","1500","1000","","","","","","","","","","","null","+","Fixation - short","","null","","","","","","","","","","","","",""
"","html-keyboard-response","189","318998","0.0-288.0","tbo7urpw","1500","1000","","","","","","","","","","","1157","otr","Diagnostic trial","","j","3","0","false","false","RIGHT","j","1","","RIGHT","true","","",""
"","html-keyboard-response","190","319753","0.0-291.0","tbo7urpw","1500","1000","","","","","","","","","","","null","+","Fixation - short","","null","","","","","","","","","","","","",""
"","html-keyboard-response","191","320273","0.0-292.0","tbo7urpw","1500","1000","","","","","","","","","","","514","otr","Diagnostic trial","","j","3","1","false","false","RIGHT","j","1","","RIGHT","true","","",""
"","html-keyboard-response","192","321030","0.0-295.0","tbo7urpw","1500","1000","","","","","","","","","","","null","+","Fixation - short","","null","","","","","","","","","","","","",""
"","html-keyboard-response","193","321891","0.0-296.0","tbo7urpw","1500","1000","","","","","","","","","","","857","otr","Diagnostic trial","","j","3","2","false","false","RIGHT","j","1","","RIGHT","true","","",""
"","html-keyboard-response","194","322657","0.0-299.0","tbo7urpw","1500","1000","","","","","","","","","","","null","+","Fixation - short","","null","","","","","","","","","","","","",""
"","html-keyboard-response","195","323646","0.0-300.0","tbo7urpw","1500","1000","","","","","","","","","","","987","kmh","Diagnostic trial","","f","3","3","false","false","RIGHT","j","0","","LEFT","false","","",""
"","call-function","196","323647","0.0-302.0-0.0","tbo7urpw","","","","","","","","","","","","","","","","","","","","","","","","","","","","","",""
"","html-keyboard-response","197","323963","0.0-302.0-1.0","tbo7urpw","1500","1000","","","","","","","","","","","null","Wrong","Feedback","","null","","","","","","","","","","","","",""
"","call-function","198","323964","0.0-302.0-2.0","tbo7urpw","","","","","","","","","","","","","","","","","","","","","","","","","","","","","",""
"","html-keyboard-response","199","324729","0.0-303.0","tbo7urpw","1500","1000","","","","","","","","","","","null","+","Fixation - short","","null","","","","","","","","","","","","",""
"","html-keyboard-response","200","325317","0.0-304.0","tbo7urpw","1500","1000","","","","","","","","","","","586","kmh","Diagnostic trial","","j","3","4","false","false","RIGHT","j","1","","LEFT","false","","",""
"","html-keyboard-response","201","326071","0.0-307.0","tbo7urpw","1500","1000","","","","","","","","","","","null","+","Fixation - short","","null","","","","","","","","","","","","",""
"","html-keyboard-response","202","326729","0.0-308.0","tbo7urpw","1500","1000","","","","","","","","","","","654","kmh","Diagnostic trial","","j","3","5","false","true","LEFT","f","0","","LEFT","true","","",""
"","call-function","203","326730","0.0-310.0-0.0","tbo7urpw","","","","","","","","","","","","","","","","","","","","","","","","","","","","","",""
"","html-keyboard-response","204","327038","0.0-310.0-1.0","tbo7urpw","1500","1000","","","","","","","","","","","null","Wrong","Feedback","","null","","","","","","","","","","","","",""
"","call-function","205","327039","0.0-310.0-2.0","tbo7urpw","","","","","","","","","","","","","","","","","","","","","","","","","","","","","",""
"","html-keyboard-response","206","327803","0.0-311.0","tbo7urpw","1500","1000","","","","","","","","","","","null","+","Fixation - short","","null","","","","","","","","","","","","",""
"","html-keyboard-response","207","328506","0.0-312.0","tbo7urpw","1500","1000","","","","","","","","","","","700","otr","Diagnostic trial","","f","3","6","false","true","LEFT","f","1","","RIGHT","false","","",""
"","html-keyboard-response","208","329267","0.0-315.0","tbo7urpw","1500","1000","","","","","","","","","","","null","+","Fixation - short","","null","","","","","","","","","","","","",""
"","html-keyboard-response","209","329983","0.0-316.0","tbo7urpw","1500","1000","","","","","","","","","","","714","otr","Diagnostic trial","","j","3","7","false","false","RIGHT","j","1","","RIGHT","true","","",""
"","html-keyboard-response","210","330744","0.0-319.0","tbo7urpw","1500","1000","","","","","","","","","","","null","+","Fixation - short","","null","","","","","","","","","","","","",""
"","html-keyboard-response","211","331327","0.0-320.0","tbo7urpw","1500","1000","","","","","","","","","","","581","kmh","Diagnostic trial","","j","3","8","false","false","RIGHT","j","1","","LEFT","false","","",""
"","html-keyboard-response","212","332081","0.0-323.0","tbo7urpw","1500","1000","","","","","","","","","","","null","+","Fixation - short","","null","","","","","","","","","","","","",""
"","html-keyboard-response","213","332870","0.0-324.0","tbo7urpw","1500","1000","","","","","","","","","","","787","otr","Diagnostic trial","","j","3","9","false","false","RIGHT","j","1","","RIGHT","true","","",""
"","html-keyboard-response","214","333628","0.0-327.0","tbo7urpw","1500","1000","","","","","","","","","","","null","+","Fixation - short","","null","","","","","","","","","","","","",""
"","html-keyboard-response","215","334237","0.0-328.0","tbo7urpw","1500","1000","","","","","","","","","","","606","otr","Diagnostic trial","","j","3","10","false","false","RIGHT","j","1","","RIGHT","true","","",""
"","html-keyboard-response","216","334993","0.0-331.0","tbo7urpw","1500","1000","","","","","","","","","","","null","+","Fixation - short","","null","","","","","","","","","","","","",""
"","html-keyboard-response","217","335897","0.0-332.0","tbo7urpw","1500","1000","","","","","","","","","","","901","kmh","Diagnostic trial","","f","3","11","false","false","RIGHT","j","0","","LEFT","false","","",""
"","call-function","218","335898","0.0-334.0-0.0","tbo7urpw","","","","","","","","","","","","","","","","","","","","","","","","","","","","","",""
"","html-keyboard-response","219","336206","0.0-334.0-1.0","tbo7urpw","1500","1000","","","","","","","","","","","null","Wrong","Feedback","","null","","","","","","","","","","","","",""
"","call-function","220","336207","0.0-334.0-2.0","tbo7urpw","","","","","","","","","","","","","","","","","","","","","","","","","","","","","",""
"","html-keyboard-response","221","336961","0.0-335.0","tbo7urpw","1500","1000","","","","","","","","","","","null","+","Fixation - short","","null","","","","","","","","","","","","",""
"","html-keyboard-response","222","337670","0.0-336.0","tbo7urpw","1500","1000","","","","","","","","","","","708","otr","Diagnostic trial","","j","3","12","false","false","RIGHT","j","1","","RIGHT","true","","",""
"","html-keyboard-response","223","338429","0.0-339.0","tbo7urpw","1500","1000","","","","","","","","","","","null","+","Fixation - short","","null","","","","","","","","","","","","",""
"","html-keyboard-response","224","339533","0.0-340.0","tbo7urpw","1500","1000","","","","","","","","","","","1102","kmh","Inducer trial","","j","3","","true","","","f","0","LEFT","","","","",""
"","call-function","225","339534","0.0-342.0-0.0","tbo7urpw","","","","","","","","","","","","","","","","","","","","","","","","","","","","","",""
"","html-keyboard-response","226","339846","0.0-342.0-1.0","tbo7urpw","1500","1000","","","","","","","","","","","null","Wrong","Feedback","","null","","","","","","","","","","","","",""
"","call-function","227","339848","0.0-342.0-2.0","tbo7urpw","","","","","","","","","","","","","","","","","","","","","","","","","","","","","",""
"","html-keyboard-response","228","341363","0.0-343.0","tbo7urpw","1500","1000","","","","","","","","","","","null","+","Fixation - long","","null","","","","","","","","","","","","",""
"","html-keyboard-response","229","357620","0.0-344.0","tbo7urpw","1500","1000","","","","","","","","","","","16255","If vnn press LEFT | If sdw press RIGHT","Inducer instructions",""," ","4","","","","","","","","","","","",""
"","html-keyboard-response","230","358380","0.0-345.0","tbo7urpw","1500","1000","","","","","","","","","","","null","+","Fixation - short","","null","","","","","","","","","","","","",""
"","html-keyboard-response","231","359081","0.0-346.0","tbo7urpw","1500","1000","","","","","","","","","","","699","vnn","Diagnostic trial","","j","4","0","false","false","RIGHT","j","1","","LEFT","false","","",""
"","html-keyboard-response","232","359850","0.0-349.0","tbo7urpw","1500","1000","","","","","","","","","","","null","+","Fixation - short","","null","","","","","","","","","","","","",""
"","html-keyboard-response","233","360615","0.0-350.0","tbo7urpw","1500","1000","","","","","","","","","","","763","sdw","Diagnostic trial","","j","4","1","false","false","RIGHT","j","1","","RIGHT","true","","",""
"","html-keyboard-response","234","361379","0.0-353.0","tbo7urpw","1500","1000","","","","","","","","","","","null","+","Fixation - short","","null","","","","","","","","","","","","",""
"","html-keyboard-response","235","362112","0.0-354.0","tbo7urpw","1500","1000","","","","","","","","","","","731","sdw","Diagnostic trial","","j","4","2","false","false","RIGHT","j","1","","RIGHT","true","","",""
"","html-keyboard-response","236","362878","0.0-357.0","tbo7urpw","1500","1000","","","","","","","","","","","null","+","Fixation - short","","null","","","","","","","","","","","","",""
"","html-keyboard-response","237","363435","0.0-358.0","tbo7urpw","1500","1000","","","","","","","","","","","554","vnn","Diagnostic trial","","f","4","3","false","true","LEFT","f","1","","LEFT","true","","",""
"","html-keyboard-response","238","364192","0.0-361.0","tbo7urpw","1500","1000","","","","","","","","","","","null","+","Fixation - short","","null","","","","","","","","","","","","",""
"","html-keyboard-response","239","365021","0.0-362.0","tbo7urpw","1500","1000","","","","","","","","","","","827","sdw","Diagnostic trial","","f","4","4","false","true","LEFT","f","1","","RIGHT","false","","",""
"","html-keyboard-response","240","365785","0.0-365.0","tbo7urpw","1500","1000","","","","","","","","","","","null","+","Fixation - short","","null","","","","","","","","","","","","",""
"","html-keyboard-response","241","366470","0.0-366.0","tbo7urpw","1500","1000","","","","","","","","","","","683","sdw","Diagnostic trial","","f","4","5","false","true","LEFT","f","1","","RIGHT","false","","",""
"","html-keyboard-response","242","367236","0.0-369.0","tbo7urpw","1500","1000","","","","","","","","","","","null","+","Fixation - short","","null","","","","","","","","","","","","",""
"","html-keyboard-response","243","368116","0.0-370.0","tbo7urpw","1500","1000","","","","","","","","","","","878","vnn","Diagnostic trial","","j","4","6","false","true","LEFT","f","0","","LEFT","true","","",""
"","call-function","244","368119","0.0-372.0-0.0","tbo7urpw","","","","","","","","","","","","","","","","","","","","","","","","","","","","","",""
"","html-keyboard-response","245","368437","0.0-372.0-1.0","tbo7urpw","1500","1000","","","","","","","","","","","null","Wrong","Feedback","","null","","","","","","","","","","","","",""
"","call-function","246","368438","0.0-372.0-2.0","tbo7urpw","","","","","","","","","","","","","","","","","","","","","","","","","","","","","",""
"","html-keyboard-response","247","369203","0.0-373.0","tbo7urpw","1500","1000","","","","","","","","","","","null","+","Fixation - short","","null","","","","","","","","","","","","",""
"","html-keyboard-response","248","370178","0.0-374.0","tbo7urpw","1500","1000","","","","","","","","","","","972","sdw","Inducer trial","","j","4","","true","","","j","1","RIGHT","","","","",""
"","html-keyboard-response","249","371686","0.0-377.0","tbo7urpw","1500","1000","","","","","","","","","","","null","+","Fixation - long","","null","","","","","","","","","","","","",""
"","html-keyboard-response","250","389999","0.0-378.0","tbo7urpw","1500","1000","","","","","","","","","","","18310","If gdn press LEFT | If imm press RIGHT","Inducer instructions",""," ","5","","","","","","","","","","","",""
"","html-keyboard-response","251","390764","0.0-379.0","tbo7urpw","1500","1000","","","","","","","","","","","null","+","Fixation - short","","null","","","","","","","","","","","","",""
"","html-keyboard-response","252","391556","0.0-380.0","tbo7urpw","1500","1000","","","","","","","","","","","789","imm","Diagnostic trial","","j","5","0","false","true","LEFT","f","0","","RIGHT","false","","",""
"","call-function","253","391559","0.0-382.0-0.0","tbo7urpw","","","","","","","","","","","","","","","","","","","","","","","","","","","","","",""
"","html-keyboard-response","254","391864","0.0-382.0-1.0","tbo7urpw","1500","1000","","","","","","","","","","","null","Wrong","Feedback","","null","","","","","","","","","","","","",""
"","call-function","255","391865","0.0-382.0-2.0","tbo7urpw","","","","","","","","","","","","","","","","","","","","","","","","","","","","","",""
"","html-keyboard-response","256","392627","0.0-383.0","tbo7urpw","1500","1000","","","","","","","","","","","null","+","Fixation - short","","null","","","","","","","","","","","","",""
"","html-keyboard-response","257","393387","0.0-384.0","tbo7urpw","1500","1000","","","","","","","","","","","758","imm","Diagnostic trial","","j","5","1","false","false","RIGHT","j","1","","RIGHT","true","","",""
"","html-keyboard-response","258","394142","0.0-387.0","tbo7urpw","1500","1000","","","","","","","","","","","null","+","Fixation - short","","null","","","","","","","","","","","","",""
"","html-keyboard-response","259","394746","0.0-388.0","tbo7urpw","1500","1000","","","","","","","","","","","602","imm","Diagnostic trial","","j","5","2","false","false","RIGHT","j","1","","RIGHT","true","","",""
"","html-keyboard-response","260","395505","0.0-391.0","tbo7urpw","1500","1000","","","","","","","","","","","null","+","Fixation - short","","null","","","","","","","","","","","","",""
"","html-keyboard-response","261","396026","0.0-392.0","tbo7urpw","1500","1000","","","","","","","","","","","519","imm","Diagnostic trial","","j","5","3","false","false","RIGHT","j","1","","RIGHT","true","","",""
"","html-keyboard-response","262","396785","0.0-395.0","tbo7urpw","1500","1000","","","","","","","","","","","null","+","Fixation - short","","null","","","","","","","","","","","","",""
"","html-keyboard-response","263","397726","0.0-396.0","tbo7urpw","1500","1000","","","","","","","","","","","937","gdn","Inducer trial","","f","5","","true","","","f","1","LEFT","","","","",""
"","html-keyboard-response","264","399242","0.0-399.0","tbo7urpw","1500","1000","","","","","","","","","","","null","+","Fixation - long","","null","","","","","","","","","","","","",""
"","html-keyboard-response","265","419252","0.0-400.0","tbo7urpw","1500","1000","","","","","","","","","","","null","If byy press LEFT | If yoy press RIGHT","Inducer instructions","","null","6","","","","","","","","","","","",""
"","html-keyboard-response","266","420018","0.0-401.0","tbo7urpw","1500","1000","","","","","","","","","","","null","+","Fixation - short","","null","","","","","","","","","","","","",""
"","html-keyboard-response","267","421203","0.0-402.0","tbo7urpw","1500","1000","","","","","","","","","","","1183","yoy","Diagnostic trial","","f","6","0","false","false","RIGHT","j","0","","RIGHT","true","","",""
"","call-function","268","421204","0.0-404.0-0.0","tbo7urpw","","","","","","","","","","","","","","","","","","","","","","","","","","","","","",""
"","html-keyboard-response","269","421511","0.0-404.0-1.0","tbo7urpw","1500","1000","","","","","","","","","","","null","Wrong","Feedback","","null","","","","","","","","","","","","",""
"","call-function","270","421512","0.0-404.0-2.0","tbo7urpw","","","","","","","","","","","","","","","","","","","","","","","","","","","","","",""
"","html-keyboard-response","271","422276","0.0-405.0","tbo7urpw","1500","1000","","","","","","","","","","","null","+","Fixation - short","","null","","","","","","","","","","","","",""
"","html-keyboard-response","272","423020","0.0-406.0","tbo7urpw","1500","1000","","","","","","","","","","","742","byy","Diagnostic trial","","j","6","1","false","true","LEFT","f","0","","LEFT","true","","",""
"","call-function","273","423021","0.0-408.0-0.0","tbo7urpw","","","","","","","","","","","","","","","","","","","","","","","","","","","","","",""
"","html-keyboard-response","274","423333","0.0-408.0-1.0","tbo7urpw","1500","1000","","","","","","","","","","","null","Wrong","Feedback","","null","","","","","","","","","","","","",""
"","call-function","275","423334","0.0-408.0-2.0","tbo7urpw","","","","","","","","","","","","","","","","","","","","","","","","","","","","","",""
"","html-keyboard-response","276","424101","0.0-409.0","tbo7urpw","1500","1000","","","","","","","","","","","null","+","Fixation - short","","null","","","","","","","","","","","","",""
"","html-keyboard-response","277","424772","0.0-410.0","tbo7urpw","1500","1000","","","","","","","","","","","669","yoy","Diagnostic trial","","f","6","2","false","true","LEFT","f","1","","RIGHT","false","","",""
"","html-keyboard-response","278","425535","0.0-413.0","tbo7urpw","1500","1000","","","","","","","","","","","null","+","Fixation - short","","null","","","","","","","","","","","","",""
"","html-keyboard-response","279","426284","0.0-414.0","tbo7urpw","1500","1000","","","","","","","","","","","747","byy","Diagnostic trial","","f","6","3","false","true","LEFT","f","1","","LEFT","true","","",""
"","html-keyboard-response","280","427047","0.0-417.0","tbo7urpw","1500","1000","","","","","","","","","","","null","+","Fixation - short","","null","","","","","","","","","","","","",""
"","html-keyboard-response","281","427774","0.0-418.0","tbo7urpw","1500","1000","","","","","","","","","","","725","yoy","Diagnostic trial","","j","6","4","false","false","RIGHT","j","1","","RIGHT","true","","",""
"","html-keyboard-response","282","428532","0.0-421.0","tbo7urpw","1500","1000","","","","","","","","","","","null","+","Fixation - short","","null","","","","","","","","","","","","",""
"","html-keyboard-response","283","429245","0.0-422.0","tbo7urpw","1500","1000","","","","","","","","","","","709","byy","Diagnostic trial","","f","6","5","false","true","LEFT","f","1","","LEFT","true","","",""
"","html-keyboard-response","284","430004","0.0-425.0","tbo7urpw","1500","1000","","","","","","","","","","","null","+","Fixation - short","","null","","","","","","","","","","","","",""
"","html-keyboard-response","285","430729","0.0-426.0","tbo7urpw","1500","1000","","","","","","","","","","","723","yoy","Diagnostic trial","","f","6","6","false","true","LEFT","f","1","","RIGHT","false","","",""
"","html-keyboard-response","286","431484","0.0-429.0","tbo7urpw","1500","1000","","","","","","","","","","","null","+","Fixation - short","","null","","","","","","","","","","","","",""
"","html-keyboard-response","287","432147","0.0-430.0","tbo7urpw","1500","1000","","","","","","","","","","","661","byy","Diagnostic trial","","f","6","7","false","true","LEFT","f","1","","LEFT","true","","",""
"","html-keyboard-response","288","432902","0.0-433.0","tbo7urpw","1500","1000","","","","","","","","","","","null","+","Fixation - short","","null","","","","","","","","","","","","",""
"","html-keyboard-response","289","433829","0.0-434.0","tbo7urpw","1500","1000","","","","","","","","","","","925","yoy","Inducer trial","","j","6","","true","","","j","1","RIGHT","","","","",""
"","html-keyboard-response","290","435344","0.0-437.0","tbo7urpw","1500","1000","","","","","","","","","","","null","+","Fixation - long","","null","","","","","","","","","","","","",""
"","html-keyboard-response","291","448996","0.0-438.0","tbo7urpw","1500","1000","","","","","","","","","","","13649","If jlm press LEFT | If cpt press RIGHT","Inducer instructions",""," ","7","","","","","","","","","","","",""
"","html-keyboard-response","292","449757","0.0-439.0","tbo7urpw","1500","1000","","","","","","","","","","","null","+","Fixation - short","","null","","","","","","","","","","","","",""
"","html-keyboard-response","293","450549","0.0-440.0","tbo7urpw","1500","1000","","","","","","","","","","","790","cpt","Diagnostic trial","","f","7","0","false","true","LEFT","f","1","","RIGHT","false","","",""
"","html-keyboard-response","294","451317","0.0-443.0","tbo7urpw","1500","1000","","","","","","","","","","","null","+","Fixation - short","","null","","","","","","","","","","","","",""
"","html-keyboard-response","295","451842","0.0-444.0","tbo7urpw","1500","1000","","","","","","","","","","","523","jlm","Diagnostic trial","","f","7","1","false","true","LEFT","f","1","","LEFT","true","","",""
"","html-keyboard-response","296","452598","0.0-447.0","tbo7urpw","1500","1000","","","","","","","","","","","null","+","Fixation - short","","null","","","","","","","","","","","","",""
"","html-keyboard-response","297","453373","0.0-448.0","tbo7urpw","1500","1000","","","","","","","","","","","774","cpt","Diagnostic trial","","f","7","2","false","true","LEFT","f","1","","RIGHT","false","","",""
"","html-keyboard-response","298","454141","0.0-451.0","tbo7urpw","1500","1000","","","","","","","","","","","null","+","Fixation - short","","null","","","","","","","","","","","","",""
"","html-keyboard-response","299","454964","0.0-452.0","tbo7urpw","1500","1000","","","","","","","","","","","821","jlm","Diagnostic trial","","j","7","3","false","false","RIGHT","j","1","","LEFT","false","","",""
"","html-keyboard-response","300","455730","0.0-455.0","tbo7urpw","1500","1000","","","","","","","","","","","null","+","Fixation - short","","null","","","","","","","","","","","","",""
"","html-keyboard-response","301","456359","0.0-456.0","tbo7urpw","1500","1000","","","","","","","","","","","626","cpt","Diagnostic trial","","j","7","4","false","false","RIGHT","j","1","","RIGHT","true","","",""
"","html-keyboard-response","302","457124","0.0-459.0","tbo7urpw","1500","1000","","","","","","","","","","","null","+","Fixation - short","","null","","","","","","","","","","","","",""
"","html-keyboard-response","303","457685","0.0-460.0","tbo7urpw","1500","1000","","","","","","","","","","","559","cpt","Diagnostic trial","","f","7","5","false","true","LEFT","f","1","","RIGHT","false","","",""
"","html-keyboard-response","304","458446","0.0-463.0","tbo7urpw","1500","1000","","","","","","","","","","","null","+","Fixation - short","","null","","","","","","","","","","","","",""
"","html-keyboard-response","305","459210","0.0-464.0","tbo7urpw","1500","1000","","","","","","","","","","","762","jlm","Diagnostic trial","","f","7","6","false","true","LEFT","f","1","","LEFT","true","","",""
"","html-keyboard-response","306","459978","0.0-467.0","tbo7urpw","1500","1000","","","","","","","","","","","null","+","Fixation - short","","null","","","","","","","","","","","","",""
"","html-keyboard-response","307","460664","0.0-468.0","tbo7urpw","1500","1000","","","","","","","","","","","684","jlm","Diagnostic trial","","j","7","7","false","false","RIGHT","j","1","","LEFT","false","","",""
"","html-keyboard-response","308","461425","0.0-471.0","tbo7urpw","1500","1000","","","","","","","","","","","null","+","Fixation - short","","null","","","","","","","","","","","","",""
"","html-keyboard-response","309","462127","0.0-472.0","tbo7urpw","1500","1000","","","","","","","","","","","699","cpt","Diagnostic trial","","f","7","8","false","true","LEFT","f","1","","RIGHT","false","","",""
"","html-keyboard-response","310","462889","0.0-475.0","tbo7urpw","1500","1000","","","","","","","","","","","null","+","Fixation - short","","null","","","","","","","","","","","","",""
"","html-keyboard-response","311","463632","0.0-476.0","tbo7urpw","1500","1000","","","","","","","","","","","740","jlm","Diagnostic trial","","f","7","9","false","true","LEFT","f","1","","LEFT","true","","",""
"","html-keyboard-response","312","464389","0.0-479.0","tbo7urpw","1500","1000","","","","","","","","","","","null","+","Fixation - short","","null","","","","","","","","","","","","",""
"","html-keyboard-response","313","465032","0.0-480.0","tbo7urpw","1500","1000","","","","","","","","","","","638","jlm","Diagnostic trial","","j","7","10","false","false","RIGHT","j","1","","LEFT","false","","",""
"","html-keyboard-response","314","465799","0.0-483.0","tbo7urpw","1500","1000","","","","","","","","","","","null","+","Fixation - short","","null","","","","","","","","","","","","",""
"","html-keyboard-response","315","466395","0.0-484.0","tbo7urpw","1500","1000","","","","","","","","","","","593","jlm","Diagnostic trial","","f","7","11","false","true","LEFT","f","1","","LEFT","true","","",""
"","html-keyboard-response","316","467156","0.0-487.0","tbo7urpw","1500","1000","","","","","","","","","","","null","+","Fixation - short","","null","","","","","","","","","","","","",""
"","html-keyboard-response","317","467962","0.0-488.0","tbo7urpw","1500","1000","","","","","","","","","","","804","jlm","Diagnostic trial","","f","7","12","false","true","LEFT","f","1","","LEFT","true","","",""
"","html-keyboard-response","318","468722","0.0-491.0","tbo7urpw","1500","1000","","","","","","","","","","","null","+","Fixation - short","","null","","","","","","","","","","","","",""
"","html-keyboard-response","319","469448","0.0-492.0","tbo7urpw","1500","1000","","","","","","","","","","","722","jlm","Diagnostic trial","","j","7","13","false","false","RIGHT","j","1","","LEFT","false","","",""
"","html-keyboard-response","320","470206","0.0-495.0","tbo7urpw","1500","1000","","","","","","","","","","","null","+","Fixation - short","","null","","","","","","","","","","","","",""
"","html-keyboard-response","321","470884","0.0-496.0","tbo7urpw","1500","1000","","","","","","","","","","","675","jlm","Diagnostic trial","","f","7","14","false","true","LEFT","f","1","","LEFT","true","","",""
"","html-keyboard-response","322","471645","0.0-499.0","tbo7urpw","1500","1000","","","","","","","","","","","null","+","Fixation - short","","null","","","","","","","","","","","","",""
"","html-keyboard-response","323","472547","0.0-500.0","tbo7urpw","1500","1000","","","","","","","","","","","900","cpt","Inducer trial","","j","7","","true","","","j","1","RIGHT","","","","",""
"","html-keyboard-response","324","474063","0.0-503.0","tbo7urpw","1500","1000","","","","","","","","","","","null","+","Fixation - long","","null","","","","","","","","","","","","",""
"","html-keyboard-response","325","476210","0.0-504.0","tbo7urpw","1500","1000","","","","","","","","","","","2144","If vrm press LEFT | If cer press RIGHT","Inducer instructions",""," ","8","","","","","","","","","","","",""
"","html-keyboard-response","326","476965","0.0-505.0","tbo7urpw","1500","1000","","","","","","","","","","","null","+","Fixation - short","","null","","","","","","","","","","","","",""
"","html-keyboard-response","327","477587","0.0-506.0","tbo7urpw","1500","1000","","","","","","","","","","","620","vrm","Diagnostic trial","","f","8","0","false","true","LEFT","f","1","","LEFT","true","","",""
"","html-keyboard-response","328","478343","0.0-509.0","tbo7urpw","1500","1000","","","","","","","","","","","null","+","Fixation - short","","null","","","","","","","","","","","","",""
"","html-keyboard-response","329","478932","0.0-510.0","tbo7urpw","1500","1000","","","","","","","","","","","587","vrm","Diagnostic trial","","j","8","1","false","false","RIGHT","j","1","","LEFT","false","","",""
"","html-keyboard-response","330","479695","0.0-513.0","tbo7urpw","1500","1000","","","","","","","","","","","null","+","Fixation - short","","null","","","","","","","","","","","","",""
"","html-keyboard-response","331","480443","0.0-514.0","tbo7urpw","1500","1000","","","","","","","","","","","747","vrm","Diagnostic trial","","f","8","2","false","true","LEFT","f","1","","LEFT","true","","",""
"","html-keyboard-response","332","481208","0.0-517.0","tbo7urpw","1500","1000","","","","","","","","","","","null","+","Fixation - short","","null","","","","","","","","","","","","",""
"","html-keyboard-response","333","481976","0.0-518.0","tbo7urpw","1500","1000","","","","","","","","","","","767","cer","Diagnostic trial","","j","8","3","false","true","LEFT","f","0","","RIGHT","false","","",""
"","call-function","334","481976","0.0-520.0-0.0","tbo7urpw","","","","","","","","","","","","","","","","","","","","","","","","","","","","","",""
"","html-keyboard-response","335","482293","0.0-520.0-1.0","tbo7urpw","1500","1000","","","","","","","","","","","null","Wrong","Feedback","","null","","","","","","","","","","","","",""
"","call-function","336","482293","0.0-520.0-2.0","tbo7urpw","","","","","","","","","","","","","","","","","","","","","","","","","","","","","",""
"","html-keyboard-response","337","483060","0.0-521.0","tbo7urpw","1500","1000","","","","","","","","","","","null","+","Fixation - short","","null","","","","","","","","","","","","",""
"","html-keyboard-response","338","483550","0.0-522.0","tbo7urpw","1500","1000","","","","","","","","","","","488","cer","Diagnostic trial","","j","8","4","false","false","RIGHT","j","1","","RIGHT","true","","",""
"","html-keyboard-response","339","484309","0.0-525.0","tbo7urpw","1500","1000","","","","","","","","","","","null","+","Fixation - short","","null","","","","","","","","","","","","",""
"","html-keyboard-response","340","485067","0.0-526.0","tbo7urpw","1500","1000","","","","","","","","","","","755","vrm","Diagnostic trial","","j","8","5","false","false","RIGHT","j","1","","LEFT","false","","",""
"","html-keyboard-response","341","485825","0.0-529.0","tbo7urpw","1500","1000","","","","","","","","","","","null","+","Fixation - short","","null","","","","","","","","","","","","",""
"","html-keyboard-response","342","486751","0.0-530.0","tbo7urpw","1500","1000","","","","","","","","","","","923","vrm","Inducer trial","","f","8","","true","","","f","1","LEFT","","","","",""
"","html-keyboard-response","343","488260","0.0-533.0","tbo7urpw","1500","1000","","","","","","","","","","","null","+","Fixation - long","","null","","","","","","","","","","","","",""
"","html-keyboard-response","344","502711","0.0-534.0","tbo7urpw","1500","1000","","","","","","","","","","","14448","If wwt press LEFT | If hhd press RIGHT","Inducer instructions",""," ","9","","","","","","","","","","","",""
"","html-keyboard-response","345","503477","0.0-535.0","tbo7urpw","1500","1000","","","","","","","","","","","null","+","Fixation - short","","null","","","","","","","","","","","","",""
"","html-keyboard-response","346","504395","0.0-536.0","tbo7urpw","1500","1000","","","","","","","","","","","915","wwt","Diagnostic trial","","f","9","0","false","true","LEFT","f","1","","LEFT","true","","",""
"","html-keyboard-response","347","505162","0.0-539.0","tbo7urpw","1500","1000","","","","","","","","","","","null","+","Fixation - short","","null","","","","","","","","","","","","",""
"","html-keyboard-response","348","505912","0.0-540.0","tbo7urpw","1500","1000","","","","","","","","","","","749","wwt","Diagnostic trial","","j","9","1","false","true","LEFT","f","0","","LEFT","true","","",""
"","call-function","349","505913","0.0-542.0-0.0","tbo7urpw","","","","","","","","","","","","","","","","","","","","","","","","","","","","","",""
"","html-keyboard-response","350","506228","0.0-542.0-1.0","tbo7urpw","1500","1000","","","","","","","","","","","null","Wrong","Feedback","","null","","","","","","","","","","","","",""
"","call-function","351","506229","0.0-542.0-2.0","tbo7urpw","","","","","","","","","","","","","","","","","","","","","","","","","","","","","",""
"","html-keyboard-response","352","506983","0.0-543.0","tbo7urpw","1500","1000","","","","","","","","","","","null","+","Fixation - short","","null","","","","","","","","","","","","",""
"","html-keyboard-response","353","507954","0.0-544.0","tbo7urpw","1500","1000","","","","","","","","","","","967","wwt","Diagnostic trial","","j","9","2","false","true","LEFT","f","0","","LEFT","true","","",""
"","call-function","354","507955","0.0-546.0-0.0","tbo7urpw","","","","","","","","","","","","","","","","","","","","","","","","","","","","","",""
"","html-keyboard-response","355","508262","0.0-546.0-1.0","tbo7urpw","1500","1000","","","","","","","","","","","null","Wrong","Feedback","","null","","","","","","","","","","","","",""
"","call-function","356","508263","0.0-546.0-2.0","tbo7urpw","","","","","","","","","","","","","","","","","","","","","","","","","","","","","",""
"","html-keyboard-response","357","509025","0.0-547.0","tbo7urpw","1500","1000","","","","","","","","","","","null","+","Fixation - short","","null","","","","","","","","","","","","",""
"","html-keyboard-response","358","509739","0.0-548.0","tbo7urpw","1500","1000","","","","","","","","","","","712","hhd","Diagnostic trial","","f","9","3","false","true","LEFT","f","1","","RIGHT","false","","",""
"","html-keyboard-response","359","510498","0.0-551.0","tbo7urpw","1500","1000","","","","","","","","","","","null","+","Fixation - short","","null","","","","","","","","","","","","",""
"","html-keyboard-response","360","511051","0.0-552.0","tbo7urpw","1500","1000","","","","","","","","","","","551","hhd","Diagnostic trial","","j","9","4","false","false","RIGHT","j","1","","RIGHT","true","","",""
"","html-keyboard-response","361","511806","0.0-555.0","tbo7urpw","1500","1000","","","","","","","","","","","null","+","Fixation - short","","null","","","","","","","","","","","","",""
"","html-keyboard-response","362","512459","0.0-556.0","tbo7urpw","1500","1000","","","","","","","","","","","650","wwt","Diagnostic trial","","f","9","5","false","true","LEFT","f","1","","LEFT","true","","",""
"","html-keyboard-response","363","513223","0.0-559.0","tbo7urpw","1500","1000","","","","","","","","","","","null","+","Fixation - short","","null","","","","","","","","","","","","",""
"","html-keyboard-response","364","513913","0.0-560.0","tbo7urpw","1500","1000","","","","","","","","","","","689","wwt","Diagnostic trial","","j","9","6","false","false","RIGHT","j","1","","LEFT","false","","",""
"","html-keyboard-response","365","514671","0.0-563.0","tbo7urpw","1500","1000","","","","","","","","","","","null","+","Fixation - short","","null","","","","","","","","","","","","",""
"","html-keyboard-response","366","515305","0.0-564.0","tbo7urpw","1500","1000","","","","","","","","","","","631","wwt","Diagnostic trial","","j","9","7","false","false","RIGHT","j","1","","LEFT","false","","",""
"","html-keyboard-response","367","516059","0.0-567.0","tbo7urpw","1500","1000","","","","","","","","","","","null","+","Fixation - short","","null","","","","","","","","","","","","",""
"","html-keyboard-response","368","516863","0.0-568.0","tbo7urpw","1500","1000","","","","","","","","","","","803","hhd","Inducer trial","","f","9","","true","","","j","0","RIGHT","","","","",""
"","call-function","369","516864","0.0-570.0-0.0","tbo7urpw","","","","","","","","","","","","","","","","","","","","","","","","","","","","","",""
"","html-keyboard-response","370","517180","0.0-570.0-1.0","tbo7urpw","1500","1000","","","","","","","","","","","null","Wrong","Feedback","","null","","","","","","","","","","","","",""
"","call-function","371","517181","0.0-570.0-2.0","tbo7urpw","","","","","","","","","","","","","","","","","","","","","","","","","","","","","",""
"","html-keyboard-response","372","518698","0.0-571.0","tbo7urpw","1500","1000","","","","","","","","","","","null","+","Fixation - long","","null","","","","","","","","","","","","",""
"","html-keyboard-response","373","528601","0.0-572.0","tbo7urpw","1500","1000","","","","","","","","","","","9901","If xet press LEFT | If sjn press RIGHT","Inducer instructions",""," ","10","","","","","","","","","","","",""
"","html-keyboard-response","374","529369","0.0-573.0","tbo7urpw","1500","1000","","","","","","","","","","","null","+","Fixation - short","","null","","","","","","","","","","","","",""
"","html-keyboard-response","375","530085","0.0-574.0","tbo7urpw","1500","1000","","","","","","","","","","","714","xet","Diagnostic trial","","f","10","0","false","true","LEFT","f","1","","LEFT","true","","",""
"","html-keyboard-response","376","530854","0.0-577.0","tbo7urpw","1500","1000","","","","","","","","","","","null","+","Fixation - short","","null","","","","","","","","","","","","",""
"","html-keyboard-response","377","531486","0.0-578.0","tbo7urpw","1500","1000","","","","","","","","","","","629","sjn","Diagnostic trial","","j","10","1","false","false","RIGHT","j","1","","RIGHT","true","","",""
"","html-keyboard-response","378","532243","0.0-581.0","tbo7urpw","1500","1000","","","","","","","","","","","null","+","Fixation - short","","null","","","","","","","","","","","","",""
"","html-keyboard-response","379","532995","0.0-582.0","tbo7urpw","1500","1000","","","","","","","","","","","750","sjn","Diagnostic trial","","f","10","2","false","true","LEFT","f","1","","RIGHT","false","","",""
"","html-keyboard-response","380","533756","0.0-585.0","tbo7urpw","1500","1000","","","","","","","","","","","null","+","Fixation - short","","null","","","","","","","","","","","","",""
"","html-keyboard-response","381","534456","0.0-586.0","tbo7urpw","1500","1000","","","","","","","","","","","697","sjn","Diagnostic trial","","j","10","3","false","false","RIGHT","j","1","","RIGHT","true","","",""
"","html-keyboard-response","382","535222","0.0-589.0","tbo7urpw","1500","1000","","","","","","","","","","","null","+","Fixation - short","","null","","","","","","","","","","","","",""
"","html-keyboard-response","383","535828","0.0-590.0","tbo7urpw","1500","1000","","","","","","","","","","","603","sjn","Diagnostic trial","","j","10","4","false","false","RIGHT","j","1","","RIGHT","true","","",""
"","html-keyboard-response","384","536594","0.0-593.0","tbo7urpw","1500","1000","","","","","","","","","","","null","+","Fixation - short","","null","","","","","","","","","","","","",""
"","html-keyboard-response","385","537350","0.0-594.0","tbo7urpw","1500","1000","","","","","","","","","","","755","xet","Diagnostic trial","","j","10","5","false","false","RIGHT","j","1","","LEFT","false","","",""
"","html-keyboard-response","386","538124","0.0-597.0","tbo7urpw","1500","1000","","","","","","","","","","","null","+","Fixation - short","","null","","","","","","","","","","","","",""
"","html-keyboard-response","387","538876","0.0-598.0","tbo7urpw","1500","1000","","","","","","","","","","","742","xet","Diagnostic trial","","j","10","6","false","false","RIGHT","j","1","","LEFT","false","","",""
"","html-keyboard-response","388","539632","0.0-601.0","tbo7urpw","1500","1000","","","","","","","","","","","null","+","Fixation - short","","null","","","","","","","","","","","","",""
"","html-keyboard-response","389","540214","0.0-602.0","tbo7urpw","1500","1000","","","","","","","","","","","580","sjn","Diagnostic trial","","f","10","7","false","true","LEFT","f","1","","RIGHT","false","","",""
"","html-keyboard-response","390","540980","0.0-605.0","tbo7urpw","1500","1000","","","","","","","","","","","null","+","Fixation - short","","null","","","","","","","","","","","","",""
"","html-keyboard-response","391","541829","0.0-606.0","tbo7urpw","1500","1000","","","","","","","","","","","846","xet","Diagnostic trial","","f","10","8","false","true","LEFT","f","1","","LEFT","true","","",""
"","html-keyboard-response","392","542586","0.0-609.0","tbo7urpw","1500","1000","","","","","","","","","","","null","+","Fixation - short","","null","","","","","","","","","","","","",""
"","html-keyboard-response","393","543208","0.0-610.0","tbo7urpw","1500","1000","","","","","","","","","","","620","xet","Diagnostic trial","","j","10","9","false","false","RIGHT","j","1","","LEFT","false","","",""
"","html-keyboard-response","394","543975","0.0-613.0","tbo7urpw","1500","1000","","","","","","","","","","","null","+","Fixation - short","","null","","","","","","","","","","","","",""
"","html-keyboard-response","395","544607","0.0-614.0","tbo7urpw","1500","1000","","","","","","","","","","","629","xet","Diagnostic trial","","f","10","10","false","true","LEFT","f","1","","LEFT","true","","",""
"","html-keyboard-response","396","545364","0.0-617.0","tbo7urpw","1500","1000","","","","","","","","","","","null","+","Fixation - short","","null","","","","","","","","","","","","",""
"","html-keyboard-response","397","545959","0.0-618.0","tbo7urpw","1500","1000","","","","","","","","","","","593","sjn","Inducer trial","","j","10","","true","","","j","1","RIGHT","","","","",""
"","html-keyboard-response","398","547470","0.0-621.0","tbo7urpw","1500","1000","","","","","","","","","","","null","+","Fixation - long","","null","","","","","","","","","","","","",""
"","html-keyboard-response","399","548780","0.0-622.0","tbo7urpw","1500","1000","","","","","","","","","","","1306","If jey press LEFT | If rpw press RIGHT","Inducer instructions",""," ","11","","","","","","","","","","","",""
"","html-keyboard-response","400","549543","0.0-623.0","tbo7urpw","1500","1000","","","","","","","","","","","null","+","Fixation - short","","null","","","","","","","","","","","","",""
"","html-keyboard-response","401","550271","0.0-624.0","tbo7urpw","1500","1000","","","","","","","","","","","726","jey","Diagnostic trial","","f","11","0","false","true","LEFT","f","1","","LEFT","true","","",""
"","html-keyboard-response","402","551029","0.0-627.0","tbo7urpw","1500","1000","","","","","","","","","","","null","+","Fixation - short","","null","","","","","","","","","","","","",""
"","html-keyboard-response","403","551590","0.0-628.0","tbo7urpw","1500","1000","","","","","","","","","","","558","rpw","Diagnostic trial","","j","11","1","false","true","LEFT","f","0","","RIGHT","false","","",""
"","call-function","404","551591","0.0-630.0-0.0","tbo7urpw","","","","","","","","","","","","","","","","","","","","","","","","","","","","","",""
"","html-keyboard-response","405","551900","0.0-630.0-1.0","tbo7urpw","1500","1000","","","","","","","","","","","null","Wrong","Feedback","","null","","","","","","","","","","","","",""
"","call-function","406","551901","0.0-630.0-2.0","tbo7urpw","","","","","","","","","","","","","","","","","","","","","","","","","","","","","",""
"","html-keyboard-response","407","552669","0.0-631.0","tbo7urpw","1500","1000","","","","","","","","","","","null","+","Fixation - short","","null","","","","","","","","","","","","",""
"","html-keyboard-response","408","553437","0.0-632.0","tbo7urpw","1500","1000","","","","","","","","","","","765","jey","Diagnostic trial","","j","11","2","false","false","RIGHT","j","1","","LEFT","false","","",""
"","html-keyboard-response","409","554203","0.0-635.0","tbo7urpw","1500","1000","","","","","","","","","","","null","+","Fixation - short","","null","","","","","","","","","","","","",""
"","html-keyboard-response","410","554984","0.0-636.0","tbo7urpw","1500","1000","","","","","","","","","","","779","rpw","Diagnostic trial","","f","11","3","false","true","LEFT","f","1","","RIGHT","false","","",""
"","html-keyboard-response","411","555740","0.0-639.0","tbo7urpw","1500","1000","","","","","","","","","","","null","+","Fixation - short","","null","","","","","","","","","","","","",""
"","html-keyboard-response","412","556374","0.0-640.0","tbo7urpw","1500","1000","","","","","","","","","","","632","jey","Diagnostic trial","","j","11","4","false","false","RIGHT","j","1","","LEFT","false","","",""
"","html-keyboard-response","413","557131","0.0-643.0","tbo7urpw","1500","1000","","","","","","","","","","","null","+","Fixation - short","","null","","","","","","","","","","","","",""
"","html-keyboard-response","414","557799","0.0-644.0","tbo7urpw","1500","1000","","","","","","","","","","","664","rpw","Diagnostic trial","","f","11","5","false","true","LEFT","f","1","","RIGHT","false","","",""
"","html-keyboard-response","415","558555","0.0-647.0","tbo7urpw","1500","1000","","","","","","","","","","","null","+","Fixation - short","","null","","","","","","","","","","","","",""
"","html-keyboard-response","416","559198","0.0-648.0","tbo7urpw","1500","1000","","","","","","","","","","","639","rpw","Diagnostic trial","","j","11","6","false","false","RIGHT","j","1","","RIGHT","true","","",""
"","html-keyboard-response","417","559965","0.0-651.0","tbo7urpw","1500","1000","","","","","","","","","","","null","+","Fixation - short","","null","","","","","","","","","","","","",""
"","html-keyboard-response","418","560793","0.0-652.0","tbo7urpw","1500","1000","","","","","","","","","","","825","rpw","Diagnostic trial","","j","11","7","false","false","RIGHT","j","1","","RIGHT","true","","",""
"","html-keyboard-response","419","561557","0.0-655.0","tbo7urpw","1500","1000","","","","","","","","","","","null","+","Fixation - short","","null","","","","","","","","","","","","",""
"","html-keyboard-response","420","562376","0.0-656.0","tbo7urpw","1500","1000","","","","","","","","","","","816","rpw","Diagnostic trial","","f","11","8","false","true","LEFT","f","1","","RIGHT","false","","",""
"","html-keyboard-response","421","563134","0.0-659.0","tbo7urpw","1500","1000","","","","","","","","","","","null","+","Fixation - short","","null","","","","","","","","","","","","",""
"","html-keyboard-response","422","563763","0.0-660.0","tbo7urpw","1500","1000","","","","","","","","","","","626","rpw","Diagnostic trial","","j","11","9","false","false","RIGHT","j","1","","RIGHT","true","","",""
"","html-keyboard-response","423","564528","0.0-663.0","tbo7urpw","1500","1000","","","","","","","","","","","null","+","Fixation - short","","null","","","","","","","","","","","","",""
"","html-keyboard-response","424","565172","0.0-664.0","tbo7urpw","1500","1000","","","","","","","","","","","641","rpw","Diagnostic trial","","j","11","10","false","false","RIGHT","j","1","","RIGHT","true","","",""
"","html-keyboard-response","425","565925","0.0-667.0","tbo7urpw","1500","1000","","","","","","","","","","","null","+","Fixation - short","","null","","","","","","","","","","","","",""
"","html-keyboard-response","426","566603","0.0-668.0","tbo7urpw","1500","1000","","","","","","","","","","","675","jey","Diagnostic trial","","f","11","11","false","true","LEFT","f","1","","LEFT","true","","",""
"","html-keyboard-response","427","567359","0.0-671.0","tbo7urpw","1500","1000","","","","","","","","","","","null","+","Fixation - short","","null","","","","","","","","","","","","",""
"","html-keyboard-response","428","567973","0.0-672.0","tbo7urpw","1500","1000","","","","","","","","","","","611","rpw","Inducer trial","","j","11","","true","","","j","1","RIGHT","","","","",""
"","html-keyboard-response","429","569488","0.0-675.0","tbo7urpw","1500","1000","","","","","","","","","","","null","+","Fixation - long","","null","","","","","","","","","","","","",""
"","html-keyboard-response","430","589494","0.0-676.0","tbo7urpw","1500","1000","","","","","","","","","","","null","If ndm press LEFT | If flh press RIGHT","Inducer instructions","","null","12","","","","","","","","","","","",""
"","html-keyboard-response","431","590258","0.0-677.0","tbo7urpw","1500","1000","","","","","","","","","","","null","+","Fixation - short","","null","","","","","","","","","","","","",""
"","html-keyboard-response","432","591400","0.0-678.0","tbo7urpw","1500","1000","","","","","","","","","","","1139","ndm","Diagnostic trial","","f","12","0","false","true","LEFT","f","1","","LEFT","true","","",""
"","html-keyboard-response","433","592161","0.0-681.0","tbo7urpw","1500","1000","","","","","","","","","","","null","+","Fixation - short","","null","","","","","","","","","","","","",""
"","html-keyboard-response","434","592970","0.0-682.0","tbo7urpw","1500","1000","","","","","","","","","","","807","ndm","Diagnostic trial","","j","12","1","false","false","RIGHT","j","1","","LEFT","false","","",""
"","html-keyboard-response","435","593725","0.0-685.0","tbo7urpw","1500","1000","","","","","","","","","","","null","+","Fixation - short","","null","","","","","","","","","","","","",""
"","html-keyboard-response","436","594455","0.0-686.0","tbo7urpw","1500","1000","","","","","","","","","","","729","flh","Diagnostic trial","","j","12","2","false","false","RIGHT","j","1","","RIGHT","true","","",""
"","html-keyboard-response","437","595222","0.0-689.0","tbo7urpw","1500","1000","","","","","","","","","","","null","+","Fixation - short","","null","","","","","","","","","","","","",""
"","html-keyboard-response","438","595873","0.0-690.0","tbo7urpw","1500","1000","","","","","","","","","","","648","ndm","Diagnostic trial","","j","12","3","false","false","RIGHT","j","1","","LEFT","false","","",""
"","html-keyboard-response","439","596627","0.0-693.0","tbo7urpw","1500","1000","","","","","","","","","","","null","+","Fixation - short","","null","","","","","","","","","","","","",""
"","html-keyboard-response","440","597149","0.0-694.0","tbo7urpw","1500","1000","","","","","","","","","","","520","flh","Diagnostic trial","","f","12","4","false","true","LEFT","f","1","","RIGHT","false","","",""
"","html-keyboard-response","441","597907","0.0-697.0","tbo7urpw","1500","1000","","","","","","","","","","","null","+","Fixation - short","","null","","","","","","","","","","","","",""
"","html-keyboard-response","442","598486","0.0-698.0","tbo7urpw","1500","1000","","","","","","","","","","","576","flh","Diagnostic trial","","j","12","5","false","false","RIGHT","j","1","","RIGHT","true","","",""
"","html-keyboard-response","443","599245","0.0-701.0","tbo7urpw","1500","1000","","","","","","","","","","","null","+","Fixation - short","","null","","","","","","","","","","","","",""
"","html-keyboard-response","444","599917","0.0-702.0","tbo7urpw","1500","1000","","","","","","","","","","","670","ndm","Diagnostic trial","","f","12","6","false","true","LEFT","f","1","","LEFT","true","","",""
"","html-keyboard-response","445","600683","0.0-705.0","tbo7urpw","1500","1000","","","","","","","","","","","null","+","Fixation - short","","null","","","","","","","","","","","","",""
"","html-keyboard-response","446","601282","0.0-706.0","tbo7urpw","1500","1000","","","","","","","","","","","597","flh","Diagnostic trial","","f","12","7","false","true","LEFT","f","1","","RIGHT","false","","",""
"","html-keyboard-response","447","602045","0.0-709.0","tbo7urpw","1500","1000","","","","","","","","","","","null","+","Fixation - short","","null","","","","","","","","","","","","",""
"","html-keyboard-response","448","602533","0.0-710.0","tbo7urpw","1500","1000","","","","","","","","","","","486","ndm","Diagnostic trial","","j","12","8","false","false","RIGHT","j","1","","LEFT","false","","",""
"","html-keyboard-response","449","603299","0.0-713.0","tbo7urpw","1500","1000","","","","","","","","","","","null","+","Fixation - short","","null","","","","","","","","","","","","",""
"","html-keyboard-response","450","603844","0.0-714.0","tbo7urpw","1500","1000","","","","","","","","","","","541","ndm","Diagnostic trial","","j","12","9","false","false","RIGHT","j","1","","LEFT","false","","",""
"","html-keyboard-response","451","604605","0.0-717.0","tbo7urpw","1500","1000","","","","","","","","","","","null","+","Fixation - short","","null","","","","","","","","","","","","",""
"","html-keyboard-response","452","605184","0.0-718.0","tbo7urpw","1500","1000","","","","","","","","","","","577","ndm","Diagnostic trial","","j","12","10","false","false","RIGHT","j","1","","LEFT","false","","",""
"","html-keyboard-response","453","605952","0.0-721.0","tbo7urpw","1500","1000","","","","","","","","","","","null","+","Fixation - short","","null","","","","","","","","","","","","",""
"","html-keyboard-response","454","606603","0.0-722.0","tbo7urpw","1500","1000","","","","","","","","","","","649","ndm","Inducer trial","","j","12","","true","","","f","0","LEFT","","","","",""
"","call-function","455","606604","0.0-724.0-0.0","tbo7urpw","","","","","","","","","","","","","","","","","","","","","","","","","","","","","",""
"","html-keyboard-response","456","606909","0.0-724.0-1.0","tbo7urpw","1500","1000","","","","","","","","","","","null","Wrong","Feedback","","null","","","","","","","","","","","","",""
"","call-function","457","606911","0.0-724.0-2.0","tbo7urpw","","","","","","","","","","","","","","","","","","","","","","","","","","","","","",""
"","html-keyboard-response","458","608421","0.0-725.0","tbo7urpw","1500","1000","","","","","","","","","","","null","+","Fixation - long","","null","","","","","","","","","","","","",""
"","html-keyboard-response","459","609714","0.0-726.0","tbo7urpw","1500","1000","","","","","","","","","","","1291","If pmf press LEFT | If gfm press RIGHT","Inducer instructions",""," ","13","","","","","","","","","","","",""
"","html-keyboard-response","460","610481","0.0-727.0","tbo7urpw","1500","1000","","","","","","","","","","","null","+","Fixation - short","","null","","","","","","","","","","","","",""
"","html-keyboard-response","461","611104","0.0-728.0","tbo7urpw","1500","1000","","","","","","","","","","","621","pmf","Diagnostic trial","","j","13","0","false","false","RIGHT","j","1","","LEFT","false","","",""
"","html-keyboard-response","462","611872","0.0-731.0","tbo7urpw","1500","1000","","","","","","","","","","","null","+","Fixation - short","","null","","","","","","","","","","","","",""
"","html-keyboard-response","463","612448","0.0-732.0","tbo7urpw","1500","1000","","","","","","","","","","","573","pmf","Diagnostic trial","","f","13","1","false","true","LEFT","f","1","","LEFT","true","","",""
"","html-keyboard-response","464","613213","0.0-735.0","tbo7urpw","1500","1000","","","","","","","","","","","null","+","Fixation - short","","null","","","","","","","","","","","","",""
"","html-keyboard-response","465","613738","0.0-736.0","tbo7urpw","1500","1000","","","","","","","","","","","522","pmf","Diagnostic trial","","f","13","2","false","true","LEFT","f","1","","LEFT","true","","",""
"","html-keyboard-response","466","614497","0.0-739.0","tbo7urpw","1500","1000","","","","","","","","","","","null","+","Fixation - short","","null","","","","","","","","","","","","",""
"","html-keyboard-response","467","615139","0.0-740.0","tbo7urpw","1500","1000","","","","","","","","","","","639","gfm","Diagnostic trial","","j","13","3","false","false","RIGHT","j","1","","RIGHT","true","","",""
"","html-keyboard-response","468","615899","0.0-743.0","tbo7urpw","1500","1000","","","","","","","","","","","null","+","Fixation - short","","null","","","","","","","","","","","","",""
"","html-keyboard-response","469","616867","0.0-744.0","tbo7urpw","1500","1000","","","","","","","","","","","965","gfm","Diagnostic trial","","f","13","4","false","true","LEFT","f","1","","RIGHT","false","","",""
"","html-keyboard-response","470","617631","0.0-747.0","tbo7urpw","1500","1000","","","","","","","","","","","null","+","Fixation - short","","null","","","","","","","","","","","","",""
"","html-keyboard-response","471","618201","0.0-748.0","tbo7urpw","1500","1000","","","","","","","","","","","567","pmf","Diagnostic trial","","f","13","5","false","true","LEFT","f","1","","LEFT","true","","",""
"","html-keyboard-response","472","618958","0.0-751.0","tbo7urpw","1500","1000","","","","","","","","","","","null","+","Fixation - short","","null","","","","","","","","","","","","",""
"","html-keyboard-response","473","619497","0.0-752.0","tbo7urpw","1500","1000","","","","","","","","","","","536","pmf","Diagnostic trial","","j","13","6","false","false","RIGHT","j","1","","LEFT","false","","",""
"","html-keyboard-response","474","620250","0.0-755.0","tbo7urpw","1500","1000","","","","","","","","","","","null","+","Fixation - short","","null","","","","","","","","","","","","",""
"","html-keyboard-response","475","620935","0.0-756.0","tbo7urpw","1500","1000","","","","","","","","","","","683","pmf","Diagnostic trial","","f","13","7","false","true","LEFT","f","1","","LEFT","true","","",""
"","html-keyboard-response","476","621688","0.0-759.0","tbo7urpw","1500","1000","","","","","","","","","","","null","+","Fixation - short","","null","","","","","","","","","","","","",""
"","html-keyboard-response","477","622441","0.0-760.0","tbo7urpw","1500","1000","","","","","","","","","","","751","gfm","Inducer trial","","j","13","","true","","","j","1","RIGHT","","","","",""
"","html-keyboard-response","478","623952","0.0-763.0","tbo7urpw","1500","1000","","","","","","","","","","","null","+","Fixation - long","","null","","","","","","","","","","","","",""
"","html-keyboard-response","479","624956","0.0-764.0","tbo7urpw","1500","1000","","","","","","","","","","","1002","If ibg press LEFT | If cta press RIGHT","Inducer instructions",""," ","14","","","","","","","","","","","",""
"","html-keyboard-response","480","625719","0.0-765.0","tbo7urpw","1500","1000","","","","","","","","","","","null","+","Fixation - short","","null","","","","","","","","","","","","",""
"","html-keyboard-response","481","626550","0.0-766.0","tbo7urpw","1500","1000","","","","","","","","","","","829","cta","Diagnostic trial","","f","14","0","false","true","LEFT","f","1","","RIGHT","false","","",""
"","html-keyboard-response","482","627310","0.0-769.0","tbo7urpw","1500","1000","","","","","","","","","","","null","+","Fixation - short","","null","","","","","","","","","","","","",""
"","html-keyboard-response","483","627956","0.0-770.0","tbo7urpw","1500","1000","","","","","","","","","","","644","ibg","Diagnostic trial","","f","14","1","false","false","RIGHT","j","0","","LEFT","false","","",""
"","call-function","484","627957","0.0-772.0-0.0","tbo7urpw","","","","","","","","","","","","","","","","","","","","","","","","","","","","","",""
"","html-keyboard-response","485","628260","0.0-772.0-1.0","tbo7urpw","1500","1000","","","","","","","","","","","null","Wrong","Feedback","","null","","","","","","","","","","","","",""
"","call-function","486","628261","0.0-772.0-2.0","tbo7urpw","","","","","","","","","","","","","","","","","","","","","","","","","","","","","",""
"","html-keyboard-response","487","629025","0.0-773.0","tbo7urpw","1500","1000","","","","","","","","","","","null","+","Fixation - short","","null","","","","","","","","","","","","",""
"","html-keyboard-response","488","629623","0.0-774.0","tbo7urpw","1500","1000","","","","","","","","","","","595","cta","Diagnostic trial","","j","14","2","false","false","RIGHT","j","1","","RIGHT","true","","",""
"","html-keyboard-response","489","630384","0.0-777.0","tbo7urpw","1500","1000","","","","","","","","","","","null","+","Fixation - short","","null","","","","","","","","","","","","",""
"","html-keyboard-response","490","631001","0.0-778.0","tbo7urpw","1500","1000","","","","","","","","","","","613","ibg","Diagnostic trial","","f","14","3","false","true","LEFT","f","1","","LEFT","true","","",""
"","html-keyboard-response","491","631758","0.0-781.0","tbo7urpw","1500","1000","","","","","","","","","","","null","+","Fixation - short","","null","","","","","","","","","","","","",""
"","html-keyboard-response","492","632402","0.0-782.0","tbo7urpw","1500","1000","","","","","","","","","","","641","cta","Diagnostic trial","","j","14","4","false","false","RIGHT","j","1","","RIGHT","true","","",""
"","html-keyboard-response","493","633165","0.0-785.0","tbo7urpw","1500","1000","","","","","","","","","","","null","+","Fixation - short","","null","","","","","","","","","","","","",""
"","html-keyboard-response","494","633888","0.0-786.0","tbo7urpw","1500","1000","","","","","","","","","","","717","ibg","Diagnostic trial","","j","14","5","false","false","RIGHT","j","1","","LEFT","false","","",""
"","html-keyboard-response","495","634652","0.0-789.0","tbo7urpw","1500","1000","","","","","","","","","","","null","+","Fixation - short","","null","","","","","","","","","","","","",""
"","html-keyboard-response","496","635273","0.0-790.0","tbo7urpw","1500","1000","","","","","","","","","","","619","ibg","Diagnostic trial","","j","14","6","false","false","RIGHT","j","1","","LEFT","false","","",""
"","html-keyboard-response","497","636027","0.0-793.0","tbo7urpw","1500","1000","","","","","","","","","","","null","+","Fixation - short","","null","","","","","","","","","","","","",""
"","html-keyboard-response","498","636988","0.0-794.0","tbo7urpw","1500","1000","","","","","","","","","","","958","ibg","Inducer trial","","f","14","","true","","","f","1","LEFT","","","","",""
"","html-keyboard-response","499","638499","0.0-797.0","tbo7urpw","1500","1000","","","","","","","","","","","null","+","Fixation - long","","null","","","","","","","","","","","","",""
"","html-keyboard-response","500","656980","0.0-798.0","tbo7urpw","1500","1000","","","","","","","","","","","18480","If crf press LEFT | If jcr press RIGHT","Inducer instructions",""," ","15","","","","","","","","","","","",""
"","html-keyboard-response","501","657735","0.0-799.0","tbo7urpw","1500","1000","","","","","","","","","","","null","+","Fixation - short","","null","","","","","","","","","","","","",""
"","html-keyboard-response","502","658450","0.0-800.0","tbo7urpw","1500","1000","","","","","","","","","","","713","jcr","Diagnostic trial","","f","15","0","false","true","LEFT","f","1","","RIGHT","false","","",""
"","html-keyboard-response","503","659217","0.0-803.0","tbo7urpw","1500","1000","","","","","","","","","","","null","+","Fixation - short","","null","","","","","","","","","","","","",""
"","html-keyboard-response","504","659819","0.0-804.0","tbo7urpw","1500","1000","","","","","","","","","","","599","crf","Diagnostic trial","","f","15","1","false","true","LEFT","f","1","","LEFT","true","","",""
"","html-keyboard-response","505","660581","0.0-807.0","tbo7urpw","1500","1000","","","","","","","","","","","null","+","Fixation - short","","null","","","","","","","","","","","","",""
