"value","trial_type","trial_index","time_elapsed","internal_node_id","id","width","height","webaudio","browser","browser_version","mobile","os","fullscreen","vsync_rate","webcam","microphone","view_history","rt","stimulus","trial_info","success","response","inducer_run","diagnostic_run","inducer_trial","italic","correct_diag_response_side","correct_response_key","correct_response","correct_indu_response_side","correct_inducer_response_side","congruent","accuracy","open_feedback","interactive"
"","call-function","0","5","0.0-0.0","ntpnaz3y","","","","","","","","","","","","","","","","","","","","","","","","","","","","","",""
"","browser-check","1","998","0.0-1.0","ntpnaz3y","1100","617","true","chrome","120.0.0","false","Chrome OS","true","61.73","true","true","","","","","","","","","","","","","","","","","","",""
"","instructions","2","42200","0.0-2.0","ntpnaz3y","","","","","","","","","","","","[{""page_index"":0,""viewing_time"":18783},{""page_index"":1,""viewing_time"":16704},{""page_index"":2,""viewing_time"":5713}]","41201","The experiment and consent","The experiment and consent","","","","","","","","","","","","","","",""
"","fullscreen","3","50482","0.0-3.0","ntpnaz3y","1366","768","","","","","","","","","","","7278","","Full screen","true","","","","","","","","","","","","","",""
"","instructions","4","84038","0.0-4.0","ntpnaz3y","1366","768","","","","","","","","","","[{""page_index"":0,""viewing_time"":20186},{""page_index"":1,""viewing_time"":13367}]","33553","Instructions","Basic overview explanation","","","","","","","","","","","","","","",""
"","html-keyboard-response","5","94700","0.0-5.0","ntpnaz3y","1366","768","","","","","","","","","","","9156","If italic press LEFT | If upright press RIGHT","Diagnostic instructions",""," ","","","","","","","","","","","","",""
"","html-keyboard-response","6","95454","0.0-6.0","ntpnaz3y","1366","768","","","","","","","","","","","null","+","Fixation - short","","null","","","","","","","","","","","","",""
"","html-keyboard-response","7","96038","0.0-7.0","ntpnaz3y","1366","768","","","","","","","","","","","581","otr","Practice diganostic trial","","f","practice","0","false","0","RIGHT","j","0","","","","","",""
"","call-function","8","96045","0.0-9.0-0.0","ntpnaz3y","","","","","","","","","","","","","","","","","","","","","","","","","","","","","",""
"","html-keyboard-response","9","96348","0.0-9.0-1.0","ntpnaz3y","1366","768","","","","","","","","","","","null","Wrong","Feedback","","null","","","","","","","","","","","","",""
"","call-function","10","96350","0.0-9.0-2.0","ntpnaz3y","","","","","","","","","","","","","","","","","","","","","","","","","","","","","",""
"","html-keyboard-response","11","97103","0.0-10.0","ntpnaz3y","1366","768","","","","","","","","","","","null","+","Fixation - short","","null","","","","","","","","","","","","",""
"","html-keyboard-response","12","97603","0.0-11.0","ntpnaz3y","1366","768","","","","","","","","","","","497","otr","Practice diganostic trial","","j","practice","1","false","0","RIGHT","j","1","","","","","",""
"","html-keyboard-response","13","98355","0.0-14.0","ntpnaz3y","1366","768","","","","","","","","","","","null","+","Fixation - short","","null","","","","","","","","","","","","",""
"","html-keyboard-response","14","98817","0.0-15.0","ntpnaz3y","1366","768","","","","","","","","","","","460","otr","Practice diganostic trial","","j","practice","2","false","0","RIGHT","j","1","","","","","",""
"","html-keyboard-response","15","99570","0.0-18.0","ntpnaz3y","1366","768","","","","","","","","","","","null","+","Fixation - short","","null","","","","","","","","","","","","",""
"","html-keyboard-response","16","100022","0.0-19.0","ntpnaz3y","1366","768","","","","","","","","","","","448","otr","Practice diganostic trial","","j","practice","3","false","0","RIGHT","j","1","","","","","",""
"","html-keyboard-response","17","100775","0.0-22.0","ntpnaz3y","1366","768","","","","","","","","","","","null","+","Fixation - short","","null","","","","","","","","","","","","",""
"","html-keyboard-response","18","101255","0.0-23.0","ntpnaz3y","1366","768","","","","","","","","","","","478","cmj","Practice diganostic trial","","j","practice","4","false","0","RIGHT","j","1","","","","","",""
"","html-keyboard-response","19","102008","0.0-26.0","ntpnaz3y","1366","768","","","","","","","","","","","null","+","Fixation - short","","null","","","","","","","","","","","","",""
"","html-keyboard-response","20","102421","0.0-27.0","ntpnaz3y","1366","768","","","","","","","","","","","412","otr","Practice diganostic trial","","j","practice","5","false","0","RIGHT","j","1","","","","","",""
"","html-keyboard-response","21","103174","0.0-30.0","ntpnaz3y","1366","768","","","","","","","","","","","null","+","Fixation - short","","null","","","","","","","","","","","","",""
"","html-keyboard-response","22","103533","0.0-31.0","ntpnaz3y","1366","768","","","","","","","","","","","357","cmj","Practice diganostic trial","","j","practice","6","false","1","LEFT","f","0","","","","","",""
"","call-function","23","103534","0.0-33.0-0.0","ntpnaz3y","","","","","","","","","","","","","","","","","","","","","","","","","","","","","",""
"","html-keyboard-response","24","103836","0.0-33.0-1.0","ntpnaz3y","1366","768","","","","","","","","","","","null","Wrong","Feedback","","null","","","","","","","","","","","","",""
"","call-function","25","103838","0.0-33.0-2.0","ntpnaz3y","","","","","","","","","","","","","","","","","","","","","","","","","","","","","",""
"","html-keyboard-response","26","104590","0.0-34.0","ntpnaz3y","1366","768","","","","","","","","","","","null","+","Fixation - short","","null","","","","","","","","","","","","",""
"","html-keyboard-response","27","105182","0.0-35.0","ntpnaz3y","1366","768","","","","","","","","","","","590","cmj","Practice diganostic trial","","j","practice","7","false","1","LEFT","f","0","","","","","",""
"","call-function","28","105184","0.0-37.0-0.0","ntpnaz3y","","","","","","","","","","","","","","","","","","","","","","","","","","","","","",""
"","html-keyboard-response","29","105486","0.0-37.0-1.0","ntpnaz3y","1366","768","","","","","","","","","","","null","Wrong","Feedback","","null","","","","","","","","","","","","",""
"","call-function","30","105487","0.0-37.0-2.0","ntpnaz3y","","","","","","","","","","","","","","","","","","","","","","","","","","","","","",""
"","html-keyboard-response","31","106240","0.0-38.0","ntpnaz3y","1366","768","","","","","","","","","","","null","+","Fixation - short","","null","","","","","","","","","","","","",""
"","html-keyboard-response","32","106793","0.0-39.0","ntpnaz3y","1366","768","","","","","","","","","","","551","cmj","Practice diganostic trial","","j","practice","8","false","1","LEFT","f","0","","","","","",""
"","call-function","33","106794","0.0-41.0-0.0","ntpnaz3y","","","","","","","","","","","","","","","","","","","","","","","","","","","","","",""
"","html-keyboard-response","34","107096","0.0-41.0-1.0","ntpnaz3y","1366","768","","","","","","","","","","","null","Wrong","Feedback","","null","","","","","","","","","","","","",""
"","call-function","35","107097","0.0-41.0-2.0","ntpnaz3y","","","","","","","","","","","","","","","","","","","","","","","","","","","","","",""
"","html-keyboard-response","36","107849","0.0-42.0","ntpnaz3y","1366","768","","","","","","","","","","","null","+","Fixation - short","","null","","","","","","","","","","","","",""
"","html-keyboard-response","37","108595","0.0-43.0","ntpnaz3y","1366","768","","","","","","","","","","","743","cmj","Practice diganostic trial","","j","practice","9","false","0","RIGHT","j","1","","","","","",""
"","html-keyboard-response","38","109348","0.0-46.0","ntpnaz3y","1366","768","","","","","","","","","","","null","+","Fixation - short","","null","","","","","","","","","","","","",""
"","html-keyboard-response","39","110185","0.0-47.0","ntpnaz3y","1366","768","","","","","","","","","","","836","otr","Practice diganostic trial","","j","practice","10","false","1","LEFT","f","0","","","","","",""
"","call-function","40","110187","0.0-49.0-0.0","ntpnaz3y","","","","","","","","","","","","","","","","","","","","","","","","","","","","","",""
"","html-keyboard-response","41","110489","0.0-49.0-1.0","ntpnaz3y","1366","768","","","","","","","","","","","null","Wrong","Feedback","","null","","","","","","","","","","","","",""
"","call-function","42","110490","0.0-49.0-2.0","ntpnaz3y","","","","","","","","","","","","","","","","","","","","","","","","","","","","","",""
"","html-keyboard-response","43","111242","0.0-50.0","ntpnaz3y","1366","768","","","","","","","","","","","null","+","Fixation - short","","null","","","","","","","","","","","","",""
"","html-keyboard-response","44","111748","0.0-51.0","ntpnaz3y","1366","768","","","","","","","","","","","504","otr","Practice diganostic trial","","j","practice","11","false","0","RIGHT","j","1","","","","","",""
"","html-keyboard-response","45","112499","0.0-54.0","ntpnaz3y","1366","768","","","","","","","","","","","null","+","Fixation - short","","null","","","","","","","","","","","","",""
"","html-keyboard-response","46","113198","0.0-55.0","ntpnaz3y","1366","768","","","","","","","","","","","697","cmj","Practice diganostic trial","","f","practice","12","false","1","LEFT","f","1","","","","","",""
"","html-keyboard-response","47","113951","0.0-58.0","ntpnaz3y","1366","768","","","","","","","","","","","null","+","Fixation - short","","null","","","","","","","","","","","","",""
"","html-keyboard-response","48","114407","0.0-59.0","ntpnaz3y","1366","768","","","","","","","","","","","454","cmj","Practice diganostic trial","","f","practice","13","false","1","LEFT","f","1","","","","","",""
"","html-keyboard-response","49","115159","0.0-62.0","ntpnaz3y","1366","768","","","","","","","","","","","null","+","Fixation - short","","null","","","","","","","","","","","","",""
"","html-keyboard-response","50","115658","0.0-63.0","ntpnaz3y","1366","768","","","","","","","","","","","497","otr","Practice diganostic trial","","j","practice","14","false","1","LEFT","f","0","","","","","",""
"","call-function","51","115659","0.0-65.0-0.0","ntpnaz3y","","","","","","","","","","","","","","","","","","","","","","","","","","","","","",""
"","html-keyboard-response","52","115962","0.0-65.0-1.0","ntpnaz3y","1366","768","","","","","","","","","","","null","Wrong","Feedback","","null","","","","","","","","","","","","",""
"","call-function","53","115963","0.0-65.0-2.0","ntpnaz3y","","","","","","","","","","","","","","","","","","","","","","","","","","","","","",""
"","html-keyboard-response","54","116715","0.0-66.0","ntpnaz3y","1366","768","","","","","","","","","","","null","+","Fixation - short","","null","","","","","","","","","","","","",""
"","html-keyboard-response","55","117696","0.0-67.0","ntpnaz3y","1366","768","","","","","","","","","","","979","cmj","Practice diganostic trial","","f","practice","15","false","1","LEFT","f","1","","","","","",""
"","html-keyboard-response","56","118447","0.0-70.0","ntpnaz3y","1366","768","","","","","","","","","","","null","+","Fixation - short","","null","","","","","","","","","","","","",""
"","instructions","57","240698","0.0-71.0","ntpnaz3y","1366","768","","","","","","","","","","[{""page_index"":0,""viewing_time"":122249}]","122250","Instructions","Final experiment explanation","","","","","","","","","","","","","","",""
"","html-keyboard-response","58","262204","0.0-72.0","ntpnaz3y","1366","768","","","","","","","","","","","null","If hrc press LEFT | If pxv press RIGHT","Practice inducer instructions","","null","practice","","","","","","","","","","","",""
"","html-keyboard-response","59","263504","0.0-73.0","ntpnaz3y","1366","768","","","","","","","","","","","1297","","Practice inducer trial","","f","practice","","true","","","f","1","LEFT","","","","",""
"","html-keyboard-response","60","264257","0.0-76.0","ntpnaz3y","1366","768","","","","","","","","","","","null","+","Fixation - short","","null","","","","","","","","","","","","",""
"","html-keyboard-response","61","271894","0.0-77.0","ntpnaz3y","1366","768","","","","","","","","","","","7634","If cta press LEFT | If ecl press RIGHT","Practice inducer instructions",""," ","practice","","","","","","","","","","","",""
"","html-keyboard-response","62","272512","0.0-78.0","ntpnaz3y","1366","768","","","","","","","","","","","617","","Practice inducer trial","","f","practice","","true","","","f","1","LEFT","","","","",""
"","html-keyboard-response","63","273265","0.0-81.0","ntpnaz3y","1366","768","","","","","","","","","","","null","+","Fixation - short","","null","","","","","","","","","","","","",""
"","html-keyboard-response","64","275419","0.0-82.0","ntpnaz3y","1366","768","","","","","","","","","","","2153","If tkb press LEFT | If mmo press RIGHT","Practice inducer instructions",""," ","practice","","","","","","","","","","","",""
"","html-keyboard-response","65","276610","0.0-83.0","ntpnaz3y","1366","768","","","","","","","","","","","1188","","Practice inducer trial","","j","practice","","true","","","j","1","RIGHT","","","","",""
"","html-keyboard-response","66","277362","0.0-86.0","ntpnaz3y","1366","768","","","","","","","","","","","null","+","Fixation - short","","null","","","","","","","","","","","","",""
"","html-keyboard-response","67","281525","0.0-87.0","ntpnaz3y","1366","768","","","","","","","","","","","4161","If xlv press LEFT | If gdn press RIGHT","Practice inducer instructions",""," ","practice","","","","","","","","","","","",""
"","html-keyboard-response","68","282367","0.0-88.0","ntpnaz3y","1366","768","","","","","","","","","","","839","","Practice inducer trial","","j","practice","","true","","","j","1","RIGHT","","","","",""
"","html-keyboard-response","69","283118","0.0-91.0","ntpnaz3y","1366","768","","","","","","","","","","","null","+","Fixation - short","","null","","","","","","","","","","","","",""
"","html-keyboard-response","70","285090","0.0-92.0","ntpnaz3y","1366","768","","","","","","","","","","","1970","If hlb press LEFT | If epy press RIGHT","Practice inducer instructions",""," ","practice","","","","","","","","","","","",""
"","html-keyboard-response","71","286055","0.0-93.0","ntpnaz3y","1366","768","","","","","","","","","","","963","","Practice inducer trial","","j","practice","","true","","","j","1","RIGHT","","","","",""
"","html-keyboard-response","72","286808","0.0-96.0","ntpnaz3y","1366","768","","","","","","","","","","","null","+","Fixation - short","","null","","","","","","","","","","","","",""
"","html-keyboard-response","73","289745","0.0-97.0","ntpnaz3y","1366","768","","","","","","","","","","","2935","If ume press LEFT | If mik press RIGHT","Practice inducer instructions",""," ","practice","","","","","","","","","","","",""
"","html-keyboard-response","74","290442","0.0-98.0","ntpnaz3y","1366","768","","","","","","","","","","","695","","Practice inducer trial","","f","practice","","true","","","f","1","LEFT","","","","",""
"","html-keyboard-response","75","291195","0.0-101.0","ntpnaz3y","1366","768","","","","","","","","","","","null","+","Fixation - short","","null","","","","","","","","","","","","",""
"","html-keyboard-response","76","302394","0.0-102.0","ntpnaz3y","1366","768","","","","","","","","","","","11196","End practice","End of practice",""," ","","","","","","","","","","","","",""
"","html-keyboard-response","77","303897","0.0-103.0","ntpnaz3y","1366","768","","","","","","","","","","","null","+","Fixation - long","","null","","","","","","","","","","","","",""
"","html-keyboard-response","78","306148","0.0-104.0","ntpnaz3y","1366","768","","","","","","","","","","","2248","If gfm press LEFT | If afp press RIGHT","Inducer instructions",""," ","0","","","","","","","","","","","",""
"","html-keyboard-response","79","306900","0.0-105.0","ntpnaz3y","1366","768","","","","","","","","","","","null","+","Fixation - short","","null","","","","","","","","","","","","",""
"","html-keyboard-response","80","307289","0.0-106.0","ntpnaz3y","1366","768","","","","","","","","","","","387","gfm","Diagnostic trial","","f","0","0","false","true","LEFT","f","1","","LEFT","true","","",""
"","html-keyboard-response","81","308041","0.0-109.0","ntpnaz3y","1366","768","","","","","","","","","","","null","+","Fixation - short","","null","","","","","","","","","","","","",""
"","html-keyboard-response","82","308762","0.0-110.0","ntpnaz3y","1366","768","","","","","","","","","","","718","gfm","Diagnostic trial","","f","0","1","false","true","LEFT","f","1","","LEFT","true","","",""
"","html-keyboard-response","83","309514","0.0-113.0","ntpnaz3y","1366","768","","","","","","","","","","","null","+","Fixation - short","","null","","","","","","","","","","","","",""
"","html-keyboard-response","84","310446","0.0-114.0","ntpnaz3y","1366","768","","","","","","","","","","","930","gfm","Diagnostic trial","","j","0","2","false","false","RIGHT","j","1","","LEFT","false","","",""
"","html-keyboard-response","85","311199","0.0-117.0","ntpnaz3y","1366","768","","","","","","","","","","","null","+","Fixation - short","","null","","","","","","","","","","","","",""
"","html-keyboard-response","86","312728","0.0-118.0","ntpnaz3y","1366","768","","","","","","","","","","","1528","afp","Diagnostic trial","","j","0","3","false","false","RIGHT","j","1","","RIGHT","true","","",""
"","html-keyboard-response","87","313481","0.0-121.0","ntpnaz3y","1366","768","","","","","","","","","","","null","+","Fixation - short","","null","","","","","","","","","","","","",""
"","html-keyboard-response","88","314192","0.0-122.0","ntpnaz3y","1366","768","","","","","","","","","","","710","afp","Diagnostic trial","","j","0","4","false","false","RIGHT","j","1","","RIGHT","true","","",""
"","html-keyboard-response","89","314945","0.0-125.0","ntpnaz3y","1366","768","","","","","","","","","","","null","+","Fixation - short","","null","","","","","","","","","","","","",""
"","html-keyboard-response","90","315832","0.0-126.0","ntpnaz3y","1366","768","","","","","","","","","","","885","gfm","Diagnostic trial","","f","0","5","false","false","RIGHT","j","0","","LEFT","false","","",""
"","call-function","91","315833","0.0-128.0-0.0","ntpnaz3y","","","","","","","","","","","","","","","","","","","","","","","","","","","","","",""
"","html-keyboard-response","92","316135","0.0-128.0-1.0","ntpnaz3y","1366","768","","","","","","","","","","","null","Wrong","Feedback","","null","","","","","","","","","","","","",""
"","call-function","93","316137","0.0-128.0-2.0","ntpnaz3y","","","","","","","","","","","","","","","","","","","","","","","","","","","","","",""
"","html-keyboard-response","94","316889","0.0-129.0","ntpnaz3y","1366","768","","","","","","","","","","","null","+","Fixation - short","","null","","","","","","","","","","","","",""
"","html-keyboard-response","95","317573","0.0-130.0","ntpnaz3y","1366","768","","","","","","","","","","","682","afp","Diagnostic trial","","j","0","6","false","false","RIGHT","j","1","","RIGHT","true","","",""
"","html-keyboard-response","96","318325","0.0-133.0","ntpnaz3y","1366","768","","","","","","","","","","","null","+","Fixation - short","","null","","","","","","","","","","","","",""
"","html-keyboard-response","97","318822","0.0-134.0","ntpnaz3y","1366","768","","","","","","","","","","","494","afp","Diagnostic trial","","j","0","7","false","false","RIGHT","j","1","","RIGHT","true","","",""
"","html-keyboard-response","98","319574","0.0-137.0","ntpnaz3y","1366","768","","","","","","","","","","","null","+","Fixation - short","","null","","","","","","","","","","","","",""
"","html-keyboard-response","99","320722","0.0-138.0","ntpnaz3y","1366","768","","","","","","","","","","","1146","gfm","Diagnostic trial","","j","0","8","false","false","RIGHT","j","1","","LEFT","false","","",""
"","html-keyboard-response","100","321475","0.0-141.0","ntpnaz3y","1366","768","","","","","","","","","","","null","+","Fixation - short","","null","","","","","","","","","","","","",""
"","html-keyboard-response","101","322231","0.0-142.0","ntpnaz3y","1366","768","","","","","","","","","","","754","afp","Diagnostic trial","","j","0","9","false","false","RIGHT","j","1","","RIGHT","true","","",""
"","html-keyboard-response","102","322984","0.0-145.0","ntpnaz3y","1366","768","","","","","","","","","","","null","+","Fixation - short","","null","","","","","","","","","","","","",""
"","html-keyboard-response","103","324098","0.0-146.0","ntpnaz3y","1366","768","","","","","","","","","","","1112","afp","Diagnostic trial","","f","0","10","false","true","LEFT","f","1","","RIGHT","false","","",""
"","html-keyboard-response","104","324850","0.0-149.0","ntpnaz3y","1366","768","","","","","","","","","","","null","+","Fixation - short","","null","","","","","","","","","","","","",""
"","html-keyboard-response","105","325691","0.0-150.0","ntpnaz3y","1366","768","","","","","","","","","","","839","afp","Diagnostic trial","","j","0","11","false","false","RIGHT","j","1","","RIGHT","true","","",""
"","html-keyboard-response","106","326443","0.0-153.0","ntpnaz3y","1366","768","","","","","","","","","","","null","+","Fixation - short","","null","","","","","","","","","","","","",""
"","html-keyboard-response","107","327179","0.0-154.0","ntpnaz3y","1366","768","","","","","","","","","","","733","afp","Diagnostic trial","","f","0","12","false","true","LEFT","f","1","","RIGHT","false","","",""
"","html-keyboard-response","108","327932","0.0-157.0","ntpnaz3y","1366","768","","","","","","","","","","","null","+","Fixation - short","","null","","","","","","","","","","","","",""
"","html-keyboard-response","109","328431","0.0-158.0","ntpnaz3y","1366","768","","","","","","","","","","","497","gfm","Diagnostic trial","","f","0","13","false","true","LEFT","f","1","","LEFT","true","","",""
"","html-keyboard-response","110","329184","0.0-161.0","ntpnaz3y","1366","768","","","","","","","","","","","null","+","Fixation - short","","null","","","","","","","","","","","","",""
"","html-keyboard-response","111","330059","0.0-162.0","ntpnaz3y","1366","768","","","","","","","","","","","872","afp","Diagnostic trial","","j","0","14","false","false","RIGHT","j","1","","RIGHT","true","","",""
"","html-keyboard-response","112","330811","0.0-165.0","ntpnaz3y","1366","768","","","","","","","","","","","null","+","Fixation - short","","null","","","","","","","","","","","","",""
"","html-keyboard-response","113","332364","0.0-166.0","ntpnaz3y","1366","768","","","","","","","","","","","1548","gfm","Inducer trial","","f","0","","true","","","f","1","LEFT","","","","",""
"","html-keyboard-response","114","333866","0.0-169.0","ntpnaz3y","1366","768","","","","","","","","","","","null","+","Fixation - long","","null","","","","","","","","","","","","",""
"","html-keyboard-response","115","337471","0.0-170.0","ntpnaz3y","1366","768","","","","","","","","","","","3602","If glp press LEFT | If ori press RIGHT","Inducer instructions",""," ","1","","","","","","","","","","","",""
"","html-keyboard-response","116","338224","0.0-171.0","ntpnaz3y","1366","768","","","","","","","","","","","null","+","Fixation - short","","null","","","","","","","","","","","","",""
"","html-keyboard-response","117","339309","0.0-172.0","ntpnaz3y","1366","768","","","","","","","","","","","1083","glp","Diagnostic trial","","j","1","0","false","false","RIGHT","j","1","","LEFT","false","","",""
"","html-keyboard-response","118","340061","0.0-175.0","ntpnaz3y","1366","768","","","","","","","","","","","null","+","Fixation - short","","null","","","","","","","","","","","","",""
"","html-keyboard-response","119","340760","0.0-176.0","ntpnaz3y","1366","768","","","","","","","","","","","696","glp","Diagnostic trial","","f","1","1","false","true","LEFT","f","1","","LEFT","true","","",""
"","html-keyboard-response","120","341512","0.0-179.0","ntpnaz3y","1366","768","","","","","","","","","","","null","+","Fixation - short","","null","","","","","","","","","","","","",""
"","html-keyboard-response","121","342593","0.0-180.0","ntpnaz3y","1366","768","","","","","","","","","","","1078","ori","Diagnostic trial","","f","1","2","false","true","LEFT","f","1","","RIGHT","false","","",""
"","html-keyboard-response","122","343345","0.0-183.0","ntpnaz3y","1366","768","","","","","","","","","","","null","+","Fixation - short","","null","","","","","","","","","","","","",""
"","html-keyboard-response","123","344056","0.0-184.0","ntpnaz3y","1366","768","","","","","","","","","","","708","ori","Diagnostic trial","","f","1","3","false","true","LEFT","f","1","","RIGHT","false","","",""
"","html-keyboard-response","124","344808","0.0-187.0","ntpnaz3y","1366","768","","","","","","","","","","","null","+","Fixation - short","","null","","","","","","","","","","","","",""
"","html-keyboard-response","125","345610","0.0-188.0","ntpnaz3y","1366","768","","","","","","","","","","","800","glp","Diagnostic trial","","f","1","4","false","true","LEFT","f","1","","LEFT","true","","",""
"","html-keyboard-response","126","346363","0.0-191.0","ntpnaz3y","1366","768","","","","","","","","","","","null","+","Fixation - short","","null","","","","","","","","","","","","",""
"","html-keyboard-response","127","347365","0.0-192.0","ntpnaz3y","1366","768","","","","","","","","","","","1000","ori","Diagnostic trial","","j","1","5","false","false","RIGHT","j","1","","RIGHT","true","","",""
"","html-keyboard-response","128","348117","0.0-195.0","ntpnaz3y","1366","768","","","","","","","","","","","null","+","Fixation - short","","null","","","","","","","","","","","","",""
"","html-keyboard-response","129","349725","0.0-196.0","ntpnaz3y","1366","768","","","","","","","","","","","1606","ori","Inducer trial","","j","1","","true","","","j","1","RIGHT","","","","",""
"","html-keyboard-response","130","351227","0.0-199.0","ntpnaz3y","1366","768","","","","","","","","","","","null","+","Fixation - long","","null","","","","","","","","","","","","",""
"","html-keyboard-response","131","357572","0.0-200.0","ntpnaz3y","1366","768","","","","","","","","","","","6342","If pph press LEFT | If prg press RIGHT","Inducer instructions",""," ","2","","","","","","","","","","","",""
"","html-keyboard-response","132","358324","0.0-201.0","ntpnaz3y","1366","768","","","","","","","","","","","null","+","Fixation - short","","null","","","","","","","","","","","","",""
"","html-keyboard-response","133","359151","0.0-202.0","ntpnaz3y","1366","768","","","","","","","","","","","825","pph","Diagnostic trial","","f","2","0","false","true","LEFT","f","1","","LEFT","true","","",""
"","html-keyboard-response","134","359904","0.0-205.0","ntpnaz3y","1366","768","","","","","","","","","","","null","+","Fixation - short","","null","","","","","","","","","","","","",""
"","html-keyboard-response","135","360606","0.0-206.0","ntpnaz3y","1366","768","","","","","","","","","","","700","prg","Diagnostic trial","","f","2","1","false","true","LEFT","f","1","","RIGHT","false","","",""
"","html-keyboard-response","136","361358","0.0-209.0","ntpnaz3y","1366","768","","","","","","","","","","","null","+","Fixation - short","","null","","","","","","","","","","","","",""
"","html-keyboard-response","137","362275","0.0-210.0","ntpnaz3y","1366","768","","","","","","","","","","","915","pph","Diagnostic trial","","j","2","2","false","false","RIGHT","j","1","","LEFT","false","","",""
"","html-keyboard-response","138","363027","0.0-213.0","ntpnaz3y","1366","768","","","","","","","","","","","null","+","Fixation - short","","null","","","","","","","","","","","","",""
"","html-keyboard-response","139","363721","0.0-214.0","ntpnaz3y","1366","768","","","","","","","","","","","691","pph","Diagnostic trial","","f","2","3","false","true","LEFT","f","1","","LEFT","true","","",""
"","html-keyboard-response","140","364473","0.0-217.0","ntpnaz3y","1366","768","","","","","","","","","","","null","+","Fixation - short","","null","","","","","","","","","","","","",""
"","html-keyboard-response","141","365046","0.0-218.0","ntpnaz3y","1366","768","","","","","","","","","","","571","pph","Inducer trial","","f","2","","true","","","f","1","LEFT","","","","",""
"","html-keyboard-response","142","366549","0.0-221.0","ntpnaz3y","1366","768","","","","","","","","","","","null","+","Fixation - long","","null","","","","","","","","","","","","",""
"","html-keyboard-response","143","369098","0.0-222.0","ntpnaz3y","1366","768","","","","","","","","","","","2547","If rrd press LEFT | If cer press RIGHT","Inducer instructions",""," ","3","","","","","","","","","","","",""
"","html-keyboard-response","144","369851","0.0-223.0","ntpnaz3y","1366","768","","","","","","","","","","","null","+","Fixation - short","","null","","","","","","","","","","","","",""
"","html-keyboard-response","145","370537","0.0-224.0","ntpnaz3y","1366","768","","","","","","","","","","","684","rrd","Diagnostic trial","","j","3","0","false","true","LEFT","f","0","","LEFT","true","","",""
"","call-function","146","370538","0.0-226.0-0.0","ntpnaz3y","","","","","","","","","","","","","","","","","","","","","","","","","","","","","",""
"","html-keyboard-response","147","370840","0.0-226.0-1.0","ntpnaz3y","1366","768","","","","","","","","","","","null","Wrong","Feedback","","null","","","","","","","","","","","","",""
"","call-function","148","370841","0.0-226.0-2.0","ntpnaz3y","","","","","","","","","","","","","","","","","","","","","","","","","","","","","",""
"","html-keyboard-response","149","371593","0.0-227.0","ntpnaz3y","1366","768","","","","","","","","","","","null","+","Fixation - short","","null","","","","","","","","","","","","",""
"","html-keyboard-response","150","372373","0.0-228.0","ntpnaz3y","1366","768","","","","","","","","","","","778","rrd","Diagnostic trial","","f","3","1","false","true","LEFT","f","1","","LEFT","true","","",""
"","html-keyboard-response","151","373125","0.0-231.0","ntpnaz3y","1366","768","","","","","","","","","","","null","+","Fixation - short","","null","","","","","","","","","","","","",""
"","html-keyboard-response","152","374074","0.0-232.0","ntpnaz3y","1366","768","","","","","","","","","","","946","cer","Diagnostic trial","","f","3","2","false","true","LEFT","f","1","","RIGHT","false","","",""
"","html-keyboard-response","153","374826","0.0-235.0","ntpnaz3y","1366","768","","","","","","","","","","","null","+","Fixation - short","","null","","","","","","","","","","","","",""
"","html-keyboard-response","154","375708","0.0-236.0","ntpnaz3y","1366","768","","","","","","","","","","","880","rrd","Diagnostic trial","","j","3","3","false","false","RIGHT","j","1","","LEFT","false","","",""
"","html-keyboard-response","155","376460","0.0-239.0","ntpnaz3y","1366","768","","","","","","","","","","","null","+","Fixation - short","","null","","","","","","","","","","","","",""
"","html-keyboard-response","156","377292","0.0-240.0","ntpnaz3y","1366","768","","","","","","","","","","","830","cer","Diagnostic trial","","j","3","4","false","false","RIGHT","j","1","","RIGHT","true","","",""
"","html-keyboard-response","157","378045","0.0-243.0","ntpnaz3y","1366","768","","","","","","","","","","","null","+","Fixation - short","","null","","","","","","","","","","","","",""
"","html-keyboard-response","158","378871","0.0-244.0","ntpnaz3y","1366","768","","","","","","","","","","","824","rrd","Diagnostic trial","","f","3","5","false","true","LEFT","f","1","","LEFT","true","","",""
"","html-keyboard-response","159","379623","0.0-247.0","ntpnaz3y","1366","768","","","","","","","","","","","null","+","Fixation - short","","null","","","","","","","","","","","","",""
"","html-keyboard-response","160","380255","0.0-248.0","ntpnaz3y","1366","768","","","","","","","","","","","630","cer","Diagnostic trial","","j","3","6","false","false","RIGHT","j","1","","RIGHT","true","","",""
"","html-keyboard-response","161","381007","0.0-251.0","ntpnaz3y","1366","768","","","","","","","","","","","null","+","Fixation - short","","null","","","","","","","","","","","","",""
"","html-keyboard-response","162","381990","0.0-252.0","ntpnaz3y","1366","768","","","","","","","","","","","982","rrd","Diagnostic trial","","j","3","7","false","false","RIGHT","j","1","","LEFT","false","","",""
"","html-keyboard-response","163","382743","0.0-255.0","ntpnaz3y","1366","768","","","","","","","","","","","null","+","Fixation - short","","null","","","","","","","","","","","","",""
"","html-keyboard-response","164","383487","0.0-256.0","ntpnaz3y","1366","768","","","","","","","","","","","742","rrd","Diagnostic trial","","f","3","8","false","true","LEFT","f","1","","LEFT","true","","",""
"","html-keyboard-response","165","384240","0.0-259.0","ntpnaz3y","1366","768","","","","","","","","","","","null","+","Fixation - short","","null","","","","","","","","","","","","",""
"","html-keyboard-response","166","385063","0.0-260.0","ntpnaz3y","1366","768","","","","","","","","","","","821","cer","Diagnostic trial","","j","3","9","false","false","RIGHT","j","1","","RIGHT","true","","",""
"","html-keyboard-response","167","385815","0.0-263.0","ntpnaz3y","1366","768","","","","","","","","","","","null","+","Fixation - short","","null","","","","","","","","","","","","",""
"","html-keyboard-response","168","386435","0.0-264.0","ntpnaz3y","1366","768","","","","","","","","","","","619","rrd","Diagnostic trial","","f","3","10","false","true","LEFT","f","1","","LEFT","true","","",""
"","html-keyboard-response","169","387188","0.0-267.0","ntpnaz3y","1366","768","","","","","","","","","","","null","+","Fixation - short","","null","","","","","","","","","","","","",""
"","html-keyboard-response","170","388030","0.0-268.0","ntpnaz3y","1366","768","","","","","","","","","","","840","rrd","Diagnostic trial","","j","3","11","false","false","RIGHT","j","1","","LEFT","false","","",""
"","html-keyboard-response","171","388782","0.0-271.0","ntpnaz3y","1366","768","","","","","","","","","","","null","+","Fixation - short","","null","","","","","","","","","","","","",""
"","html-keyboard-response","172","389405","0.0-272.0","ntpnaz3y","1366","768","","","","","","","","","","","620","rrd","Diagnostic trial","","f","3","12","false","true","LEFT","f","1","","LEFT","true","","",""
"","html-keyboard-response","173","390158","0.0-275.0","ntpnaz3y","1366","768","","","","","","","","","","","null","+","Fixation - short","","null","","","","","","","","","","","","",""
"","html-keyboard-response","174","390862","0.0-276.0","ntpnaz3y","1366","768","","","","","","","","","","","701","rrd","Diagnostic trial","","f","3","13","false","true","LEFT","f","1","","LEFT","true","","",""
"","html-keyboard-response","175","391614","0.0-279.0","ntpnaz3y","1366","768","","","","","","","","","","","null","+","Fixation - short","","null","","","","","","","","","","","","",""
"","html-keyboard-response","176","392628","0.0-280.0","ntpnaz3y","1366","768","","","","","","","","","","","1013","cer","Inducer trial","","f","3","","true","","","j","0","RIGHT","","","","",""
"","call-function","177","392633","0.0-282.0-0.0","ntpnaz3y","","","","","","","","","","","","","","","","","","","","","","","","","","","","","",""
"","html-keyboard-response","178","392935","0.0-282.0-1.0","ntpnaz3y","1366","768","","","","","","","","","","","null","Wrong","Feedback","","null","","","","","","","","","","","","",""
"","call-function","179","392936","0.0-282.0-2.0","ntpnaz3y","","","","","","","","","","","","","","","","","","","","","","","","","","","","","",""
"","html-keyboard-response","180","394438","0.0-283.0","ntpnaz3y","1366","768","","","","","","","","","","","null","+","Fixation - long","","null","","","","","","","","","","","","",""
"","html-keyboard-response","181","398992","0.0-284.0","ntpnaz3y","1366","768","","","","","","","","","","","4550","If zpl press LEFT | If jcr press RIGHT","Inducer instructions",""," ","4","","","","","","","","","","","",""
"","html-keyboard-response","182","399744","0.0-285.0","ntpnaz3y","1366","768","","","","","","","","","","","null","+","Fixation - short","","null","","","","","","","","","","","","",""
"","html-keyboard-response","183","400490","0.0-286.0","ntpnaz3y","1366","768","","","","","","","","","","","744","jcr","Diagnostic trial","","f","4","0","false","true","LEFT","f","1","","RIGHT","false","","",""
"","html-keyboard-response","184","401243","0.0-289.0","ntpnaz3y","1366","768","","","","","","","","","","","null","+","Fixation - short","","null","","","","","","","","","","","","",""
"","html-keyboard-response","185","402413","0.0-290.0","ntpnaz3y","1366","768","","","","","","","","","","","1168","zpl","Diagnostic trial","","j","4","1","false","false","RIGHT","j","1","","LEFT","false","","",""
"","html-keyboard-response","186","403165","0.0-293.0","ntpnaz3y","1366","768","","","","","","","","","","","null","+","Fixation - short","","null","","","","","","","","","","","","",""
"","html-keyboard-response","187","404019","0.0-294.0","ntpnaz3y","1366","768","","","","","","","","","","","852","zpl","Diagnostic trial","","j","4","2","false","false","RIGHT","j","1","","LEFT","false","","",""
"","html-keyboard-response","188","404771","0.0-297.0","ntpnaz3y","1366","768","","","","","","","","","","","null","+","Fixation - short","","null","","","","","","","","","","","","",""
"","html-keyboard-response","189","405478","0.0-298.0","ntpnaz3y","1366","768","","","","","","","","","","","705","jcr","Diagnostic trial","","f","4","3","false","true","LEFT","f","1","","RIGHT","false","","",""
"","html-keyboard-response","190","406231","0.0-301.0","ntpnaz3y","1366","768","","","","","","","","","","","null","+","Fixation - short","","null","","","","","","","","","","","","",""
"","html-keyboard-response","191","406924","0.0-302.0","ntpnaz3y","1366","768","","","","","","","","","","","690","jcr","Diagnostic trial","","j","4","4","false","false","RIGHT","j","1","","RIGHT","true","","",""
"","html-keyboard-response","192","407676","0.0-305.0","ntpnaz3y","1366","768","","","","","","","","","","","null","+","Fixation - short","","null","","","","","","","","","","","","",""
"","html-keyboard-response","193","408349","0.0-306.0","ntpnaz3y","1366","768","","","","","","","","","","","671","zpl","Diagnostic trial","","f","4","5","false","true","LEFT","f","1","","LEFT","true","","",""
"","html-keyboard-response","194","409101","0.0-309.0","ntpnaz3y","1366","768","","","","","","","","","","","null","+","Fixation - short","","null","","","","","","","","","","","","",""
"","html-keyboard-response","195","409778","0.0-310.0","ntpnaz3y","1366","768","","","","","","","","","","","675","zpl","Diagnostic trial","","j","4","6","false","false","RIGHT","j","1","","LEFT","false","","",""
"","html-keyboard-response","196","410531","0.0-313.0","ntpnaz3y","1366","768","","","","","","","","","","","null","+","Fixation - short","","null","","","","","","","","","","","","",""
"","html-keyboard-response","197","411338","0.0-314.0","ntpnaz3y","1366","768","","","","","","","","","","","804","jcr","Diagnostic trial","","f","4","7","false","true","LEFT","f","1","","RIGHT","false","","",""
"","html-keyboard-response","198","412090","0.0-317.0","ntpnaz3y","1366","768","","","","","","","","","","","null","+","Fixation - short","","null","","","","","","","","","","","","",""
"","html-keyboard-response","199","412807","0.0-318.0","ntpnaz3y","1366","768","","","","","","","","","","","715","jcr","Diagnostic trial","","f","4","8","false","true","LEFT","f","1","","RIGHT","false","","",""
"","html-keyboard-response","200","413559","0.0-321.0","ntpnaz3y","1366","768","","","","","","","","","","","null","+","Fixation - short","","null","","","","","","","","","","","","",""
"","html-keyboard-response","201","414089","0.0-322.0","ntpnaz3y","1366","768","","","","","","","","","","","527","zpl","Diagnostic trial","","j","4","9","false","false","RIGHT","j","1","","LEFT","false","","",""
"","html-keyboard-response","202","414841","0.0-325.0","ntpnaz3y","1366","768","","","","","","","","","","","null","+","Fixation - short","","null","","","","","","","","","","","","",""
"","html-keyboard-response","203","415488","0.0-326.0","ntpnaz3y","1366","768","","","","","","","","","","","645","zpl","Diagnostic trial","","j","4","10","false","false","RIGHT","j","1","","LEFT","false","","",""
"","html-keyboard-response","204","416240","0.0-329.0","ntpnaz3y","1366","768","","","","","","","","","","","null","+","Fixation - short","","null","","","","","","","","","","","","",""
"","html-keyboard-response","205","416836","0.0-330.0","ntpnaz3y","1366","768","","","","","","","","","","","593","zpl","Diagnostic trial","","j","4","11","false","false","RIGHT","j","1","","LEFT","false","","",""
"","html-keyboard-response","206","417588","0.0-333.0","ntpnaz3y","1366","768","","","","","","","","","","","null","+","Fixation - short","","null","","","","","","","","","","","","",""
"","html-keyboard-response","207","418229","0.0-334.0","ntpnaz3y","1366","768","","","","","","","","","","","639","zpl","Diagnostic trial","","f","4","12","false","true","LEFT","f","1","","LEFT","true","","",""
"","html-keyboard-response","208","418981","0.0-337.0","ntpnaz3y","1366","768","","","","","","","","","","","null","+","Fixation - short","","null","","","","","","","","","","","","",""
"","html-keyboard-response","209","419608","0.0-338.0","ntpnaz3y","1366","768","","","","","","","","","","","624","zpl","Diagnostic trial","","f","4","13","false","true","LEFT","f","1","","LEFT","true","","",""
"","html-keyboard-response","210","420360","0.0-341.0","ntpnaz3y","1366","768","","","","","","","","","","","null","+","Fixation - short","","null","","","","","","","","","","","","",""
"","html-keyboard-response","211","421123","0.0-342.0","ntpnaz3y","1366","768","","","","","","","","","","","760","zpl","Inducer trial","","f","4","","true","","","f","1","LEFT","","","","",""
"","html-keyboard-response","212","422625","0.0-345.0","ntpnaz3y","1366","768","","","","","","","","","","","null","+","Fixation - long","","null","","","","","","","","","","","","",""
"","html-keyboard-response","213","426208","0.0-346.0","ntpnaz3y","1366","768","","","","","","","","","","","3581","If aor press LEFT | If edc press RIGHT","Inducer instructions",""," ","5","","","","","","","","","","","",""
"","html-keyboard-response","214","426961","0.0-347.0","ntpnaz3y","1366","768","","","","","","","","","","","null","+","Fixation - short","","null","","","","","","","","","","","","",""
"","html-keyboard-response","215","427753","0.0-348.0","ntpnaz3y","1366","768","","","","","","","","","","","790","edc","Diagnostic trial","","j","5","0","false","false","RIGHT","j","1","","RIGHT","true","","",""
"","html-keyboard-response","216","428505","0.0-351.0","ntpnaz3y","1366","768","","","","","","","","","","","null","+","Fixation - short","","null","","","","","","","","","","","","",""
"","html-keyboard-response","217","429222","0.0-352.0","ntpnaz3y","1366","768","","","","","","","","","","","716","aor","Diagnostic trial","","f","5","1","false","true","LEFT","f","1","","LEFT","true","","",""
"","html-keyboard-response","218","429974","0.0-355.0","ntpnaz3y","1366","768","","","","","","","","","","","null","+","Fixation - short","","null","","","","","","","","","","","","",""
"","html-keyboard-response","219","430854","0.0-356.0","ntpnaz3y","1366","768","","","","","","","","","","","878","edc","Diagnostic trial","","j","5","2","false","false","RIGHT","j","1","","RIGHT","true","","",""
"","html-keyboard-response","220","431606","0.0-359.0","ntpnaz3y","1366","768","","","","","","","","","","","null","+","Fixation - short","","null","","","","","","","","","","","","",""
"","html-keyboard-response","221","432887","0.0-360.0","ntpnaz3y","1366","768","","","","","","","","","","","1278","aor","Diagnostic trial","","j","5","3","false","false","RIGHT","j","1","","LEFT","false","","",""
"","html-keyboard-response","222","433639","0.0-363.0","ntpnaz3y","1366","768","","","","","","","","","","","null","+","Fixation - short","","null","","","","","","","","","","","","",""
"","html-keyboard-response","223","434317","0.0-364.0","ntpnaz3y","1366","768","","","","","","","","","","","676","edc","Diagnostic trial","","f","5","4","false","true","LEFT","f","1","","RIGHT","false","","",""
"","html-keyboard-response","224","435069","0.0-367.0","ntpnaz3y","1366","768","","","","","","","","","","","null","+","Fixation - short","","null","","","","","","","","","","","","",""
"","html-keyboard-response","225","435822","0.0-368.0","ntpnaz3y","1366","768","","","","","","","","","","","750","aor","Diagnostic trial","","j","5","5","false","false","RIGHT","j","1","","LEFT","false","","",""
"","html-keyboard-response","226","436574","0.0-371.0","ntpnaz3y","1366","768","","","","","","","","","","","null","+","Fixation - short","","null","","","","","","","","","","","","",""
"","html-keyboard-response","227","437371","0.0-372.0","ntpnaz3y","1366","768","","","","","","","","","","","795","edc","Diagnostic trial","","f","5","6","false","true","LEFT","f","1","","RIGHT","false","","",""
"","html-keyboard-response","228","438125","0.0-375.0","ntpnaz3y","1366","768","","","","","","","","","","","null","+","Fixation - short","","null","","","","","","","","","","","","",""
"","html-keyboard-response","229","439597","0.0-376.0","ntpnaz3y","1366","768","","","","","","","","","","","1470","edc","Diagnostic trial","","f","5","7","false","true","LEFT","f","1","","RIGHT","false","","",""
"","html-keyboard-response","230","440350","0.0-379.0","ntpnaz3y","1366","768","","","","","","","","","","","null","+","Fixation - short","","null","","","","","","","","","","","","",""
"","html-keyboard-response","231","441214","0.0-380.0","ntpnaz3y","1366","768","","","","","","","","","","","862","edc","Diagnostic trial","","f","5","8","false","true","LEFT","f","1","","RIGHT","false","","",""
"","html-keyboard-response","232","441966","0.0-383.0","ntpnaz3y","1366","768","","","","","","","","","","","null","+","Fixation - short","","null","","","","","","","","","","","","",""
"","html-keyboard-response","233","442767","0.0-384.0","ntpnaz3y","1366","768","","","","","","","","","","","799","aor","Diagnostic trial","","f","5","9","false","true","LEFT","f","1","","LEFT","true","","",""
"","html-keyboard-response","234","443520","0.0-387.0","ntpnaz3y","1366","768","","","","","","","","","","","null","+","Fixation - short","","null","","","","","","","","","","","","",""
"","html-keyboard-response","235","444363","0.0-388.0","ntpnaz3y","1366","768","","","","","","","","","","","841","aor","Diagnostic trial","","j","5","10","false","false","RIGHT","j","1","","LEFT","false","","",""
"","html-keyboard-response","236","445115","0.0-391.0","ntpnaz3y","1366","768","","","","","","","","","","","null","+","Fixation - short","","null","","","","","","","","","","","","",""
"","html-keyboard-response","237","445631","0.0-392.0","ntpnaz3y","1366","768","","","","","","","","","","","513","aor","Diagnostic trial","","j","5","11","false","false","RIGHT","j","1","","LEFT","false","","",""
"","html-keyboard-response","238","446383","0.0-395.0","ntpnaz3y","1366","768","","","","","","","","","","","null","+","Fixation - short","","null","","","","","","","","","","","","",""
"","html-keyboard-response","239","446841","0.0-396.0","ntpnaz3y","1366","768","","","","","","","","","","","456","aor","Diagnostic trial","","j","5","12","false","true","LEFT","f","0","","LEFT","true","","",""
"","call-function","240","446842","0.0-398.0-0.0","ntpnaz3y","","","","","","","","","","","","","","","","","","","","","","","","","","","","","",""
"","html-keyboard-response","241","447144","0.0-398.0-1.0","ntpnaz3y","1366","768","","","","","","","","","","","null","Wrong","Feedback","","null","","","","","","","","","","","","",""
"","call-function","242","447145","0.0-398.0-2.0","ntpnaz3y","","","","","","","","","","","","","","","","","","","","","","","","","","","","","",""
"","html-keyboard-response","243","447897","0.0-399.0","ntpnaz3y","1366","768","","","","","","","","","","","null","+","Fixation - short","","null","","","","","","","","","","","","",""
"","html-keyboard-response","244","449524","0.0-400.0","ntpnaz3y","1366","768","","","","","","","","","","","1625","edc","Diagnostic trial","","j","5","13","false","false","RIGHT","j","1","","RIGHT","true","","",""
"","html-keyboard-response","245","450279","0.0-403.0","ntpnaz3y","1366","768","","","","","","","","","","","null","+","Fixation - short","","null","","","","","","","","","","","","",""
"","html-keyboard-response","246","451005","0.0-404.0","ntpnaz3y","1366","768","","","","","","","","","","","724","edc","Diagnostic trial","","f","5","14","false","true","LEFT","f","1","","RIGHT","false","","",""
"","html-keyboard-response","247","451757","0.0-407.0","ntpnaz3y","1366","768","","","","","","","","","","","null","+","Fixation - short","","null","","","","","","","","","","","","",""
"","html-keyboard-response","248","452733","0.0-408.0","ntpnaz3y","1366","768","","","","","","","","","","","974","edc","Inducer trial","","f","5","","true","","","j","0","RIGHT","","","","",""
"","call-function","249","452734","0.0-410.0-0.0","ntpnaz3y","","","","","","","","","","","","","","","","","","","","","","","","","","","","","",""
"","html-keyboard-response","250","453037","0.0-410.0-1.0","ntpnaz3y","1366","768","","","","","","","","","","","null","Wrong","Feedback","","null","","","","","","","","","","","","",""
"","call-function","251","453038","0.0-410.0-2.0","ntpnaz3y","","","","","","","","","","","","","","","","","","","","","","","","","","","","","",""
"","html-keyboard-response","252","454540","0.0-411.0","ntpnaz3y","1366","768","","","","","","","","","","","null","+","Fixation - long","","null","","","","","","","","","","","","",""
"","html-keyboard-response","253","464563","0.0-412.0","ntpnaz3y","1366","768","","","","","","","","","","","10021","If idy press LEFT | If lff press RIGHT","Inducer instructions",""," ","6","","","","","","","","","","","",""
"","html-keyboard-response","254","465315","0.0-413.0","ntpnaz3y","1366","768","","","","","","","","","","","null","+","Fixation - short","","null","","","","","","","","","","","","",""
"","html-keyboard-response","255","466594","0.0-414.0","ntpnaz3y","1366","768","","","","","","","","","","","1276","idy","Diagnostic trial","","j","6","0","false","false","RIGHT","j","1","","LEFT","false","","",""
"","html-keyboard-response","256","467346","0.0-417.0","ntpnaz3y","1366","768","","","","","","","","","","","null","+","Fixation - short","","null","","","","","","","","","","","","",""
"","html-keyboard-response","257","467861","0.0-418.0","ntpnaz3y","1366","768","","","","","","","","","","","514","idy","Diagnostic trial","","j","6","1","false","false","RIGHT","j","1","","LEFT","false","","",""
"","html-keyboard-response","258","468614","0.0-421.0","ntpnaz3y","1366","768","","","","","","","","","","","null","+","Fixation - short","","null","","","","","","","","","","","","",""
"","html-keyboard-response","259","469313","0.0-422.0","ntpnaz3y","1366","768","","","","","","","","","","","698","idy","Diagnostic trial","","f","6","2","false","true","LEFT","f","1","","LEFT","true","","",""
"","html-keyboard-response","260","470066","0.0-425.0","ntpnaz3y","1366","768","","","","","","","","","","","null","+","Fixation - short","","null","","","","","","","","","","","","",""
"","html-keyboard-response","261","470803","0.0-426.0","ntpnaz3y","1366","768","","","","","","","","","","","735","lff","Diagnostic trial","","f","6","3","false","true","LEFT","f","1","","RIGHT","false","","",""
"","html-keyboard-response","262","471554","0.0-429.0","ntpnaz3y","1366","768","","","","","","","","","","","null","+","Fixation - short","","null","","","","","","","","","","","","",""
"","html-keyboard-response","263","472292","0.0-430.0","ntpnaz3y","1366","768","","","","","","","","","","","736","lff","Diagnostic trial","","j","6","4","false","false","RIGHT","j","1","","RIGHT","true","","",""
"","html-keyboard-response","264","473044","0.0-433.0","ntpnaz3y","1366","768","","","","","","","","","","","null","+","Fixation - short","","null","","","","","","","","","","","","",""
"","html-keyboard-response","265","473580","0.0-434.0","ntpnaz3y","1366","768","","","","","","","","","","","534","lff","Diagnostic trial","","f","6","5","false","true","LEFT","f","1","","RIGHT","false","","",""
"","html-keyboard-response","266","474331","0.0-437.0","ntpnaz3y","1366","768","","","","","","","","","","","null","+","Fixation - short","","null","","","","","","","","","","","","",""
"","html-keyboard-response","267","475293","0.0-438.0","ntpnaz3y","1366","768","","","","","","","","","","","961","idy","Diagnostic trial","","f","6","6","false","true","LEFT","f","1","","LEFT","true","","",""
"","html-keyboard-response","268","476046","0.0-441.0","ntpnaz3y","1366","768","","","","","","","","","","","null","+","Fixation - short","","null","","","","","","","","","","","","",""
"","html-keyboard-response","269","476931","0.0-442.0","ntpnaz3y","1366","768","","","","","","","","","","","883","lff","Diagnostic trial","","j","6","7","false","false","RIGHT","j","1","","RIGHT","true","","",""
"","html-keyboard-response","270","477683","0.0-445.0","ntpnaz3y","1366","768","","","","","","","","","","","null","+","Fixation - short","","null","","","","","","","","","","","","",""
"","html-keyboard-response","271","478333","0.0-446.0","ntpnaz3y","1366","768","","","","","","","","","","","647","lff","Diagnostic trial","","j","6","8","false","false","RIGHT","j","1","","RIGHT","true","","",""
"","html-keyboard-response","272","479085","0.0-449.0","ntpnaz3y","1366","768","","","","","","","","","","","null","+","Fixation - short","","null","","","","","","","","","","","","",""
"","html-keyboard-response","273","480098","0.0-450.0","ntpnaz3y","1366","768","","","","","","","","","","","1010","idy","Diagnostic trial","","j","6","9","false","false","RIGHT","j","1","","LEFT","false","","",""
"","html-keyboard-response","274","480850","0.0-453.0","ntpnaz3y","1366","768","","","","","","","","","","","null","+","Fixation - short","","null","","","","","","","","","","","","",""
"","html-keyboard-response","275","481401","0.0-454.0","ntpnaz3y","1366","768","","","","","","","","","","","549","idy","Diagnostic trial","","j","6","10","false","false","RIGHT","j","1","","LEFT","false","","",""
"","html-keyboard-response","276","482154","0.0-457.0","ntpnaz3y","1366","768","","","","","","","","","","","null","+","Fixation - short","","null","","","","","","","","","","","","",""
"","html-keyboard-response","277","483000","0.0-458.0","ntpnaz3y","1366","768","","","","","","","","","","","843","idy","Inducer trial","","f","6","","true","","","f","1","LEFT","","","","",""
"","html-keyboard-response","278","484501","0.0-461.0","ntpnaz3y","1366","768","","","","","","","","","","","null","+","Fixation - long","","null","","","","","","","","","","","","",""
"","html-keyboard-response","279","487648","0.0-462.0","ntpnaz3y","1366","768","","","","","","","","","","","3145","If bwe press LEFT | If sjn press RIGHT","Inducer instructions",""," ","7","","","","","","","","","","","",""
"","html-keyboard-response","280","488401","0.0-463.0","ntpnaz3y","1366","768","","","","","","","","","","","null","+","Fixation - short","","null","","","","","","","","","","","","",""
"","html-keyboard-response","281","489251","0.0-464.0","ntpnaz3y","1366","768","","","","","","","","","","","847","bwe","Diagnostic trial","","j","7","0","false","false","RIGHT","j","1","","LEFT","false","","",""
"","html-keyboard-response","282","490003","0.0-467.0","ntpnaz3y","1366","768","","","","","","","","","","","null","+","Fixation - short","","null","","","","","","","","","","","","",""
"","html-keyboard-response","283","490777","0.0-468.0","ntpnaz3y","1366","768","","","","","","","","","","","772","sjn","Diagnostic trial","","f","7","1","false","true","LEFT","f","1","","RIGHT","false","","",""
"","html-keyboard-response","284","491530","0.0-471.0","ntpnaz3y","1366","768","","","","","","","","","","","null","+","Fixation - short","","null","","","","","","","","","","","","",""
"","html-keyboard-response","285","492151","0.0-472.0","ntpnaz3y","1366","768","","","","","","","","","","","619","sjn","Diagnostic trial","","f","7","2","false","true","LEFT","f","1","","RIGHT","false","","",""
"","html-keyboard-response","286","492903","0.0-475.0","ntpnaz3y","1366","768","","","","","","","","","","","null","+","Fixation - short","","null","","","","","","","","","","","","",""
"","html-keyboard-response","287","493665","0.0-476.0","ntpnaz3y","1366","768","","","","","","","","","","","759","bwe","Diagnostic trial","","f","7","3","false","true","LEFT","f","1","","LEFT","true","","",""
"","html-keyboard-response","288","494419","0.0-479.0","ntpnaz3y","1366","768","","","","","","","","","","","null","+","Fixation - short","","null","","","","","","","","","","","","",""
"","html-keyboard-response","289","495211","0.0-480.0","ntpnaz3y","1366","768","","","","","","","","","","","790","bwe","Diagnostic trial","","j","7","4","false","true","LEFT","f","0","","LEFT","true","","",""
"","call-function","290","495212","0.0-482.0-0.0","ntpnaz3y","","","","","","","","","","","","","","","","","","","","","","","","","","","","","",""
"","html-keyboard-response","291","495514","0.0-482.0-1.0","ntpnaz3y","1366","768","","","","","","","","","","","null","Wrong","Feedback","","null","","","","","","","","","","","","",""
"","call-function","292","495516","0.0-482.0-2.0","ntpnaz3y","","","","","","","","","","","","","","","","","","","","","","","","","","","","","",""
"","html-keyboard-response","293","496268","0.0-483.0","ntpnaz3y","1366","768","","","","","","","","","","","null","+","Fixation - short","","null","","","","","","","","","","","","",""
"","html-keyboard-response","294","497224","0.0-484.0","ntpnaz3y","1366","768","","","","","","","","","","","954","sjn","Diagnostic trial","","f","7","5","false","false","RIGHT","j","0","","RIGHT","true","","",""
"","call-function","295","497225","0.0-486.0-0.0","ntpnaz3y","","","","","","","","","","","","","","","","","","","","","","","","","","","","","",""
"","html-keyboard-response","296","497527","0.0-486.0-1.0","ntpnaz3y","1366","768","","","","","","","","","","","null","Wrong","Feedback","","null","","","","","","","","","","","","",""
"","call-function","297","497528","0.0-486.0-2.0","ntpnaz3y","","","","","","","","","","","","","","","","","","","","","","","","","","","","","",""
"","html-keyboard-response","298","498280","0.0-487.0","ntpnaz3y","1366","768","","","","","","","","","","","null","+","Fixation - short","","null","","","","","","","","","","","","",""
"","html-keyboard-response","299","499216","0.0-488.0","ntpnaz3y","1366","768","","","","","","","","","","","934","bwe","Inducer trial","","f","7","","true","","","f","1","LEFT","","","","",""
"","html-keyboard-response","300","500719","0.0-491.0","ntpnaz3y","1366","768","","","","","","","","","","","null","+","Fixation - long","","null","","","","","","","","","","","","",""
"","html-keyboard-response","301","503497","0.0-492.0","ntpnaz3y","1366","768","","","","","","","","","","","2776","If efg press LEFT | If rbc press RIGHT","Inducer instructions",""," ","8","","","","","","","","","","","",""
"","html-keyboard-response","302","504249","0.0-493.0","ntpnaz3y","1366","768","","","","","","","","","","","null","+","Fixation - short","","null","","","","","","","","","","","","",""
"","html-keyboard-response","303","505064","0.0-494.0","ntpnaz3y","1366","768","","","","","","","","","","","813","efg","Diagnostic trial","","j","8","0","false","false","RIGHT","j","1","","LEFT","false","","",""
"","html-keyboard-response","304","505816","0.0-497.0","ntpnaz3y","1366","768","","","","","","","","","","","null","+","Fixation - short","","null","","","","","","","","","","","","",""
"","html-keyboard-response","305","506335","0.0-498.0","ntpnaz3y","1366","768","","","","","","","","","","","517","efg","Diagnostic trial","","j","8","1","false","false","RIGHT","j","1","","LEFT","false","","",""
"","html-keyboard-response","306","507087","0.0-501.0","ntpnaz3y","1366","768","","","","","","","","","","","null","+","Fixation - short","","null","","","","","","","","","","","","",""
"","html-keyboard-response","307","507548","0.0-502.0","ntpnaz3y","1366","768","","","","","","","","","","","458","efg","Diagnostic trial","","f","8","2","false","true","LEFT","f","1","","LEFT","true","","",""
"","html-keyboard-response","308","508300","0.0-505.0","ntpnaz3y","1366","768","","","","","","","","","","","null","+","Fixation - short","","null","","","","","","","","","","","","",""
"","html-keyboard-response","309","508997","0.0-506.0","ntpnaz3y","1366","768","","","","","","","","","","","694","rbc","Diagnostic trial","","j","8","3","false","false","RIGHT","j","1","","RIGHT","true","","",""
"","html-keyboard-response","310","509749","0.0-509.0","ntpnaz3y","1366","768","","","","","","","","","","","null","+","Fixation - short","","null","","","","","","","","","","","","",""
"","html-keyboard-response","311","510313","0.0-510.0","ntpnaz3y","1366","768","","","","","","","","","","","562","rbc","Diagnostic trial","","j","8","4","false","false","RIGHT","j","1","","RIGHT","true","","",""
"","html-keyboard-response","312","511066","0.0-513.0","ntpnaz3y","1366","768","","","","","","","","","","","null","+","Fixation - short","","null","","","","","","","","","","","","",""
"","html-keyboard-response","313","511870","0.0-514.0","ntpnaz3y","1366","768","","","","","","","","","","","803","efg","Diagnostic trial","","j","8","5","false","false","RIGHT","j","1","","LEFT","false","","",""
"","html-keyboard-response","314","512623","0.0-517.0","ntpnaz3y","1366","768","","","","","","","","","","","null","+","Fixation - short","","null","","","","","","","","","","","","",""
"","html-keyboard-response","315","513432","0.0-518.0","ntpnaz3y","1366","768","","","","","","","","","","","807","rbc","Diagnostic trial","","f","8","6","false","true","LEFT","f","1","","RIGHT","false","","",""
"","html-keyboard-response","316","514184","0.0-521.0","ntpnaz3y","1366","768","","","","","","","","","","","null","+","Fixation - short","","null","","","","","","","","","","","","",""
"","html-keyboard-response","317","514856","0.0-522.0","ntpnaz3y","1366","768","","","","","","","","","","","670","efg","Diagnostic trial","","j","8","7","false","false","RIGHT","j","1","","LEFT","false","","",""
"","html-keyboard-response","318","515608","0.0-525.0","ntpnaz3y","1366","768","","","","","","","","","","","null","+","Fixation - short","","null","","","","","","","","","","","","",""
"","html-keyboard-response","319","516095","0.0-526.0","ntpnaz3y","1366","768","","","","","","","","","","","485","rbc","Diagnostic trial","","j","8","8","false","false","RIGHT","j","1","","RIGHT","true","","",""
"","html-keyboard-response","320","516847","0.0-529.0","ntpnaz3y","1366","768","","","","","","","","","","","null","+","Fixation - short","","null","","","","","","","","","","","","",""
"","html-keyboard-response","321","517546","0.0-530.0","ntpnaz3y","1366","768","","","","","","","","","","","696","efg","Diagnostic trial","","f","8","9","false","true","LEFT","f","1","","LEFT","true","","",""
"","html-keyboard-response","322","518298","0.0-533.0","ntpnaz3y","1366","768","","","","","","","","","","","null","+","Fixation - short","","null","","","","","","","","","","","","",""
"","html-keyboard-response","323","518851","0.0-534.0","ntpnaz3y","1366","768","","","","","","","","","","","551","efg","Inducer trial","","f","8","","true","","","f","1","LEFT","","","","",""
"","html-keyboard-response","324","520353","0.0-537.0","ntpnaz3y","1366","768","","","","","","","","","","","null","+","Fixation - long","","null","","","","","","","","","","","","",""
"","html-keyboard-response","325","521914","0.0-538.0","ntpnaz3y","1366","768","","","","","","","","","","","1559","If yoy press LEFT | If vsc press RIGHT","Inducer instructions",""," ","9","","","","","","","","","","","",""
"","html-keyboard-response","326","522667","0.0-539.0","ntpnaz3y","1366","768","","","","","","","","","","","null","+","Fixation - short","","null","","","","","","","","","","","","",""
"","html-keyboard-response","327","523424","0.0-540.0","ntpnaz3y","1366","768","","","","","","","","","","","755","vsc","Diagnostic trial","","j","9","0","false","true","LEFT","f","0","","RIGHT","false","","",""
"","call-function","328","523425","0.0-542.0-0.0","ntpnaz3y","","","","","","","","","","","","","","","","","","","","","","","","","","","","","",""
"","html-keyboard-response","329","523727","0.0-542.0-1.0","ntpnaz3y","1366","768","","","","","","","","","","","null","Wrong","Feedback","","null","","","","","","","","","","","","",""
"","call-function","330","523729","0.0-542.0-2.0","ntpnaz3y","","","","","","","","","","","","","","","","","","","","","","","","","","","","","",""
"","html-keyboard-response","331","524481","0.0-543.0","ntpnaz3y","1366","768","","","","","","","","","","","null","+","Fixation - short","","null","","","","","","","","","","","","",""
"","html-keyboard-response","332","525107","0.0-544.0","ntpnaz3y","1366","768","","","","","","","","","","","624","vsc","Diagnostic trial","","j","9","1","false","false","RIGHT","j","1","","RIGHT","true","","",""
"","html-keyboard-response","333","525860","0.0-547.0","ntpnaz3y","1366","768","","","","","","","","","","","null","+","Fixation - short","","null","","","","","","","","","","","","",""
"","html-keyboard-response","334","526565","0.0-548.0","ntpnaz3y","1366","768","","","","","","","","","","","702","vsc","Diagnostic trial","","j","9","2","false","false","RIGHT","j","1","","RIGHT","true","","",""
"","html-keyboard-response","335","527316","0.0-551.0","ntpnaz3y","1366","768","","","","","","","","","","","null","+","Fixation - short","","null","","","","","","","","","","","","",""
"","html-keyboard-response","336","528135","0.0-552.0","ntpnaz3y","1366","768","","","","","","","","","","","817","vsc","Diagnostic trial","","f","9","3","false","true","LEFT","f","1","","RIGHT","false","","",""
"","html-keyboard-response","337","528888","0.0-555.0","ntpnaz3y","1366","768","","","","","","","","","","","null","+","Fixation - short","","null","","","","","","","","","","","","",""
"","html-keyboard-response","338","529523","0.0-556.0","ntpnaz3y","1366","768","","","","","","","","","","","633","vsc","Diagnostic trial","","j","9","4","false","false","RIGHT","j","1","","RIGHT","true","","",""
"","html-keyboard-response","339","530275","0.0-559.0","ntpnaz3y","1366","768","","","","","","","","","","","null","+","Fixation - short","","null","","","","","","","","","","","","",""
"","html-keyboard-response","340","530849","0.0-560.0","ntpnaz3y","1366","768","","","","","","","","","","","571","vsc","Diagnostic trial","","j","9","5","false","false","RIGHT","j","1","","RIGHT","true","","",""
"","html-keyboard-response","341","531601","0.0-563.0","ntpnaz3y","1366","768","","","","","","","","","","","null","+","Fixation - short","","null","","","","","","","","","","","","",""
"","html-keyboard-response","342","532196","0.0-564.0","ntpnaz3y","1366","768","","","","","","","","","","","592","vsc","Diagnostic trial","","j","9","6","false","false","RIGHT","j","1","","RIGHT","true","","",""
"","html-keyboard-response","343","532948","0.0-567.0","ntpnaz3y","1366","768","","","","","","","","","","","null","+","Fixation - short","","null","","","","","","","","","","","","",""
"","html-keyboard-response","344","533557","0.0-568.0","ntpnaz3y","1366","768","","","","","","","","","","","606","vsc","Diagnostic trial","","j","9","7","false","true","LEFT","f","0","","RIGHT","false","","",""
"","call-function","345","533558","0.0-570.0-0.0","ntpnaz3y","","","","","","","","","","","","","","","","","","","","","","","","","","","","","",""
"","html-keyboard-response","346","533860","0.0-570.0-1.0","ntpnaz3y","1366","768","","","","","","","","","","","null","Wrong","Feedback","","null","","","","","","","","","","","","",""
"","call-function","347","533861","0.0-570.0-2.0","ntpnaz3y","","","","","","","","","","","","","","","","","","","","","","","","","","","","","",""
"","html-keyboard-response","348","534613","0.0-571.0","ntpnaz3y","1366","768","","","","","","","","","","","null","+","Fixation - short","","null","","","","","","","","","","","","",""
"","html-keyboard-response","349","535449","0.0-572.0","ntpnaz3y","1366","768","","","","","","","","","","","834","vsc","Diagnostic trial","","f","9","8","false","true","LEFT","f","1","","RIGHT","false","","",""
"","html-keyboard-response","350","536201","0.0-575.0","ntpnaz3y","1366","768","","","","","","","","","","","null","+","Fixation - short","","null","","","","","","","","","","","","",""
"","html-keyboard-response","351","537387","0.0-576.0","ntpnaz3y","1366","768","","","","","","","","","","","1183","yoy","Diagnostic trial","","j","9","9","false","false","RIGHT","j","1","","LEFT","false","","",""
"","html-keyboard-response","352","538140","0.0-579.0","ntpnaz3y","1366","768","","","","","","","","","","","null","+","Fixation - short","","null","","","","","","","","","","","","",""
"","html-keyboard-response","353","538948","0.0-580.0","ntpnaz3y","1366","768","","","","","","","","","","","806","vsc","Diagnostic trial","","j","9","10","false","false","RIGHT","j","1","","RIGHT","true","","",""
"","html-keyboard-response","354","539699","0.0-583.0","ntpnaz3y","1366","768","","","","","","","","","","","null","+","Fixation - short","","null","","","","","","","","","","","","",""
"","html-keyboard-response","355","540211","0.0-584.0","ntpnaz3y","1366","768","","","","","","","","","","","509","vsc","Diagnostic trial","","f","9","11","false","true","LEFT","f","1","","RIGHT","false","","",""
"","html-keyboard-response","356","540963","0.0-587.0","ntpnaz3y","1366","768","","","","","","","","","","","null","+","Fixation - short","","null","","","","","","","","","","","","",""
"","html-keyboard-response","357","541528","0.0-588.0","ntpnaz3y","1366","768","","","","","","","","","","","563","yoy","Diagnostic trial","","j","9","12","false","false","RIGHT","j","1","","LEFT","false","","",""
"","html-keyboard-response","358","542281","0.0-591.0","ntpnaz3y","1366","768","","","","","","","","","","","null","+","Fixation - short","","null","","","","","","","","","","","","",""
"","html-keyboard-response","359","542997","0.0-592.0","ntpnaz3y","1366","768","","","","","","","","","","","715","yoy","Diagnostic trial","","f","9","13","false","true","LEFT","f","1","","LEFT","true","","",""
"","html-keyboard-response","360","543750","0.0-595.0","ntpnaz3y","1366","768","","","","","","","","","","","null","+","Fixation - short","","null","","","","","","","","","","","","",""
"","html-keyboard-response","361","544374","0.0-596.0","ntpnaz3y","1366","768","","","","","","","","","","","622","yoy","Diagnostic trial","","f","9","14","false","true","LEFT","f","1","","LEFT","true","","",""
"","html-keyboard-response","362","545127","0.0-599.0","ntpnaz3y","1366","768","","","","","","","","","","","null","+","Fixation - short","","null","","","","","","","","","","","","",""
"","html-keyboard-response","363","545723","0.0-600.0","ntpnaz3y","1366","768","","","","","","","","","","","595","yoy","Diagnostic trial","","f","9","15","false","true","LEFT","f","1","","LEFT","true","","",""
"","html-keyboard-response","364","546475","0.0-603.0","ntpnaz3y","1366","768","","","","","","","","","","","null","+","Fixation - short","","null","","","","","","","","","","","","",""
"","html-keyboard-response","365","547622","0.0-604.0","ntpnaz3y","1366","768","","","","","","","","","","","1145","yoy","Inducer trial","","f","9","","true","","","f","1","LEFT","","","","",""
"","html-keyboard-response","366","549124","0.0-607.0","ntpnaz3y","1366","768","","","","","","","","","","","null","+","Fixation - long","","null","","","","","","","","","","","","",""
"","html-keyboard-response","367","551227","0.0-608.0","ntpnaz3y","1366","768","","","","","","","","","","","2101","If mvv press LEFT | If amb press RIGHT","Inducer instructions",""," ","10","","","","","","","","","","","",""
"","html-keyboard-response","368","551980","0.0-609.0","ntpnaz3y","1366","768","","","","","","","","","","","null","+","Fixation - short","","null","","","","","","","","","","","","",""
"","html-keyboard-response","369","552749","0.0-610.0","ntpnaz3y","1366","768","","","","","","","","","","","767","amb","Diagnostic trial","","f","10","0","false","true","LEFT","f","1","","RIGHT","false","","",""
"","html-keyboard-response","370","553501","0.0-613.0","ntpnaz3y","1366","768","","","","","","","","","","","null","+","Fixation - short","","null","","","","","","","","","","","","",""
"","html-keyboard-response","371","554202","0.0-614.0","ntpnaz3y","1366","768","","","","","","","","","","","699","mvv","Diagnostic trial","","j","10","1","false","false","RIGHT","j","1","","LEFT","false","","",""
"","html-keyboard-response","372","554954","0.0-617.0","ntpnaz3y","1366","768","","","","","","","","","","","null","+","Fixation - short","","null","","","","","","","","","","","","",""
"","html-keyboard-response","373","555798","0.0-618.0","ntpnaz3y","1366","768","","","","","","","","","","","842","amb","Diagnostic trial","","f","10","2","false","true","LEFT","f","1","","RIGHT","false","","",""
"","html-keyboard-response","374","556551","0.0-621.0","ntpnaz3y","1366","768","","","","","","","","","","","null","+","Fixation - short","","null","","","","","","","","","","","","",""
"","html-keyboard-response","375","557113","0.0-622.0","ntpnaz3y","1366","768","","","","","","","","","","","561","amb","Diagnostic trial","","f","10","3","false","true","LEFT","f","1","","RIGHT","false","","",""
"","html-keyboard-response","376","557866","0.0-625.0","ntpnaz3y","1366","768","","","","","","","","","","","null","+","Fixation - short","","null","","","","","","","","","","","","",""
"","html-keyboard-response","377","558582","0.0-626.0","ntpnaz3y","1366","768","","","","","","","","","","","714","mvv","Diagnostic trial","","j","10","4","false","false","RIGHT","j","1","","LEFT","false","","",""
"","html-keyboard-response","378","559335","0.0-629.0","ntpnaz3y","1366","768","","","","","","","","","","","null","+","Fixation - short","","null","","","","","","","","","","","","",""
"","html-keyboard-response","379","560026","0.0-630.0","ntpnaz3y","1366","768","","","","","","","","","","","689","mvv","Diagnostic trial","","j","10","5","false","false","RIGHT","j","1","","LEFT","false","","",""
"","html-keyboard-response","380","560778","0.0-633.0","ntpnaz3y","1366","768","","","","","","","","","","","null","+","Fixation - short","","null","","","","","","","","","","","","",""
"","html-keyboard-response","381","561490","0.0-634.0","ntpnaz3y","1366","768","","","","","","","","","","","709","amb","Diagnostic trial","","j","10","6","false","false","RIGHT","j","1","","RIGHT","true","","",""
"","html-keyboard-response","382","562242","0.0-637.0","ntpnaz3y","1366","768","","","","","","","","","","","null","+","Fixation - short","","null","","","","","","","","","","","","",""
"","html-keyboard-response","383","563482","0.0-638.0","ntpnaz3y","1366","768","","","","","","","","","","","1237","amb","Inducer trial","","j","10","","true","","","j","1","RIGHT","","","","",""
"","html-keyboard-response","384","564984","0.0-641.0","ntpnaz3y","1366","768","","","","","","","","","","","null","+","Fixation - long","","null","","","","","","","","","","","","",""
"","html-keyboard-response","385","566493","0.0-642.0","ntpnaz3y","1366","768","","","","","","","","","","","1507","If wab press LEFT | If dpa press RIGHT","Inducer instructions",""," ","11","","","","","","","","","","","",""
"","html-keyboard-response","386","567246","0.0-643.0","ntpnaz3y","1366","768","","","","","","","","","","","null","+","Fixation - short","","null","","","","","","","","","","","","",""
"","html-keyboard-response","387","567998","0.0-644.0","ntpnaz3y","1366","768","","","","","","","","","","","750","dpa","Diagnostic trial","","f","11","0","false","true","LEFT","f","1","","RIGHT","false","","",""
"","html-keyboard-response","388","568751","0.0-647.0","ntpnaz3y","1366","768","","","","","","","","","","","null","+","Fixation - short","","null","","","","","","","","","","","","",""
"","html-keyboard-response","389","569432","0.0-648.0","ntpnaz3y","1366","768","","","","","","","","","","","680","wab","Diagnostic trial","","j","11","1","false","false","RIGHT","j","1","","LEFT","false","","",""
"","html-keyboard-response","390","570185","0.0-651.0","ntpnaz3y","1366","768","","","","","","","","","","","null","+","Fixation - short","","null","","","","","","","","","","","","",""
"","html-keyboard-response","391","571248","0.0-652.0","ntpnaz3y","1366","768","","","","","","","","","","","1061","wab","Diagnostic trial","","j","11","2","false","false","RIGHT","j","1","","LEFT","false","","",""
"","html-keyboard-response","392","572000","0.0-655.0","ntpnaz3y","1366","768","","","","","","","","","","","null","+","Fixation - short","","null","","","","","","","","","","","","",""
"","html-keyboard-response","393","572572","0.0-656.0","ntpnaz3y","1366","768","","","","","","","","","","","570","wab","Diagnostic trial","","j","11","3","false","false","RIGHT","j","1","","LEFT","false","","",""
"","html-keyboard-response","394","573325","0.0-659.0","ntpnaz3y","1366","768","","","","","","","","","","","null","+","Fixation - short","","null","","","","","","","","","","","","",""
"","html-keyboard-response","395","573935","0.0-660.0","ntpnaz3y","1366","768","","","","","","","","","","","608","wab","Inducer trial","","f","11","","true","","","f","1","LEFT","","","","",""
"","html-keyboard-response","396","575438","0.0-663.0","ntpnaz3y","1366","768","","","","","","","","","","","null","+","Fixation - long","","null","","","","","","","","","","","","",""
"","html-keyboard-response","397","578450","0.0-664.0","ntpnaz3y","1366","768","","","","","","","","","","","3010","If csp press LEFT | If uen press RIGHT","Inducer instructions",""," ","12","","","","","","","","","","","",""
"","html-keyboard-response","398","579202","0.0-665.0","ntpnaz3y","1366","768","","","","","","","","","","","null","+","Fixation - short","","null","","","","","","","","","","","","",""
"","html-keyboard-response","399","579969","0.0-666.0","ntpnaz3y","1366","768","","","","","","","","","","","765","csp","Diagnostic trial","","j","12","0","false","true","LEFT","f","0","","LEFT","true","","",""
"","call-function","400","579970","0.0-668.0-0.0","ntpnaz3y","","","","","","","","","","","","","","","","","","","","","","","","","","","","","",""
"","html-keyboard-response","401","580272","0.0-668.0-1.0","ntpnaz3y","1366","768","","","","","","","","","","","null","Wrong","Feedback","","null","","","","","","","","","","","","",""
"","call-function","402","580274","0.0-668.0-2.0","ntpnaz3y","","","","","","","","","","","","","","","","","","","","","","","","","","","","","",""
"","html-keyboard-response","403","581026","0.0-669.0","ntpnaz3y","1366","768","","","","","","","","","","","null","+","Fixation - short","","null","","","","","","","","","","","","",""
"","html-keyboard-response","404","581878","0.0-670.0","ntpnaz3y","1366","768","","","","","","","","","","","850","csp","Diagnostic trial","","f","12","1","false","true","LEFT","f","1","","LEFT","true","","",""
"","html-keyboard-response","405","582630","0.0-673.0","ntpnaz3y","1366","768","","","","","","","","","","","null","+","Fixation - short","","null","","","","","","","","","","","","",""
"","html-keyboard-response","406","583140","0.0-674.0","ntpnaz3y","1366","768","","","","","","","","","","","507","csp","Diagnostic trial","","f","12","2","false","true","LEFT","f","1","","LEFT","true","","",""
"","html-keyboard-response","407","583892","0.0-677.0","ntpnaz3y","1366","768","","","","","","","","","","","null","+","Fixation - short","","null","","","","","","","","","","","","",""
"","html-keyboard-response","408","584303","0.0-678.0","ntpnaz3y","1366","768","","","","","","","","","","","409","csp","Diagnostic trial","","j","12","3","false","false","RIGHT","j","1","","LEFT","false","","",""
"","html-keyboard-response","409","585056","0.0-681.0","ntpnaz3y","1366","768","","","","","","","","","","","null","+","Fixation - short","","null","","","","","","","","","","","","",""
"","html-keyboard-response","410","585918","0.0-682.0","ntpnaz3y","1366","768","","","","","","","","","","","860","csp","Diagnostic trial","","f","12","4","false","true","LEFT","f","1","","LEFT","true","","",""
"","html-keyboard-response","411","586671","0.0-685.0","ntpnaz3y","1366","768","","","","","","","","","","","null","+","Fixation - short","","null","","","","","","","","","","","","",""
"","html-keyboard-response","412","587381","0.0-686.0","ntpnaz3y","1366","768","","","","","","","","","","","707","csp","Diagnostic trial","","j","12","5","false","false","RIGHT","j","1","","LEFT","false","","",""
"","html-keyboard-response","413","588133","0.0-689.0","ntpnaz3y","1366","768","","","","","","","","","","","null","+","Fixation - short","","null","","","","","","","","","","","","",""
"","html-keyboard-response","414","588745","0.0-690.0","ntpnaz3y","1366","768","","","","","","","","","","","610","csp","Diagnostic trial","","f","12","6","false","true","LEFT","f","1","","LEFT","true","","",""
"","html-keyboard-response","415","589498","0.0-693.0","ntpnaz3y","1366","768","","","","","","","","","","","null","+","Fixation - short","","null","","","","","","","","","","","","",""
"","html-keyboard-response","416","590187","0.0-694.0","ntpnaz3y","1366","768","","","","","","","","","","","688","uen","Diagnostic trial","","f","12","7","false","true","LEFT","f","1","","RIGHT","false","","",""
"","html-keyboard-response","417","590940","0.0-697.0","ntpnaz3y","1366","768","","","","","","","","","","","null","+","Fixation - short","","null","","","","","","","","","","","","",""
"","html-keyboard-response","418","591501","0.0-698.0","ntpnaz3y","1366","768","","","","","","","","","","","559","csp","Diagnostic trial","","f","12","8","false","true","LEFT","f","1","","LEFT","true","","",""
"","html-keyboard-response","419","592253","0.0-701.0","ntpnaz3y","1366","768","","","","","","","","","","","null","+","Fixation - short","","null","","","","","","","","","","","","",""
"","html-keyboard-response","420","593010","0.0-702.0","ntpnaz3y","1366","768","","","","","","","","","","","755","uen","Diagnostic trial","","j","12","9","false","false","RIGHT","j","1","","RIGHT","true","","",""
"","html-keyboard-response","421","593762","0.0-705.0","ntpnaz3y","1366","768","","","","","","","","","","","null","+","Fixation - short","","null","","","","","","","","","","","","",""
"","html-keyboard-response","422","594509","0.0-706.0","ntpnaz3y","1366","768","","","","","","","","","","","745","uen","Diagnostic trial","","f","12","10","false","true","LEFT","f","1","","RIGHT","false","","",""
"","html-keyboard-response","423","595262","0.0-709.0","ntpnaz3y","1366","768","","","","","","","","","","","null","+","Fixation - short","","null","","","","","","","","","","","","",""
"","html-keyboard-response","424","596303","0.0-710.0","ntpnaz3y","1366","768","","","","","","","","","","","1039","uen","Inducer trial","","j","12","","true","","","j","1","RIGHT","","","","",""
"","html-keyboard-response","425","597805","0.0-713.0","ntpnaz3y","1366","768","","","","","","","","","","","null","+","Fixation - long","","null","","","","","","","","","","","","",""
"","html-keyboard-response","426","600887","0.0-714.0","ntpnaz3y","1366","768","","","","","","","","","","","3079","If flh press LEFT | If vpu press RIGHT","Inducer instructions",""," ","13","","","","","","","","","","","",""
"","html-keyboard-response","427","601639","0.0-715.0","ntpnaz3y","1366","768","","","","","","","","","","","null","+","Fixation - short","","null","","","","","","","","","","","","",""
"","html-keyboard-response","428","602378","0.0-716.0","ntpnaz3y","1366","768","","","","","","","","","","","737","flh","Diagnostic trial","","j","13","0","false","false","RIGHT","j","1","","LEFT","false","","",""
"","html-keyboard-response","429","603131","0.0-719.0","ntpnaz3y","1366","768","","","","","","","","","","","null","+","Fixation - short","","null","","","","","","","","","","","","",""
"","html-keyboard-response","430","603848","0.0-720.0","ntpnaz3y","1366","768","","","","","","","","","","","716","vpu","Diagnostic trial","","j","13","1","false","false","RIGHT","j","1","","RIGHT","true","","",""
"","html-keyboard-response","431","604601","0.0-723.0","ntpnaz3y","1366","768","","","","","","","","","","","null","+","Fixation - short","","null","","","","","","","","","","","","",""
"","html-keyboard-response","432","605178","0.0-724.0","ntpnaz3y","1366","768","","","","","","","","","","","576","flh","Diagnostic trial","","f","13","2","false","true","LEFT","f","1","","LEFT","true","","",""
"","html-keyboard-response","433","605930","0.0-727.0","ntpnaz3y","1366","768","","","","","","","","","","","null","+","Fixation - short","","null","","","","","","","","","","","","",""
"","html-keyboard-response","434","606462","0.0-728.0","ntpnaz3y","1366","768","","","","","","","","","","","529","flh","Diagnostic trial","","f","13","3","false","true","LEFT","f","1","","LEFT","true","","",""
"","html-keyboard-response","435","607214","0.0-731.0","ntpnaz3y","1366","768","","","","","","","","","","","null","+","Fixation - short","","null","","","","","","","","","","","","",""
"","html-keyboard-response","436","608155","0.0-732.0","ntpnaz3y","1366","768","","","","","","","","","","","939","flh","Inducer trial","","f","13","","true","","","f","1","LEFT","","","","",""
"","html-keyboard-response","437","609658","0.0-735.0","ntpnaz3y","1366","768","","","","","","","","","","","null","+","Fixation - long","","null","","","","","","","","","","","","",""
"","html-keyboard-response","438","611620","0.0-736.0","ntpnaz3y","1366","768","","","","","","","","","","","1960","If pbz press LEFT | If iei press RIGHT","Inducer instructions",""," ","14","","","","","","","","","","","",""
"","html-keyboard-response","439","612372","0.0-737.0","ntpnaz3y","1366","768","","","","","","","","","","","null","+","Fixation - short","","null","","","","","","","","","","","","",""
"","html-keyboard-response","440","613067","0.0-738.0","ntpnaz3y","1366","768","","","","","","","","","","","693","pbz","Diagnostic trial","","f","14","0","false","true","LEFT","f","1","","LEFT","true","","",""
"","html-keyboard-response","441","613819","0.0-741.0","ntpnaz3y","1366","768","","","","","","","","","","","null","+","Fixation - short","","null","","","","","","","","","","","","",""
"","html-keyboard-response","442","614466","0.0-742.0","ntpnaz3y","1366","768","","","","","","","","","","","644","pbz","Diagnostic trial","","j","14","1","false","false","RIGHT","j","1","","LEFT","false","","",""
"","html-keyboard-response","443","615219","0.0-745.0","ntpnaz3y","1366","768","","","","","","","","","","","null","+","Fixation - short","","null","","","","","","","","","","","","",""
"","html-keyboard-response","444","615721","0.0-746.0","ntpnaz3y","1366","768","","","","","","","","","","","500","pbz","Diagnostic trial","","j","14","2","false","false","RIGHT","j","1","","LEFT","false","","",""
"","html-keyboard-response","445","616474","0.0-749.0","ntpnaz3y","1366","768","","","","","","","","","","","null","+","Fixation - short","","null","","","","","","","","","","","","",""
"","html-keyboard-response","446","617118","0.0-750.0","ntpnaz3y","1366","768","","","","","","","","","","","642","iei","Diagnostic trial","","f","14","3","false","true","LEFT","f","1","","RIGHT","false","","",""
"","html-keyboard-response","447","617870","0.0-753.0","ntpnaz3y","1366","768","","","","","","","","","","","null","+","Fixation - short","","null","","","","","","","","","","","","",""
"","html-keyboard-response","448","618600","0.0-754.0","ntpnaz3y","1366","768","","","","","","","","","","","727","pbz","Diagnostic trial","","j","14","4","false","false","RIGHT","j","1","","LEFT","false","","",""
"","html-keyboard-response","449","619352","0.0-757.0","ntpnaz3y","1366","768","","","","","","","","","","","null","+","Fixation - short","","null","","","","","","","","","","","","",""
"","html-keyboard-response","450","620135","0.0-758.0","ntpnaz3y","1366","768","","","","","","","","","","","780","pbz","Diagnostic trial","","f","14","5","false","true","LEFT","f","1","","LEFT","true","","",""
"","html-keyboard-response","451","620887","0.0-761.0","ntpnaz3y","1366","768","","","","","","","","","","","null","+","Fixation - short","","null","","","","","","","","","","","","",""
"","html-keyboard-response","452","622093","0.0-762.0","ntpnaz3y","1366","768","","","","","","","","","","","1203","iei","Diagnostic trial","","j","14","6","false","false","RIGHT","j","1","","RIGHT","true","","",""
"","html-keyboard-response","453","622845","0.0-765.0","ntpnaz3y","1366","768","","","","","","","","","","","null","+","Fixation - short","","null","","","","","","","","","","","","",""
"","html-keyboard-response","454","623556","0.0-766.0","ntpnaz3y","1366","768","","","","","","","","","","","708","iei","Diagnostic trial","","f","14","7","false","true","LEFT","f","1","","RIGHT","false","","",""
"","html-keyboard-response","455","624308","0.0-769.0","ntpnaz3y","1366","768","","","","","","","","","","","null","+","Fixation - short","","null","","","","","","","","","","","","",""
"","html-keyboard-response","456","624816","0.0-770.0","ntpnaz3y","1366","768","","","","","","","","","","","507","iei","Diagnostic trial","","f","14","8","false","true","LEFT","f","1","","RIGHT","false","","",""
"","html-keyboard-response","457","625569","0.0-773.0","ntpnaz3y","1366","768","","","","","","","","","","","null","+","Fixation - short","","null","","","","","","","","","","","","",""
"","html-keyboard-response","458","626036","0.0-774.0","ntpnaz3y","1366","768","","","","","","","","","","","464","iei","Diagnostic trial","","j","14","9","false","false","RIGHT","j","1","","RIGHT","true","","",""
"","html-keyboard-response","459","626788","0.0-777.0","ntpnaz3y","1366","768","","","","","","","","","","","null","+","Fixation - short","","null","","","","","","","","","","","","",""
"","html-keyboard-response","460","627619","0.0-778.0","ntpnaz3y","1366","768","","","","","","","","","","","829","iei","Diagnostic trial","","j","14","10","false","false","RIGHT","j","1","","RIGHT","true","","",""
"","html-keyboard-response","461","628371","0.0-781.0","ntpnaz3y","1366","768","","","","","","","","","","","null","+","Fixation - short","","null","","","","","","","","","","","","",""
"","html-keyboard-response","462","629659","0.0-782.0","ntpnaz3y","1366","768","","","","","","","","","","","1286","pbz","Diagnostic trial","","j","14","11","false","false","RIGHT","j","1","","LEFT","false","","",""
"","html-keyboard-response","463","630411","0.0-785.0","ntpnaz3y","1366","768","","","","","","","","","","","null","+","Fixation - short","","null","","","","","","","","","","","","",""
"","html-keyboard-response","464","631087","0.0-786.0","ntpnaz3y","1366","768","","","","","","","","","","","674","pbz","Diagnostic trial","","j","14","12","false","false","RIGHT","j","1","","LEFT","false","","",""
"","html-keyboard-response","465","631839","0.0-789.0","ntpnaz3y","1366","768","","","","","","","","","","","null","+","Fixation - short","","null","","","","","","","","","","","","",""
"","html-keyboard-response","466","632559","0.0-790.0","ntpnaz3y","1366","768","","","","","","","","","","","718","pbz","Diagnostic trial","","f","14","13","false","true","LEFT","f","1","","LEFT","true","","",""
"","html-keyboard-response","467","633312","0.0-793.0","ntpnaz3y","1366","768","","","","","","","","","","","null","+","Fixation - short","","null","","","","","","","","","","","","",""
"","html-keyboard-response","468","634232","0.0-794.0","ntpnaz3y","1366","768","","","","","","","","","","","918","pbz","Inducer trial","","f","14","","true","","","f","1","LEFT","","","","",""
"","html-keyboard-response","469","635734","0.0-797.0","ntpnaz3y","1366","768","","","","","","","","","","","null","+","Fixation - long","","null","","","","","","","","","","","","",""
"","html-keyboard-response","470","636789","0.0-798.0","ntpnaz3y","1366","768","","","","","","","","","","","1053","If vle press LEFT | If eht press RIGHT","Inducer instructions",""," ","15","","","","","","","","","","","",""
"","html-keyboard-response","471","637541","0.0-799.0","ntpnaz3y","1366","768","","","","","","","","","","","null","+","Fixation - short","","null","","","","","","","","","","","","",""
"","html-keyboard-response","472","638298","0.0-800.0","ntpnaz3y","1366","768","","","","","","","","","","","755","eht","Diagnostic trial","","j","15","0","false","false","RIGHT","j","1","","RIGHT","true","","",""
"","html-keyboard-response","473","639050","0.0-803.0","ntpnaz3y","1366","768","","","","","","","","","","","null","+","Fixation - short","","null","","","","","","","","","","","","",""
"","html-keyboard-response","474","639649","0.0-804.0","ntpnaz3y","1366","768","","","","","","","","","","","596","vle","Diagnostic trial","","f","15","1","false","true","LEFT","f","1","","LEFT","true","","",""
"","html-keyboard-response","475","640401","0.0-807.0","ntpnaz3y","1366","768","","","","","","","","","","","null","+","Fixation - short","","null","","","","","","","","","","","","",""
"","html-keyboard-response","476","641146","0.0-808.0","ntpnaz3y","1366","768","","","","","","","","","","","743","vle","Diagnostic trial","","j","15","2","false","false","RIGHT","j","1","","LEFT","false","","",""
"","html-keyboard-response","477","641899","0.0-811.0","ntpnaz3y","1366","768","","","","","","","","","","","null","+","Fixation - short","","null","","","","","","","","","","","","",""
"","html-keyboard-response","478","642636","0.0-812.0","ntpnaz3y","1366","768","","","","","","","","","","","734","eht","Diagnostic trial","","f","15","3","false","true","LEFT","f","1","","RIGHT","false","","",""
"","html-keyboard-response","479","643389","0.0-815.0","ntpnaz3y","1366","768","","","","","","","","","","","null","+","Fixation - short","","null","","","","","","","","","","","","",""
"","html-keyboard-response","480","644150","0.0-816.0","ntpnaz3y","1366","768","","","","","","","","","","","759","eht","Diagnostic trial","","j","15","4","false","false","RIGHT","j","1","","RIGHT","true","","",""
"","html-keyboard-response","481","644902","0.0-819.0","ntpnaz3y","1366","768","","","","","","","","","","","null","+","Fixation - short","","null","","","","","","","","","","","","",""
"","html-keyboard-response","482","645683","0.0-820.0","ntpnaz3y","1366","768","","","","","","","","","","","779","vle","Diagnostic trial","","j","15","5","false","false","RIGHT","j","1","","LEFT","false","","",""
"","html-keyboard-response","483","646436","0.0-823.0","ntpnaz3y","1366","768","","","","","","","","","","","null","+","Fixation - short","","null","","","","","","","","","","","","",""
"","html-keyboard-response","484","647078","0.0-824.0","ntpnaz3y","1366","768","","","","","","","","","","","641","vle","Diagnostic trial","","j","15","6","false","false","RIGHT","j","1","","LEFT","false","","",""
"","html-keyboard-response","485","647830","0.0-827.0","ntpnaz3y","1366","768","","","","","","","","","","","null","+","Fixation - short","","null","","","","","","","","","","","","",""
"","html-keyboard-response","486","649063","0.0-828.0","ntpnaz3y","1366","768","","","","","","","","","","","1231","eht","Inducer trial","","j","15","","true","","","j","1","RIGHT","","","","",""
"","html-keyboard-response","487","650565","0.0-831.0","ntpnaz3y","1366","768","","","","","","","","","","","null","+","Fixation - long","","null","","","","","","","","","","","","",""
"","html-keyboard-response","488","652220","0.0-832.0","ntpnaz3y","1366","768","","","","","","","","","","","1652","If jft press LEFT | If adj press RIGHT","Inducer instructions",""," ","16","","","","","","","","","","","",""
"","html-keyboard-response","489","652972","0.0-833.0","ntpnaz3y","1366","768","","","","","","","","","","","null","+","Fixation - short","","null","","","","","","","","","","","","",""
"","html-keyboard-response","490","654080","0.0-834.0","ntpnaz3y","1366","768","","","","","","","","","","","1106","jft","Diagnostic trial","","j","16","0","false","false","RIGHT","j","1","","LEFT","false","","",""
"","html-keyboard-response","491","654833","0.0-837.0","ntpnaz3y","1366","768","","","","","","","","","","","null","+","Fixation - short","","null","","","","","","","","","","","","",""
"","html-keyboard-response","492","655441","0.0-838.0","ntpnaz3y","1366","768","","","","","","","","","","","606","jft","Diagnostic trial","","f","16","1","false","true","LEFT","f","1","","LEFT","true","","",""
"","html-keyboard-response","493","656194","0.0-841.0","ntpnaz3y","1366","768","","","","","","","","","","","null","+","Fixation - short","","null","","","","","","","","","","","","",""
"","html-keyboard-response","494","656915","0.0-842.0","ntpnaz3y","1366","768","","","","","","","","","","","719","adj","Diagnostic trial","","j","16","2","false","false","RIGHT","j","1","","RIGHT","true","","",""
"","html-keyboard-response","495","657667","0.0-845.0","ntpnaz3y","1366","768","","","","","","","","","","","null","+","Fixation - short","","null","","","","","","","","","","","","",""
"","html-keyboard-response","496","658304","0.0-846.0","ntpnaz3y","1366","768","","","","","","","","","","","634","adj","Diagnostic trial","","f","16","3","false","true","LEFT","f","1","","RIGHT","false","","",""
"","html-keyboard-response","497","659056","0.0-849.0","ntpnaz3y","1366","768","","","","","","","","","","","null","+","Fixation - short","","null","","","","","","","","","","","","",""
"","html-keyboard-response","498","659721","0.0-850.0","ntpnaz3y","1366","768","","","","","","","","","","","663","adj","Diagnostic trial","","j","16","4","false","false","RIGHT","j","1","","RIGHT","true","","",""
"","html-keyboard-response","499","660474","0.0-853.0","ntpnaz3y","1366","768","","","","","","","","","","","null","+","Fixation - short","","null","","","","","","","","","","","","",""
"","html-keyboard-response","500","661142","0.0-854.0","ntpnaz3y","1366","768","","","","","","","","","","","666","adj","Diagnostic trial","","j","16","5","false","false","RIGHT","j","1","","RIGHT","true","","",""
"","html-keyboard-response","501","661894","0.0-857.0","ntpnaz3y","1366","768","","","","","","","","","","","null","+","Fixation - short","","null","","","","","","","","","","","","",""
"","html-keyboard-response","502","662532","0.0-858.0","ntpnaz3y","1366","768","","","","","","","","","","","636","adj","Diagnostic trial","","j","16","6","false","false","RIGHT","j","1","","RIGHT","true","","",""
