"value","trial_type","trial_index","time_elapsed","internal_node_id","id","width","height","webaudio","browser","browser_version","mobile","os","fullscreen","vsync_rate","webcam","microphone","view_history","rt","stimulus","trial_info","success","response","inducer_run","diagnostic_run","inducer_trial","italic","correct_diag_response_side","correct_response_key","correct_response","correct_indu_response_side","correct_inducer_response_side","congruent","accuracy","open_feedback","interactive"
"","call-function","0","13","0.0-0.0","hpwxvcom","","","","","","","","","","","","","","","","","","","","","","","","","","","","","",""
"","browser-check","1","1184","0.0-1.0","hpwxvcom","1440","682","true","chrome","119.0.0","false","Mac OS","true","52.66","false","true","","","","","","","","","","","","","","","","","","",""
"","instructions","2","20918","0.0-2.0","hpwxvcom","","","","","","","","","","","","[{""page_index"":0,""viewing_time"":2164},{""page_index"":1,""viewing_time"":15368},{""page_index"":2,""viewing_time"":2201}]","19734","The experiment and consent","The experiment and consent","","","","","","","","","","","","","","",""
"","fullscreen","3","23258","0.0-3.0","hpwxvcom","1440","867","","","","","","","","","","","1326","","Full screen","true","","","","","","","","","","","","","",""
"","instructions","4","54435","0.0-4.0","hpwxvcom","1440","900","","","","","","","","","","[{""page_index"":0,""viewing_time"":23362},{""page_index"":1,""viewing_time"":7811}]","31173","Instructions","Basic overview explanation","","","","","","","","","","","","","","",""
"","html-keyboard-response","5","65458","0.0-5.0","hpwxvcom","1440","900","","","","","","","","","","","9514","If italic press LEFT | If upright press RIGHT","Diagnostic instructions",""," ","","","","","","","","","","","","",""
"","html-keyboard-response","6","66210","0.0-6.0","hpwxvcom","1440","900","","","","","","","","","","","null","+","Fixation - short","","null","","","","","","","","","","","","",""
"","html-keyboard-response","7","69369","0.0-7.0","hpwxvcom","1440","900","","","","","","","","","","","3158","dij","Practice diganostic trial","","j","practice","0","false","0","RIGHT","j","1","","","","","",""
"","html-keyboard-response","8","70125","0.0-10.0","hpwxvcom","1440","900","","","","","","","","","","","null","+","Fixation - short","","null","","","","","","","","","","","","",""
"","html-keyboard-response","9","71481","0.0-11.0","hpwxvcom","1440","900","","","","","","","","","","","1354","vnn","Practice diganostic trial","","j","practice","1","false","0","RIGHT","j","1","","","","","",""
"","html-keyboard-response","10","72236","0.0-14.0","hpwxvcom","1440","900","","","","","","","","","","","null","+","Fixation - short","","null","","","","","","","","","","","","",""
"","html-keyboard-response","11","72894","0.0-15.0","hpwxvcom","1440","900","","","","","","","","","","","657","dij","Practice diganostic trial","","f","practice","2","false","1","LEFT","f","1","","","","","",""
"","html-keyboard-response","12","73648","0.0-18.0","hpwxvcom","1440","900","","","","","","","","","","","null","+","Fixation - short","","null","","","","","","","","","","","","",""
"","html-keyboard-response","13","74179","0.0-19.0","hpwxvcom","1440","900","","","","","","","","","","","530","vnn","Practice diganostic trial","","j","practice","3","false","0","RIGHT","j","1","","","","","",""
"","html-keyboard-response","14","74935","0.0-22.0","hpwxvcom","1440","900","","","","","","","","","","","null","+","Fixation - short","","null","","","","","","","","","","","","",""
"","html-keyboard-response","15","75658","0.0-23.0","hpwxvcom","1440","900","","","","","","","","","","","722","dij","Practice diganostic trial","","j","practice","4","false","0","RIGHT","j","1","","","","","",""
"","html-keyboard-response","16","76410","0.0-26.0","hpwxvcom","1440","900","","","","","","","","","","","null","+","Fixation - short","","null","","","","","","","","","","","","",""
"","html-keyboard-response","17","77123","0.0-27.0","hpwxvcom","1440","900","","","","","","","","","","","712","dij","Practice diganostic trial","","f","practice","5","false","1","LEFT","f","1","","","","","",""
"","html-keyboard-response","18","77878","0.0-30.0","hpwxvcom","1440","900","","","","","","","","","","","null","+","Fixation - short","","null","","","","","","","","","","","","",""
"","html-keyboard-response","19","78392","0.0-31.0","hpwxvcom","1440","900","","","","","","","","","","","513","dij","Practice diganostic trial","","f","practice","6","false","1","LEFT","f","1","","","","","",""
"","html-keyboard-response","20","79149","0.0-34.0","hpwxvcom","1440","900","","","","","","","","","","","null","+","Fixation - short","","null","","","","","","","","","","","","",""
"","html-keyboard-response","21","79602","0.0-35.0","hpwxvcom","1440","900","","","","","","","","","","","453","dij","Practice diganostic trial","","f","practice","7","false","1","LEFT","f","1","","","","","",""
"","html-keyboard-response","22","80357","0.0-38.0","hpwxvcom","1440","900","","","","","","","","","","","null","+","Fixation - short","","null","","","","","","","","","","","","",""
"","html-keyboard-response","23","80818","0.0-39.0","hpwxvcom","1440","900","","","","","","","","","","","460","dij","Practice diganostic trial","","f","practice","8","false","0","RIGHT","j","0","","","","","",""
"","call-function","24","80819","0.0-41.0-0.0","hpwxvcom","","","","","","","","","","","","","","","","","","","","","","","","","","","","","",""
"","html-keyboard-response","25","81124","0.0-41.0-1.0","hpwxvcom","1440","900","","","","","","","","","","","null","Wrong","Feedback","","null","","","","","","","","","","","","",""
"","call-function","26","81125","0.0-41.0-2.0","hpwxvcom","","","","","","","","","","","","","","","","","","","","","","","","","","","","","",""
"","html-keyboard-response","27","81879","0.0-42.0","hpwxvcom","1440","900","","","","","","","","","","","null","+","Fixation - short","","null","","","","","","","","","","","","",""
"","html-keyboard-response","28","82643","0.0-43.0","hpwxvcom","1440","900","","","","","","","","","","","764","vnn","Practice diganostic trial","","j","practice","9","false","0","RIGHT","j","1","","","","","",""
"","html-keyboard-response","29","83398","0.0-46.0","hpwxvcom","1440","900","","","","","","","","","","","null","+","Fixation - short","","null","","","","","","","","","","","","",""
"","html-keyboard-response","30","83946","0.0-47.0","hpwxvcom","1440","900","","","","","","","","","","","547","dij","Practice diganostic trial","","f","practice","10","false","1","LEFT","f","1","","","","","",""
"","html-keyboard-response","31","84701","0.0-50.0","hpwxvcom","1440","900","","","","","","","","","","","null","+","Fixation - short","","null","","","","","","","","","","","","",""
"","html-keyboard-response","32","85255","0.0-51.0","hpwxvcom","1440","900","","","","","","","","","","","553","dij","Practice diganostic trial","","j","practice","11","false","0","RIGHT","j","1","","","","","",""
"","html-keyboard-response","33","86008","0.0-54.0","hpwxvcom","1440","900","","","","","","","","","","","null","+","Fixation - short","","null","","","","","","","","","","","","",""
"","html-keyboard-response","34","86664","0.0-55.0","hpwxvcom","1440","900","","","","","","","","","","","655","dij","Practice diganostic trial","","f","practice","12","false","1","LEFT","f","1","","","","","",""
"","html-keyboard-response","35","87418","0.0-58.0","hpwxvcom","1440","900","","","","","","","","","","","null","+","Fixation - short","","null","","","","","","","","","","","","",""
"","html-keyboard-response","36","88062","0.0-59.0","hpwxvcom","1440","900","","","","","","","","","","","643","dij","Practice diganostic trial","","f","practice","13","false","1","LEFT","f","1","","","","","",""
"","html-keyboard-response","37","88816","0.0-62.0","hpwxvcom","1440","900","","","","","","","","","","","null","+","Fixation - short","","null","","","","","","","","","","","","",""
"","html-keyboard-response","38","89432","0.0-63.0","hpwxvcom","1440","900","","","","","","","","","","","615","dij","Practice diganostic trial","","j","practice","14","false","0","RIGHT","j","1","","","","","",""
"","html-keyboard-response","39","90186","0.0-66.0","hpwxvcom","1440","900","","","","","","","","","","","null","+","Fixation - short","","null","","","","","","","","","","","","",""
"","html-keyboard-response","40","90953","0.0-67.0","hpwxvcom","1440","900","","","","","","","","","","","767","vnn","Practice diganostic trial","","f","practice","15","false","1","LEFT","f","1","","","","","",""
"","html-keyboard-response","41","91710","0.0-70.0","hpwxvcom","1440","900","","","","","","","","","","","null","+","Fixation - short","","null","","","","","","","","","","","","",""
"","instructions","42","104353","0.0-71.0","hpwxvcom","1440","900","","","","","","","","","","[{""page_index"":0,""viewing_time"":12642}]","12642","Instructions","Final experiment explanation","","","","","","","","","","","","","","",""
"","html-keyboard-response","43","113443","0.0-72.0","hpwxvcom","1440","900","","","","","","","","","","","7585","If lpn press LEFT | If pbz press RIGHT","Practice inducer instructions",""," ","practice","","","","","","","","","","","",""
"","html-keyboard-response","44","115080","0.0-73.0","hpwxvcom","1440","900","","","","","","","","","","","1636","","Practice inducer trial","","j","practice","","true","","","j","1","RIGHT","","","","",""
"","html-keyboard-response","45","115835","0.0-76.0","hpwxvcom","1440","900","","","","","","","","","","","null","+","Fixation - short","","null","","","","","","","","","","","","",""
"","html-keyboard-response","46","121007","0.0-77.0","hpwxvcom","1440","900","","","","","","","","","","","5170","If rbc press LEFT | If jup press RIGHT","Practice inducer instructions",""," ","practice","","","","","","","","","","","",""
"","html-keyboard-response","47","121968","0.0-78.0","hpwxvcom","1440","900","","","","","","","","","","","958","","Practice inducer trial","","j","practice","","true","","","j","1","RIGHT","","","","",""
"","html-keyboard-response","48","122722","0.0-81.0","hpwxvcom","1440","900","","","","","","","","","","","null","+","Fixation - short","","null","","","","","","","","","","","","",""
"","html-keyboard-response","49","125003","0.0-82.0","hpwxvcom","1440","900","","","","","","","","","","","2280","If kho press LEFT | If cnl press RIGHT","Practice inducer instructions",""," ","practice","","","","","","","","","","","",""
"","html-keyboard-response","50","125784","0.0-83.0","hpwxvcom","1440","900","","","","","","","","","","","780","","Practice inducer trial","","f","practice","","true","","","f","1","LEFT","","","","",""
"","html-keyboard-response","51","126540","0.0-86.0","hpwxvcom","1440","900","","","","","","","","","","","null","+","Fixation - short","","null","","","","","","","","","","","","",""
"","html-keyboard-response","52","128436","0.0-87.0","hpwxvcom","1440","900","","","","","","","","","","","1895","If lff press LEFT | If ibg press RIGHT","Practice inducer instructions",""," ","practice","","","","","","","","","","","",""
"","html-keyboard-response","53","129370","0.0-88.0","hpwxvcom","1440","900","","","","","","","","","","","933","","Practice inducer trial","","j","practice","","true","","","j","1","RIGHT","","","","",""
"","html-keyboard-response","54","130125","0.0-91.0","hpwxvcom","1440","900","","","","","","","","","","","null","+","Fixation - short","","null","","","","","","","","","","","","",""
"","html-keyboard-response","55","132440","0.0-92.0","hpwxvcom","1440","900","","","","","","","","","","","2313","If sdw press LEFT | If rrd press RIGHT","Practice inducer instructions",""," ","practice","","","","","","","","","","","",""
"","html-keyboard-response","56","133143","0.0-93.0","hpwxvcom","1440","900","","","","","","","","","","","700","","Practice inducer trial","","f","practice","","true","","","f","1","LEFT","","","","",""
"","html-keyboard-response","57","133898","0.0-96.0","hpwxvcom","1440","900","","","","","","","","","","","null","+","Fixation - short","","null","","","","","","","","","","","","",""
"","html-keyboard-response","58","134942","0.0-97.0","hpwxvcom","1440","900","","","","","","","","","","","1043","If pcm press LEFT | If dul press RIGHT","Practice inducer instructions",""," ","practice","","","","","","","","","","","",""
"","html-keyboard-response","59","135764","0.0-98.0","hpwxvcom","1440","900","","","","","","","","","","","822","","Practice inducer trial","","f","practice","","true","","","f","1","LEFT","","","","",""
"","html-keyboard-response","60","136519","0.0-101.0","hpwxvcom","1440","900","","","","","","","","","","","null","+","Fixation - short","","null","","","","","","","","","","","","",""
"","html-keyboard-response","61","144106","0.0-102.0","hpwxvcom","1440","900","","","","","","","","","","","7582","End practice","End of practice",""," ","","","","","","","","","","","","",""
"","html-keyboard-response","62","145610","0.0-103.0","hpwxvcom","1440","900","","","","","","","","","","","null","+","Fixation - long","","null","","","","","","","","","","","","",""
"","html-keyboard-response","63","147317","0.0-104.0","hpwxvcom","1440","900","","","","","","","","","","","1706","If hhd press LEFT | If glp press RIGHT","Inducer instructions",""," ","0","","","","","","","","","","","",""
"","html-keyboard-response","64","148074","0.0-105.0","hpwxvcom","1440","900","","","","","","","","","","","null","+","Fixation - short","","null","","","","","","","","","","","","",""
"","html-keyboard-response","65","148826","0.0-106.0","hpwxvcom","1440","900","","","","","","","","","","","752","glp","Diagnostic trial","","j","0","0","false","true","LEFT","f","0","","RIGHT","false","","",""
"","call-function","66","148828","0.0-108.0-0.0","hpwxvcom","","","","","","","","","","","","","","","","","","","","","","","","","","","","","",""
"","html-keyboard-response","67","149132","0.0-108.0-1.0","hpwxvcom","1440","900","","","","","","","","","","","null","Wrong","Feedback","","null","","","","","","","","","","","","",""
"","call-function","68","149132","0.0-108.0-2.0","hpwxvcom","","","","","","","","","","","","","","","","","","","","","","","","","","","","","",""
"","html-keyboard-response","69","149888","0.0-109.0","hpwxvcom","1440","900","","","","","","","","","","","null","+","Fixation - short","","null","","","","","","","","","","","","",""
"","html-keyboard-response","70","151034","0.0-110.0","hpwxvcom","1440","900","","","","","","","","","","","1145","hhd","Diagnostic trial","","f","0","1","false","true","LEFT","f","1","","LEFT","true","","",""
"","html-keyboard-response","71","151785","0.0-113.0","hpwxvcom","1440","900","","","","","","","","","","","null","+","Fixation - short","","null","","","","","","","","","","","","",""
"","html-keyboard-response","72","152557","0.0-114.0","hpwxvcom","1440","900","","","","","","","","","","","771","hhd","Diagnostic trial","","f","0","2","false","false","RIGHT","j","0","","LEFT","false","","",""
"","call-function","73","152558","0.0-116.0-0.0","hpwxvcom","","","","","","","","","","","","","","","","","","","","","","","","","","","","","",""
"","html-keyboard-response","74","152862","0.0-116.0-1.0","hpwxvcom","1440","900","","","","","","","","","","","null","Wrong","Feedback","","null","","","","","","","","","","","","",""
"","call-function","75","152863","0.0-116.0-2.0","hpwxvcom","","","","","","","","","","","","","","","","","","","","","","","","","","","","","",""
"","html-keyboard-response","76","153619","0.0-117.0","hpwxvcom","1440","900","","","","","","","","","","","null","+","Fixation - short","","null","","","","","","","","","","","","",""
"","html-keyboard-response","77","154326","0.0-118.0","hpwxvcom","1440","900","","","","","","","","","","","707","hhd","Diagnostic trial","","f","0","3","false","true","LEFT","f","1","","LEFT","true","","",""
"","html-keyboard-response","78","155082","0.0-121.0","hpwxvcom","1440","900","","","","","","","","","","","null","+","Fixation - short","","null","","","","","","","","","","","","",""
"","html-keyboard-response","79","156472","0.0-122.0","hpwxvcom","1440","900","","","","","","","","","","","1388","glp","Inducer trial","","f","0","","true","","","j","0","RIGHT","","","","",""
"","call-function","80","156473","0.0-124.0-0.0","hpwxvcom","","","","","","","","","","","","","","","","","","","","","","","","","","","","","",""
"","html-keyboard-response","81","156777","0.0-124.0-1.0","hpwxvcom","1440","900","","","","","","","","","","","null","Wrong","Feedback","","null","","","","","","","","","","","","",""
"","call-function","82","156780","0.0-124.0-2.0","hpwxvcom","","","","","","","","","","","","","","","","","","","","","","","","","","","","","",""
"","html-keyboard-response","83","158286","0.0-125.0","hpwxvcom","1440","900","","","","","","","","","","","null","+","Fixation - long","","null","","","","","","","","","","","","",""
"","html-keyboard-response","84","164672","0.0-126.0","hpwxvcom","1440","900","","","","","","","","","","","6385","If bgi press LEFT | If dnc press RIGHT","Inducer instructions",""," ","1","","","","","","","","","","","",""
"","html-keyboard-response","85","165426","0.0-127.0","hpwxvcom","1440","900","","","","","","","","","","","null","+","Fixation - short","","null","","","","","","","","","","","","",""
"","html-keyboard-response","86","166159","0.0-128.0","hpwxvcom","1440","900","","","","","","","","","","","732","bgi","Diagnostic trial","","f","1","0","false","true","LEFT","f","1","","LEFT","true","","",""
"","html-keyboard-response","87","166913","0.0-131.0","hpwxvcom","1440","900","","","","","","","","","","","null","+","Fixation - short","","null","","","","","","","","","","","","",""
"","html-keyboard-response","88","167571","0.0-132.0","hpwxvcom","1440","900","","","","","","","","","","","657","bgi","Diagnostic trial","","f","1","1","false","false","RIGHT","j","0","","LEFT","false","","",""
"","call-function","89","167572","0.0-134.0-0.0","hpwxvcom","","","","","","","","","","","","","","","","","","","","","","","","","","","","","",""
"","html-keyboard-response","90","167877","0.0-134.0-1.0","hpwxvcom","1440","900","","","","","","","","","","","null","Wrong","Feedback","","null","","","","","","","","","","","","",""
"","call-function","91","167877","0.0-134.0-2.0","hpwxvcom","","","","","","","","","","","","","","","","","","","","","","","","","","","","","",""
"","html-keyboard-response","92","168631","0.0-135.0","hpwxvcom","1440","900","","","","","","","","","","","null","+","Fixation - short","","null","","","","","","","","","","","","",""
"","html-keyboard-response","93","170618","0.0-136.0","hpwxvcom","1440","900","","","","","","","","","","","1987","dnc","Diagnostic trial","","j","1","2","false","false","RIGHT","j","1","","RIGHT","true","","",""
"","html-keyboard-response","94","171377","0.0-139.0","hpwxvcom","1440","900","","","","","","","","","","","null","+","Fixation - short","","null","","","","","","","","","","","","",""
"","html-keyboard-response","95","172262","0.0-140.0","hpwxvcom","1440","900","","","","","","","","","","","884","dnc","Diagnostic trial","","f","1","3","false","true","LEFT","f","1","","RIGHT","false","","",""
"","html-keyboard-response","96","173016","0.0-143.0","hpwxvcom","1440","900","","","","","","","","","","","null","+","Fixation - short","","null","","","","","","","","","","","","",""
"","html-keyboard-response","97","174249","0.0-144.0","hpwxvcom","1440","900","","","","","","","","","","","1232","dnc","Diagnostic trial","","f","1","4","false","true","LEFT","f","1","","RIGHT","false","","",""
"","html-keyboard-response","98","175002","0.0-147.0","hpwxvcom","1440","900","","","","","","","","","","","null","+","Fixation - short","","null","","","","","","","","","","","","",""
"","html-keyboard-response","99","176509","0.0-148.0","hpwxvcom","1440","900","","","","","","","","","","","1506","bgi","Diagnostic trial","","j","1","5","false","false","RIGHT","j","1","","LEFT","false","","",""
"","html-keyboard-response","100","177266","0.0-151.0","hpwxvcom","1440","900","","","","","","","","","","","null","+","Fixation - short","","null","","","","","","","","","","","","",""
"","html-keyboard-response","101","178533","0.0-152.0","hpwxvcom","1440","900","","","","","","","","","","","1266","bgi","Diagnostic trial","","f","1","6","false","true","LEFT","f","1","","LEFT","true","","",""
"","html-keyboard-response","102","179288","0.0-155.0","hpwxvcom","1440","900","","","","","","","","","","","null","+","Fixation - short","","null","","","","","","","","","","","","",""
"","html-keyboard-response","103","181111","0.0-156.0","hpwxvcom","1440","900","","","","","","","","","","","1822","dnc","Diagnostic trial","","j","1","7","false","false","RIGHT","j","1","","RIGHT","true","","",""
"","html-keyboard-response","104","181865","0.0-159.0","hpwxvcom","1440","900","","","","","","","","","","","null","+","Fixation - short","","null","","","","","","","","","","","","",""
"","html-keyboard-response","105","183054","0.0-160.0","hpwxvcom","1440","900","","","","","","","","","","","1189","dnc","Diagnostic trial","","j","1","8","false","false","RIGHT","j","1","","RIGHT","true","","",""
"","html-keyboard-response","106","183808","0.0-163.0","hpwxvcom","1440","900","","","","","","","","","","","null","+","Fixation - short","","null","","","","","","","","","","","","",""
"","html-keyboard-response","107","185813","0.0-164.0","hpwxvcom","1440","900","","","","","","","","","","","null","bgi","Inducer trial","","null","1","","true","","","f","NaN","LEFT","","","","",""
"","call-function","108","185814","0.0-165.0-0.0","hpwxvcom","","","","","","","","","","","","","","","","","","","","","","","","","","","","","",""
"","html-keyboard-response","109","186121","0.0-165.0-1.0","hpwxvcom","1440","900","","","","","","","","","","","null","Slow","Feedback","","null","","","","","","","","","","","","",""
"","call-function","110","186122","0.0-165.0-2.0","hpwxvcom","","","","","","","","","","","","","","","","","","","","","","","","","","","","","",""
"","html-keyboard-response","111","187627","0.0-167.0","hpwxvcom","1440","900","","","","","","","","","","","null","+","Fixation - long","","null","","","","","","","","","","","","",""
"","html-keyboard-response","112","193231","0.0-168.0","hpwxvcom","1440","900","","","","","","","","","","","5603","If jsf press LEFT | If vbt press RIGHT","Inducer instructions",""," ","2","","","","","","","","","","","",""
"","html-keyboard-response","113","193986","0.0-169.0","hpwxvcom","1440","900","","","","","","","","","","","null","+","Fixation - short","","null","","","","","","","","","","","","",""
"","html-keyboard-response","114","195481","0.0-170.0","hpwxvcom","1440","900","","","","","","","","","","","1494","jsf","Diagnostic trial","","f","2","0","false","true","LEFT","f","1","","LEFT","true","","",""
"","html-keyboard-response","115","196236","0.0-173.0","hpwxvcom","1440","900","","","","","","","","","","","null","+","Fixation - short","","null","","","","","","","","","","","","",""
"","html-keyboard-response","116","196992","0.0-174.0","hpwxvcom","1440","900","","","","","","","","","","","756","jsf","Diagnostic trial","","f","2","1","false","true","LEFT","f","1","","LEFT","true","","",""
"","html-keyboard-response","117","197747","0.0-177.0","hpwxvcom","1440","900","","","","","","","","","","","null","+","Fixation - short","","null","","","","","","","","","","","","",""
"","html-keyboard-response","118","198943","0.0-178.0","hpwxvcom","1440","900","","","","","","","","","","","1195","jsf","Diagnostic trial","","j","2","2","false","false","RIGHT","j","1","","LEFT","false","","",""
"","html-keyboard-response","119","199697","0.0-181.0","hpwxvcom","1440","900","","","","","","","","","","","null","+","Fixation - short","","null","","","","","","","","","","","","",""
"","html-keyboard-response","120","200847","0.0-182.0","hpwxvcom","1440","900","","","","","","","","","","","1149","vbt","Diagnostic trial","","j","2","3","false","false","RIGHT","j","1","","RIGHT","true","","",""
"","html-keyboard-response","121","201602","0.0-185.0","hpwxvcom","1440","900","","","","","","","","","","","null","+","Fixation - short","","null","","","","","","","","","","","","",""
"","html-keyboard-response","122","202265","0.0-186.0","hpwxvcom","1440","900","","","","","","","","","","","662","vbt","Diagnostic trial","","j","2","4","false","false","RIGHT","j","1","","RIGHT","true","","",""
"","html-keyboard-response","123","203016","0.0-189.0","hpwxvcom","1440","900","","","","","","","","","","","null","+","Fixation - short","","null","","","","","","","","","","","","",""
"","html-keyboard-response","124","204025","0.0-190.0","hpwxvcom","1440","900","","","","","","","","","","","1008","jsf","Diagnostic trial","","j","2","5","false","false","RIGHT","j","1","","LEFT","false","","",""
"","html-keyboard-response","125","204780","0.0-193.0","hpwxvcom","1440","900","","","","","","","","","","","null","+","Fixation - short","","null","","","","","","","","","","","","",""
"","html-keyboard-response","126","205312","0.0-194.0","hpwxvcom","1440","900","","","","","","","","","","","529","jsf","Diagnostic trial","","j","2","6","false","false","RIGHT","j","1","","LEFT","false","","",""
"","html-keyboard-response","127","206066","0.0-197.0","hpwxvcom","1440","900","","","","","","","","","","","null","+","Fixation - short","","null","","","","","","","","","","","","",""
"","html-keyboard-response","128","206733","0.0-198.0","hpwxvcom","1440","900","","","","","","","","","","","667","vbt","Diagnostic trial","","j","2","7","false","false","RIGHT","j","1","","RIGHT","true","","",""
"","html-keyboard-response","129","207488","0.0-201.0","hpwxvcom","1440","900","","","","","","","","","","","null","+","Fixation - short","","null","","","","","","","","","","","","",""
"","html-keyboard-response","130","208021","0.0-202.0","hpwxvcom","1440","900","","","","","","","","","","","532","jsf","Diagnostic trial","","f","2","8","false","true","LEFT","f","1","","LEFT","true","","",""
"","html-keyboard-response","131","208774","0.0-205.0","hpwxvcom","1440","900","","","","","","","","","","","null","+","Fixation - short","","null","","","","","","","","","","","","",""
"","html-keyboard-response","132","209233","0.0-206.0","hpwxvcom","1440","900","","","","","","","","","","","459","vbt","Diagnostic trial","","j","2","9","false","true","LEFT","f","0","","RIGHT","false","","",""
"","call-function","133","209234","0.0-208.0-0.0","hpwxvcom","","","","","","","","","","","","","","","","","","","","","","","","","","","","","",""
"","html-keyboard-response","134","209540","0.0-208.0-1.0","hpwxvcom","1440","900","","","","","","","","","","","null","Wrong","Feedback","","null","","","","","","","","","","","","",""
"","call-function","135","209540","0.0-208.0-2.0","hpwxvcom","","","","","","","","","","","","","","","","","","","","","","","","","","","","","",""
"","html-keyboard-response","136","210296","0.0-209.0","hpwxvcom","1440","900","","","","","","","","","","","null","+","Fixation - short","","null","","","","","","","","","","","","",""
"","html-keyboard-response","137","210949","0.0-210.0","hpwxvcom","1440","900","","","","","","","","","","","652","vbt","Diagnostic trial","","j","2","10","false","false","RIGHT","j","1","","RIGHT","true","","",""
"","html-keyboard-response","138","211705","0.0-213.0","hpwxvcom","1440","900","","","","","","","","","","","null","+","Fixation - short","","null","","","","","","","","","","","","",""
"","html-keyboard-response","139","212269","0.0-214.0","hpwxvcom","1440","900","","","","","","","","","","","563","vbt","Diagnostic trial","","j","2","11","false","false","RIGHT","j","1","","RIGHT","true","","",""
"","html-keyboard-response","140","213023","0.0-217.0","hpwxvcom","1440","900","","","","","","","","","","","null","+","Fixation - short","","null","","","","","","","","","","","","",""
"","html-keyboard-response","141","213587","0.0-218.0","hpwxvcom","1440","900","","","","","","","","","","","563","jsf","Diagnostic trial","","f","2","12","false","true","LEFT","f","1","","LEFT","true","","",""
"","html-keyboard-response","142","214342","0.0-221.0","hpwxvcom","1440","900","","","","","","","","","","","null","+","Fixation - short","","null","","","","","","","","","","","","",""
"","html-keyboard-response","143","215419","0.0-222.0","hpwxvcom","1440","900","","","","","","","","","","","1077","jsf","Diagnostic trial","","j","2","13","false","false","RIGHT","j","1","","LEFT","false","","",""
"","html-keyboard-response","144","216175","0.0-225.0","hpwxvcom","1440","900","","","","","","","","","","","null","+","Fixation - short","","null","","","","","","","","","","","","",""
"","html-keyboard-response","145","217163","0.0-226.0","hpwxvcom","1440","900","","","","","","","","","","","988","jsf","Inducer trial","","j","2","","true","","","f","0","LEFT","","","","",""
"","call-function","146","217164","0.0-228.0-0.0","hpwxvcom","","","","","","","","","","","","","","","","","","","","","","","","","","","","","",""
"","html-keyboard-response","147","217469","0.0-228.0-1.0","hpwxvcom","1440","900","","","","","","","","","","","null","Wrong","Feedback","","null","","","","","","","","","","","","",""
"","call-function","148","217470","0.0-228.0-2.0","hpwxvcom","","","","","","","","","","","","","","","","","","","","","","","","","","","","","",""
"","html-keyboard-response","149","218975","0.0-229.0","hpwxvcom","1440","900","","","","","","","","","","","null","+","Fixation - long","","null","","","","","","","","","","","","",""
"","html-keyboard-response","150","224163","0.0-230.0","hpwxvcom","1440","900","","","","","","","","","","","5189","If jlm press LEFT | If dpa press RIGHT","Inducer instructions",""," ","3","","","","","","","","","","","",""
"","html-keyboard-response","151","224921","0.0-231.0","hpwxvcom","1440","900","","","","","","","","","","","null","+","Fixation - short","","null","","","","","","","","","","","","",""
"","html-keyboard-response","152","226281","0.0-232.0","hpwxvcom","1440","900","","","","","","","","","","","1360","dpa","Diagnostic trial","","f","3","0","false","true","LEFT","f","1","","RIGHT","false","","",""
"","html-keyboard-response","153","227036","0.0-235.0","hpwxvcom","1440","900","","","","","","","","","","","null","+","Fixation - short","","null","","","","","","","","","","","","",""
"","html-keyboard-response","154","227717","0.0-236.0","hpwxvcom","1440","900","","","","","","","","","","","681","dpa","Diagnostic trial","","f","3","1","false","true","LEFT","f","1","","RIGHT","false","","",""
"","html-keyboard-response","155","228469","0.0-239.0","hpwxvcom","1440","900","","","","","","","","","","","null","+","Fixation - short","","null","","","","","","","","","","","","",""
"","html-keyboard-response","156","229385","0.0-240.0","hpwxvcom","1440","900","","","","","","","","","","","916","jlm","Diagnostic trial","","j","3","2","false","false","RIGHT","j","1","","LEFT","false","","",""
"","html-keyboard-response","157","230137","0.0-243.0","hpwxvcom","1440","900","","","","","","","","","","","null","+","Fixation - short","","null","","","","","","","","","","","","",""
"","html-keyboard-response","158","231042","0.0-244.0","hpwxvcom","1440","900","","","","","","","","","","","903","jlm","Diagnostic trial","","f","3","3","false","true","LEFT","f","1","","LEFT","true","","",""
"","html-keyboard-response","159","231795","0.0-247.0","hpwxvcom","1440","900","","","","","","","","","","","null","+","Fixation - short","","null","","","","","","","","","","","","",""
"","html-keyboard-response","160","232478","0.0-248.0","hpwxvcom","1440","900","","","","","","","","","","","676","dpa","Diagnostic trial","","j","3","4","false","false","RIGHT","j","1","","RIGHT","true","","",""
"","html-keyboard-response","161","233232","0.0-251.0","hpwxvcom","1440","900","","","","","","","","","","","null","+","Fixation - short","","null","","","","","","","","","","","","",""
"","html-keyboard-response","162","233859","0.0-252.0","hpwxvcom","1440","900","","","","","","","","","","","626","dpa","Diagnostic trial","","j","3","5","false","false","RIGHT","j","1","","RIGHT","true","","",""
"","html-keyboard-response","163","234613","0.0-255.0","hpwxvcom","1440","900","","","","","","","","","","","null","+","Fixation - short","","null","","","","","","","","","","","","",""
"","html-keyboard-response","164","235237","0.0-256.0","hpwxvcom","1440","900","","","","","","","","","","","623","dpa","Diagnostic trial","","j","3","6","false","false","RIGHT","j","1","","RIGHT","true","","",""
"","html-keyboard-response","165","235989","0.0-259.0","hpwxvcom","1440","900","","","","","","","","","","","null","+","Fixation - short","","null","","","","","","","","","","","","",""
"","html-keyboard-response","166","236898","0.0-260.0","hpwxvcom","1440","900","","","","","","","","","","","907","jlm","Diagnostic trial","","j","3","7","false","false","RIGHT","j","1","","LEFT","false","","",""
"","html-keyboard-response","167","237652","0.0-263.0","hpwxvcom","1440","900","","","","","","","","","","","null","+","Fixation - short","","null","","","","","","","","","","","","",""
"","html-keyboard-response","168","238266","0.0-264.0","hpwxvcom","1440","900","","","","","","","","","","","613","jlm","Diagnostic trial","","j","3","8","false","false","RIGHT","j","1","","LEFT","false","","",""
"","html-keyboard-response","169","239022","0.0-267.0","hpwxvcom","1440","900","","","","","","","","","","","null","+","Fixation - short","","null","","","","","","","","","","","","",""
"","html-keyboard-response","170","239607","0.0-268.0","hpwxvcom","1440","900","","","","","","","","","","","584","jlm","Diagnostic trial","","f","3","9","false","true","LEFT","f","1","","LEFT","true","","",""
"","html-keyboard-response","171","240363","0.0-271.0","hpwxvcom","1440","900","","","","","","","","","","","null","+","Fixation - short","","null","","","","","","","","","","","","",""
"","html-keyboard-response","172","241104","0.0-272.0","hpwxvcom","1440","900","","","","","","","","","","","741","jlm","Diagnostic trial","","f","3","10","false","true","LEFT","f","1","","LEFT","true","","",""
"","html-keyboard-response","173","241857","0.0-275.0","hpwxvcom","1440","900","","","","","","","","","","","null","+","Fixation - short","","null","","","","","","","","","","","","",""
"","html-keyboard-response","174","242821","0.0-276.0","hpwxvcom","1440","900","","","","","","","","","","","958","jlm","Diagnostic trial","","j","3","11","false","false","RIGHT","j","1","","LEFT","false","","",""
"","html-keyboard-response","175","243576","0.0-279.0","hpwxvcom","1440","900","","","","","","","","","","","null","+","Fixation - short","","null","","","","","","","","","","","","",""
"","html-keyboard-response","176","244605","0.0-280.0","hpwxvcom","1440","900","","","","","","","","","","","1028","jlm","Inducer trial","","f","3","","true","","","f","1","LEFT","","","","",""
"","html-keyboard-response","177","246111","0.0-283.0","hpwxvcom","1440","900","","","","","","","","","","","null","+","Fixation - long","","null","","","","","","","","","","","","",""
"","html-keyboard-response","178","247628","0.0-284.0","hpwxvcom","1440","900","","","","","","","","","","","1516","If flh press LEFT | If eht press RIGHT","Inducer instructions",""," ","4","","","","","","","","","","","",""
"","html-keyboard-response","179","248382","0.0-285.0","hpwxvcom","1440","900","","","","","","","","","","","null","+","Fixation - short","","null","","","","","","","","","","","","",""
"","html-keyboard-response","180","249436","0.0-286.0","hpwxvcom","1440","900","","","","","","","","","","","1053","eht","Diagnostic trial","","f","4","0","false","true","LEFT","f","1","","RIGHT","false","","",""
"","html-keyboard-response","181","250192","0.0-289.0","hpwxvcom","1440","900","","","","","","","","","","","null","+","Fixation - short","","null","","","","","","","","","","","","",""
"","html-keyboard-response","182","250932","0.0-290.0","hpwxvcom","1440","900","","","","","","","","","","","739","eht","Diagnostic trial","","j","4","1","false","false","RIGHT","j","1","","RIGHT","true","","",""
"","html-keyboard-response","183","251688","0.0-293.0","hpwxvcom","1440","900","","","","","","","","","","","null","+","Fixation - short","","null","","","","","","","","","","","","",""
"","html-keyboard-response","184","252505","0.0-294.0","hpwxvcom","1440","900","","","","","","","","","","","816","eht","Diagnostic trial","","j","4","2","false","false","RIGHT","j","1","","RIGHT","true","","",""
"","html-keyboard-response","185","253261","0.0-297.0","hpwxvcom","1440","900","","","","","","","","","","","null","+","Fixation - short","","null","","","","","","","","","","","","",""
"","html-keyboard-response","186","253851","0.0-298.0","hpwxvcom","1440","900","","","","","","","","","","","589","eht","Diagnostic trial","","j","4","3","false","false","RIGHT","j","1","","RIGHT","true","","",""
"","html-keyboard-response","187","254605","0.0-301.0","hpwxvcom","1440","900","","","","","","","","","","","null","+","Fixation - short","","null","","","","","","","","","","","","",""
"","html-keyboard-response","188","255402","0.0-302.0","hpwxvcom","1440","900","","","","","","","","","","","794","flh","Diagnostic trial","","j","4","4","false","false","RIGHT","j","1","","LEFT","false","","",""
"","html-keyboard-response","189","256158","0.0-305.0","hpwxvcom","1440","900","","","","","","","","","","","null","+","Fixation - short","","null","","","","","","","","","","","","",""
"","html-keyboard-response","190","257056","0.0-306.0","hpwxvcom","1440","900","","","","","","","","","","","898","flh","Diagnostic trial","","f","4","5","false","true","LEFT","f","1","","LEFT","true","","",""
"","html-keyboard-response","191","257814","0.0-309.0","hpwxvcom","1440","900","","","","","","","","","","","null","+","Fixation - short","","null","","","","","","","","","","","","",""
"","html-keyboard-response","192","259152","0.0-310.0","hpwxvcom","1440","900","","","","","","","","","","","1337","flh","Inducer trial","","f","4","","true","","","f","1","LEFT","","","","",""
"","html-keyboard-response","193","260658","0.0-313.0","hpwxvcom","1440","900","","","","","","","","","","","null","+","Fixation - long","","null","","","","","","","","","","","","",""
"","html-keyboard-response","194","262097","0.0-314.0","hpwxvcom","1440","900","","","","","","","","","","","1438","If idy press LEFT | If cta press RIGHT","Inducer instructions",""," ","5","","","","","","","","","","","",""
"","html-keyboard-response","195","262854","0.0-315.0","hpwxvcom","1440","900","","","","","","","","","","","null","+","Fixation - short","","null","","","","","","","","","","","","",""
"","html-keyboard-response","196","263747","0.0-316.0","hpwxvcom","1440","900","","","","","","","","","","","892","cta","Diagnostic trial","","j","5","0","false","false","RIGHT","j","1","","RIGHT","true","","",""
"","html-keyboard-response","197","264502","0.0-319.0","hpwxvcom","1440","900","","","","","","","","","","","null","+","Fixation - short","","null","","","","","","","","","","","","",""
"","html-keyboard-response","198","265176","0.0-320.0","hpwxvcom","1440","900","","","","","","","","","","","673","idy","Diagnostic trial","","j","5","1","false","false","RIGHT","j","1","","LEFT","false","","",""
"","html-keyboard-response","199","265930","0.0-323.0","hpwxvcom","1440","900","","","","","","","","","","","null","+","Fixation - short","","null","","","","","","","","","","","","",""
"","html-keyboard-response","200","266557","0.0-324.0","hpwxvcom","1440","900","","","","","","","","","","","626","idy","Diagnostic trial","","f","5","2","false","true","LEFT","f","1","","LEFT","true","","",""
"","html-keyboard-response","201","267314","0.0-327.0","hpwxvcom","1440","900","","","","","","","","","","","null","+","Fixation - short","","null","","","","","","","","","","","","",""
"","html-keyboard-response","202","268152","0.0-328.0","hpwxvcom","1440","900","","","","","","","","","","","838","cta","Diagnostic trial","","f","5","3","false","true","LEFT","f","1","","RIGHT","false","","",""
"","html-keyboard-response","203","268908","0.0-331.0","hpwxvcom","1440","900","","","","","","","","","","","null","+","Fixation - short","","null","","","","","","","","","","","","",""
"","html-keyboard-response","204","270444","0.0-332.0","hpwxvcom","1440","900","","","","","","","","","","","1535","idy","Inducer trial","","f","5","","true","","","f","1","LEFT","","","","",""
"","html-keyboard-response","205","271950","0.0-335.0","hpwxvcom","1440","900","","","","","","","","","","","null","+","Fixation - long","","null","","","","","","","","","","","","",""
"","html-keyboard-response","206","272899","0.0-336.0","hpwxvcom","1440","900","","","","","","","","","","","949","If prg press LEFT | If pph press RIGHT","Inducer instructions",""," ","6","","","","","","","","","","","",""
"","html-keyboard-response","207","273653","0.0-337.0","hpwxvcom","1440","900","","","","","","","","","","","null","+","Fixation - short","","null","","","","","","","","","","","","",""
"","html-keyboard-response","208","275050","0.0-338.0","hpwxvcom","1440","900","","","","","","","","","","","1396","pph","Diagnostic trial","","f","6","0","false","true","LEFT","f","1","","RIGHT","false","","",""
"","html-keyboard-response","209","275806","0.0-341.0","hpwxvcom","1440","900","","","","","","","","","","","null","+","Fixation - short","","null","","","","","","","","","","","","",""
"","html-keyboard-response","210","276593","0.0-342.0","hpwxvcom","1440","900","","","","","","","","","","","786","pph","Diagnostic trial","","f","6","1","false","true","LEFT","f","1","","RIGHT","false","","",""
"","html-keyboard-response","211","277348","0.0-345.0","hpwxvcom","1440","900","","","","","","","","","","","null","+","Fixation - short","","null","","","","","","","","","","","","",""
"","html-keyboard-response","212","277963","0.0-346.0","hpwxvcom","1440","900","","","","","","","","","","","614","pph","Diagnostic trial","","j","6","2","false","false","RIGHT","j","1","","RIGHT","true","","",""
"","html-keyboard-response","213","278718","0.0-349.0","hpwxvcom","1440","900","","","","","","","","","","","null","+","Fixation - short","","null","","","","","","","","","","","","",""
"","html-keyboard-response","214","279492","0.0-350.0","hpwxvcom","1440","900","","","","","","","","","","","773","pph","Diagnostic trial","","f","6","3","false","true","LEFT","f","1","","RIGHT","false","","",""
"","html-keyboard-response","215","280244","0.0-353.0","hpwxvcom","1440","900","","","","","","","","","","","null","+","Fixation - short","","null","","","","","","","","","","","","",""
"","html-keyboard-response","216","281544","0.0-354.0","hpwxvcom","1440","900","","","","","","","","","","","1298","prg","Diagnostic trial","","f","6","4","false","true","LEFT","f","1","","LEFT","true","","",""
"","html-keyboard-response","217","282299","0.0-357.0","hpwxvcom","1440","900","","","","","","","","","","","null","+","Fixation - short","","null","","","","","","","","","","","","",""
"","html-keyboard-response","218","283039","0.0-358.0","hpwxvcom","1440","900","","","","","","","","","","","738","prg","Diagnostic trial","","f","6","5","false","true","LEFT","f","1","","LEFT","true","","",""
"","html-keyboard-response","219","283794","0.0-361.0","hpwxvcom","1440","900","","","","","","","","","","","null","+","Fixation - short","","null","","","","","","","","","","","","",""
"","html-keyboard-response","220","284686","0.0-362.0","hpwxvcom","1440","900","","","","","","","","","","","892","pph","Diagnostic trial","","f","6","6","false","false","RIGHT","j","0","","RIGHT","true","","",""
"","call-function","221","284687","0.0-364.0-0.0","hpwxvcom","","","","","","","","","","","","","","","","","","","","","","","","","","","","","",""
"","html-keyboard-response","222","284989","0.0-364.0-1.0","hpwxvcom","1440","900","","","","","","","","","","","null","Wrong","Feedback","","null","","","","","","","","","","","","",""
"","call-function","223","284990","0.0-364.0-2.0","hpwxvcom","","","","","","","","","","","","","","","","","","","","","","","","","","","","","",""
"","html-keyboard-response","224","285746","0.0-365.0","hpwxvcom","1440","900","","","","","","","","","","","null","+","Fixation - short","","null","","","","","","","","","","","","",""
"","html-keyboard-response","225","286489","0.0-366.0","hpwxvcom","1440","900","","","","","","","","","","","742","pph","Diagnostic trial","","j","6","7","false","false","RIGHT","j","1","","RIGHT","true","","",""
"","html-keyboard-response","226","287245","0.0-369.0","hpwxvcom","1440","900","","","","","","","","","","","null","+","Fixation - short","","null","","","","","","","","","","","","",""
"","html-keyboard-response","227","288263","0.0-370.0","hpwxvcom","1440","900","","","","","","","","","","","1017","prg","Diagnostic trial","","f","6","8","false","true","LEFT","f","1","","LEFT","true","","",""
"","html-keyboard-response","228","289027","0.0-373.0","hpwxvcom","1440","900","","","","","","","","","","","null","+","Fixation - short","","null","","","","","","","","","","","","",""
"","html-keyboard-response","229","289792","0.0-374.0","hpwxvcom","1440","900","","","","","","","","","","","764","pph","Diagnostic trial","","f","6","9","false","true","LEFT","f","1","","RIGHT","false","","",""
"","html-keyboard-response","230","290548","0.0-377.0","hpwxvcom","1440","900","","","","","","","","","","","null","+","Fixation - short","","null","","","","","","","","","","","","",""
"","html-keyboard-response","231","291259","0.0-378.0","hpwxvcom","1440","900","","","","","","","","","","","710","pph","Diagnostic trial","","f","6","10","false","true","LEFT","f","1","","RIGHT","false","","",""
"","html-keyboard-response","232","292011","0.0-381.0","hpwxvcom","1440","900","","","","","","","","","","","null","+","Fixation - short","","null","","","","","","","","","","","","",""
"","html-keyboard-response","233","292461","0.0-382.0","hpwxvcom","1440","900","","","","","","","","","","","450","pph","Diagnostic trial","","f","6","11","false","false","RIGHT","j","0","","RIGHT","true","","",""
"","call-function","234","292462","0.0-384.0-0.0","hpwxvcom","","","","","","","","","","","","","","","","","","","","","","","","","","","","","",""
"","html-keyboard-response","235","292763","0.0-384.0-1.0","hpwxvcom","1440","900","","","","","","","","","","","null","Wrong","Feedback","","null","","","","","","","","","","","","",""
"","call-function","236","292764","0.0-384.0-2.0","hpwxvcom","","","","","","","","","","","","","","","","","","","","","","","","","","","","","",""
"","html-keyboard-response","237","293519","0.0-385.0","hpwxvcom","1440","900","","","","","","","","","","","null","+","Fixation - short","","null","","","","","","","","","","","","",""
"","html-keyboard-response","238","294308","0.0-386.0","hpwxvcom","1440","900","","","","","","","","","","","788","pph","Diagnostic trial","","f","6","12","false","true","LEFT","f","1","","RIGHT","false","","",""
"","html-keyboard-response","239","295061","0.0-389.0","hpwxvcom","1440","900","","","","","","","","","","","null","+","Fixation - short","","null","","","","","","","","","","","","",""
"","html-keyboard-response","240","295806","0.0-390.0","hpwxvcom","1440","900","","","","","","","","","","","744","prg","Diagnostic trial","","j","6","13","false","false","RIGHT","j","1","","LEFT","false","","",""
"","html-keyboard-response","241","296562","0.0-393.0","hpwxvcom","1440","900","","","","","","","","","","","null","+","Fixation - short","","null","","","","","","","","","","","","",""
"","html-keyboard-response","242","297715","0.0-394.0","hpwxvcom","1440","900","","","","","","","","","","","1152","prg","Diagnostic trial","","f","6","14","false","true","LEFT","f","1","","LEFT","true","","",""
"","html-keyboard-response","243","298470","0.0-397.0","hpwxvcom","1440","900","","","","","","","","","","","null","+","Fixation - short","","null","","","","","","","","","","","","",""
"","html-keyboard-response","244","299560","0.0-398.0","hpwxvcom","1440","900","","","","","","","","","","","1089","prg","Inducer trial","","f","6","","true","","","f","1","LEFT","","","","",""
"","html-keyboard-response","245","301066","0.0-401.0","hpwxvcom","1440","900","","","","","","","","","","","null","+","Fixation - long","","null","","","","","","","","","","","","",""
"","html-keyboard-response","246","302347","0.0-402.0","hpwxvcom","1440","900","","","","","","","","","","","1278","If wwt press LEFT | If jil press RIGHT","Inducer instructions",""," ","7","","","","","","","","","","","",""
"","html-keyboard-response","247","303101","0.0-403.0","hpwxvcom","1440","900","","","","","","","","","","","null","+","Fixation - short","","null","","","","","","","","","","","","",""
"","html-keyboard-response","248","303964","0.0-404.0","hpwxvcom","1440","900","","","","","","","","","","","863","wwt","Diagnostic trial","","j","7","0","false","false","RIGHT","j","1","","LEFT","false","","",""
"","html-keyboard-response","249","304720","0.0-407.0","hpwxvcom","1440","900","","","","","","","","","","","null","+","Fixation - short","","null","","","","","","","","","","","","",""
"","html-keyboard-response","250","305513","0.0-408.0","hpwxvcom","1440","900","","","","","","","","","","","793","jil","Diagnostic trial","","j","7","1","false","false","RIGHT","j","1","","RIGHT","true","","",""
"","html-keyboard-response","251","306270","0.0-411.0","hpwxvcom","1440","900","","","","","","","","","","","null","+","Fixation - short","","null","","","","","","","","","","","","",""
"","html-keyboard-response","252","307044","0.0-412.0","hpwxvcom","1440","900","","","","","","","","","","","773","wwt","Diagnostic trial","","f","7","2","false","true","LEFT","f","1","","LEFT","true","","",""
"","html-keyboard-response","253","307800","0.0-415.0","hpwxvcom","1440","900","","","","","","","","","","","null","+","Fixation - short","","null","","","","","","","","","","","","",""
"","html-keyboard-response","254","308379","0.0-416.0","hpwxvcom","1440","900","","","","","","","","","","","578","wwt","Diagnostic trial","","f","7","3","false","true","LEFT","f","1","","LEFT","true","","",""
"","html-keyboard-response","255","309135","0.0-419.0","hpwxvcom","1440","900","","","","","","","","","","","null","+","Fixation - short","","null","","","","","","","","","","","","",""
"","html-keyboard-response","256","309700","0.0-420.0","hpwxvcom","1440","900","","","","","","","","","","","564","wwt","Diagnostic trial","","f","7","4","false","false","RIGHT","j","0","","LEFT","false","","",""
"","call-function","257","309701","0.0-422.0-0.0","hpwxvcom","","","","","","","","","","","","","","","","","","","","","","","","","","","","","",""
"","html-keyboard-response","258","310003","0.0-422.0-1.0","hpwxvcom","1440","900","","","","","","","","","","","null","Wrong","Feedback","","null","","","","","","","","","","","","",""
"","call-function","259","310005","0.0-422.0-2.0","hpwxvcom","","","","","","","","","","","","","","","","","","","","","","","","","","","","","",""
"","html-keyboard-response","260","310759","0.0-423.0","hpwxvcom","1440","900","","","","","","","","","","","null","+","Fixation - short","","null","","","","","","","","","","","","",""
"","html-keyboard-response","261","311428","0.0-424.0","hpwxvcom","1440","900","","","","","","","","","","","668","jil","Diagnostic trial","","f","7","5","false","true","LEFT","f","1","","RIGHT","false","","",""
"","html-keyboard-response","262","312185","0.0-427.0","hpwxvcom","1440","900","","","","","","","","","","","null","+","Fixation - short","","null","","","","","","","","","","","","",""
"","html-keyboard-response","263","313056","0.0-428.0","hpwxvcom","1440","900","","","","","","","","","","","870","wwt","Diagnostic trial","","f","7","6","false","true","LEFT","f","1","","LEFT","true","","",""
"","html-keyboard-response","264","313810","0.0-431.0","hpwxvcom","1440","900","","","","","","","","","","","null","+","Fixation - short","","null","","","","","","","","","","","","",""
"","html-keyboard-response","265","314669","0.0-432.0","hpwxvcom","1440","900","","","","","","","","","","","858","jil","Diagnostic trial","","j","7","7","false","false","RIGHT","j","1","","RIGHT","true","","",""
"","html-keyboard-response","266","315424","0.0-435.0","hpwxvcom","1440","900","","","","","","","","","","","null","+","Fixation - short","","null","","","","","","","","","","","","",""
"","html-keyboard-response","267","316062","0.0-436.0","hpwxvcom","1440","900","","","","","","","","","","","637","wwt","Diagnostic trial","","f","7","8","false","true","LEFT","f","1","","LEFT","true","","",""
"","html-keyboard-response","268","316817","0.0-439.0","hpwxvcom","1440","900","","","","","","","","","","","null","+","Fixation - short","","null","","","","","","","","","","","","",""
"","html-keyboard-response","269","317571","0.0-440.0","hpwxvcom","1440","900","","","","","","","","","","","753","jil","Diagnostic trial","","f","7","9","false","false","RIGHT","j","0","","RIGHT","true","","",""
"","call-function","270","317588","0.0-442.0-0.0","hpwxvcom","","","","","","","","","","","","","","","","","","","","","","","","","","","","","",""
"","html-keyboard-response","271","317891","0.0-442.0-1.0","hpwxvcom","1440","900","","","","","","","","","","","null","Wrong","Feedback","","null","","","","","","","","","","","","",""
"","call-function","272","317891","0.0-442.0-2.0","hpwxvcom","","","","","","","","","","","","","","","","","","","","","","","","","","","","","",""
"","html-keyboard-response","273","318643","0.0-443.0","hpwxvcom","1440","900","","","","","","","","","","","null","+","Fixation - short","","null","","","","","","","","","","","","",""
"","html-keyboard-response","274","319368","0.0-444.0","hpwxvcom","1440","900","","","","","","","","","","","724","jil","Diagnostic trial","","f","7","10","false","true","LEFT","f","1","","RIGHT","false","","",""
"","html-keyboard-response","275","320122","0.0-447.0","hpwxvcom","1440","900","","","","","","","","","","","null","+","Fixation - short","","null","","","","","","","","","","","","",""
"","html-keyboard-response","276","321003","0.0-448.0","hpwxvcom","1440","900","","","","","","","","","","","881","jil","Diagnostic trial","","j","7","11","false","false","RIGHT","j","1","","RIGHT","true","","",""
"","html-keyboard-response","277","321759","0.0-451.0","hpwxvcom","1440","900","","","","","","","","","","","null","+","Fixation - short","","null","","","","","","","","","","","","",""
"","html-keyboard-response","278","322413","0.0-452.0","hpwxvcom","1440","900","","","","","","","","","","","654","jil","Diagnostic trial","","j","7","12","false","false","RIGHT","j","1","","RIGHT","true","","",""
"","html-keyboard-response","279","323169","0.0-455.0","hpwxvcom","1440","900","","","","","","","","","","","null","+","Fixation - short","","null","","","","","","","","","","","","",""
"","html-keyboard-response","280","324224","0.0-456.0","hpwxvcom","1440","900","","","","","","","","","","","1055","jil","Inducer trial","","f","7","","true","","","j","0","RIGHT","","","","",""
"","call-function","281","324225","0.0-458.0-0.0","hpwxvcom","","","","","","","","","","","","","","","","","","","","","","","","","","","","","",""
"","html-keyboard-response","282","324531","0.0-458.0-1.0","hpwxvcom","1440","900","","","","","","","","","","","null","Wrong","Feedback","","null","","","","","","","","","","","","",""
"","call-function","283","324532","0.0-458.0-2.0","hpwxvcom","","","","","","","","","","","","","","","","","","","","","","","","","","","","","",""
"","html-keyboard-response","284","326037","0.0-459.0","hpwxvcom","1440","900","","","","","","","","","","","null","+","Fixation - long","","null","","","","","","","","","","","","",""
"","html-keyboard-response","285","328077","0.0-460.0","hpwxvcom","1440","900","","","","","","","","","","","2039","If ecl press LEFT | If tkb press RIGHT","Inducer instructions",""," ","8","","","","","","","","","","","",""
"","html-keyboard-response","286","328830","0.0-461.0","hpwxvcom","1440","900","","","","","","","","","","","null","+","Fixation - short","","null","","","","","","","","","","","","",""
"","html-keyboard-response","287","329913","0.0-462.0","hpwxvcom","1440","900","","","","","","","","","","","1082","ecl","Diagnostic trial","","f","8","0","false","true","LEFT","f","1","","LEFT","true","","",""
"","html-keyboard-response","288","330669","0.0-465.0","hpwxvcom","1440","900","","","","","","","","","","","null","+","Fixation - short","","null","","","","","","","","","","","","",""
"","html-keyboard-response","289","331492","0.0-466.0","hpwxvcom","1440","900","","","","","","","","","","","822","tkb","Diagnostic trial","","j","8","1","false","false","RIGHT","j","1","","RIGHT","true","","",""
"","html-keyboard-response","290","332246","0.0-469.0","hpwxvcom","1440","900","","","","","","","","","","","null","+","Fixation - short","","null","","","","","","","","","","","","",""
"","html-keyboard-response","291","333115","0.0-470.0","hpwxvcom","1440","900","","","","","","","","","","","868","tkb","Diagnostic trial","","f","8","2","false","true","LEFT","f","1","","RIGHT","false","","",""
"","html-keyboard-response","292","333871","0.0-473.0","hpwxvcom","1440","900","","","","","","","","","","","null","+","Fixation - short","","null","","","","","","","","","","","","",""
"","html-keyboard-response","293","334841","0.0-474.0","hpwxvcom","1440","900","","","","","","","","","","","969","tkb","Diagnostic trial","","j","8","3","false","false","RIGHT","j","1","","RIGHT","true","","",""
"","html-keyboard-response","294","335595","0.0-477.0","hpwxvcom","1440","900","","","","","","","","","","","null","+","Fixation - short","","null","","","","","","","","","","","","",""
"","html-keyboard-response","295","336361","0.0-478.0","hpwxvcom","1440","900","","","","","","","","","","","765","ecl","Diagnostic trial","","f","8","4","false","true","LEFT","f","1","","LEFT","true","","",""
"","html-keyboard-response","296","337113","0.0-481.0","hpwxvcom","1440","900","","","","","","","","","","","null","+","Fixation - short","","null","","","","","","","","","","","","",""
"","html-keyboard-response","297","337831","0.0-482.0","hpwxvcom","1440","900","","","","","","","","","","","717","ecl","Diagnostic trial","","f","8","5","false","true","LEFT","f","1","","LEFT","true","","",""
"","html-keyboard-response","298","338586","0.0-485.0","hpwxvcom","1440","900","","","","","","","","","","","null","+","Fixation - short","","null","","","","","","","","","","","","",""
"","html-keyboard-response","299","339288","0.0-486.0","hpwxvcom","1440","900","","","","","","","","","","","702","tkb","Diagnostic trial","","f","8","6","false","true","LEFT","f","1","","RIGHT","false","","",""
"","html-keyboard-response","300","340044","0.0-489.0","hpwxvcom","1440","900","","","","","","","","","","","null","+","Fixation - short","","null","","","","","","","","","","","","",""
"","html-keyboard-response","301","341928","0.0-490.0","hpwxvcom","1440","900","","","","","","","","","","","1884","ecl","Inducer trial","","f","8","","true","","","f","1","LEFT","","","","",""
"","html-keyboard-response","302","343435","0.0-493.0","hpwxvcom","1440","900","","","","","","","","","","","null","+","Fixation - long","","null","","","","","","","","","","","","",""
"","html-keyboard-response","303","344132","0.0-494.0","hpwxvcom","1440","900","","","","","","","","","","","696","If amb press LEFT | If chy press RIGHT","Inducer instructions",""," ","9","","","","","","","","","","","",""
"","html-keyboard-response","304","344886","0.0-495.0","hpwxvcom","1440","900","","","","","","","","","","","null","+","Fixation - short","","null","","","","","","","","","","","","",""
"","html-keyboard-response","305","345918","0.0-496.0","hpwxvcom","1440","900","","","","","","","","","","","1032","chy","Diagnostic trial","","f","9","0","false","true","LEFT","f","1","","RIGHT","false","","",""
"","html-keyboard-response","306","346674","0.0-499.0","hpwxvcom","1440","900","","","","","","","","","","","null","+","Fixation - short","","null","","","","","","","","","","","","",""
"","html-keyboard-response","307","347879","0.0-500.0","hpwxvcom","1440","900","","","","","","","","","","","1204","amb","Diagnostic trial","","j","9","1","false","false","RIGHT","j","1","","LEFT","false","","",""
"","html-keyboard-response","308","348633","0.0-503.0","hpwxvcom","1440","900","","","","","","","","","","","null","+","Fixation - short","","null","","","","","","","","","","","","",""
"","html-keyboard-response","309","349548","0.0-504.0","hpwxvcom","1440","900","","","","","","","","","","","914","amb","Diagnostic trial","","j","9","2","false","false","RIGHT","j","1","","LEFT","false","","",""
"","html-keyboard-response","310","350304","0.0-507.0","hpwxvcom","1440","900","","","","","","","","","","","null","+","Fixation - short","","null","","","","","","","","","","","","",""
"","html-keyboard-response","311","350908","0.0-508.0","hpwxvcom","1440","900","","","","","","","","","","","603","amb","Diagnostic trial","","j","9","3","false","false","RIGHT","j","1","","LEFT","false","","",""
"","html-keyboard-response","312","351663","0.0-511.0","hpwxvcom","1440","900","","","","","","","","","","","null","+","Fixation - short","","null","","","","","","","","","","","","",""
"","html-keyboard-response","313","352338","0.0-512.0","hpwxvcom","1440","900","","","","","","","","","","","675","amb","Diagnostic trial","","f","9","4","false","true","LEFT","f","1","","LEFT","true","","",""
"","html-keyboard-response","314","353094","0.0-515.0","hpwxvcom","1440","900","","","","","","","","","","","null","+","Fixation - short","","null","","","","","","","","","","","","",""
"","html-keyboard-response","315","353857","0.0-516.0","hpwxvcom","1440","900","","","","","","","","","","","763","chy","Diagnostic trial","","f","9","5","false","true","LEFT","f","1","","RIGHT","false","","",""
"","html-keyboard-response","316","354612","0.0-519.0","hpwxvcom","1440","900","","","","","","","","","","","null","+","Fixation - short","","null","","","","","","","","","","","","",""
"","html-keyboard-response","317","355193","0.0-520.0","hpwxvcom","1440","900","","","","","","","","","","","580","chy","Diagnostic trial","","f","9","6","false","true","LEFT","f","1","","RIGHT","false","","",""
"","html-keyboard-response","318","355950","0.0-523.0","hpwxvcom","1440","900","","","","","","","","","","","null","+","Fixation - short","","null","","","","","","","","","","","","",""
"","html-keyboard-response","319","356920","0.0-524.0","hpwxvcom","1440","900","","","","","","","","","","","970","amb","Diagnostic trial","","f","9","7","false","true","LEFT","f","1","","LEFT","true","","",""
"","html-keyboard-response","320","357676","0.0-527.0","hpwxvcom","1440","900","","","","","","","","","","","null","+","Fixation - short","","null","","","","","","","","","","","","",""
"","html-keyboard-response","321","358541","0.0-528.0","hpwxvcom","1440","900","","","","","","","","","","","863","chy","Diagnostic trial","","j","9","8","false","false","RIGHT","j","1","","RIGHT","true","","",""
"","html-keyboard-response","322","359296","0.0-531.0","hpwxvcom","1440","900","","","","","","","","","","","null","+","Fixation - short","","null","","","","","","","","","","","","",""
"","html-keyboard-response","323","359851","0.0-532.0","hpwxvcom","1440","900","","","","","","","","","","","554","amb","Diagnostic trial","","f","9","9","false","false","RIGHT","j","0","","LEFT","false","","",""
"","call-function","324","359851","0.0-534.0-0.0","hpwxvcom","","","","","","","","","","","","","","","","","","","","","","","","","","","","","",""
"","html-keyboard-response","325","360156","0.0-534.0-1.0","hpwxvcom","1440","900","","","","","","","","","","","null","Wrong","Feedback","","null","","","","","","","","","","","","",""
"","call-function","326","360157","0.0-534.0-2.0","hpwxvcom","","","","","","","","","","","","","","","","","","","","","","","","","","","","","",""
"","html-keyboard-response","327","360909","0.0-535.0","hpwxvcom","1440","900","","","","","","","","","","","null","+","Fixation - short","","null","","","","","","","","","","","","",""
"","html-keyboard-response","328","361537","0.0-536.0","hpwxvcom","1440","900","","","","","","","","","","","627","amb","Diagnostic trial","","f","9","10","false","true","LEFT","f","1","","LEFT","true","","",""
"","html-keyboard-response","329","362291","0.0-539.0","hpwxvcom","1440","900","","","","","","","","","","","null","+","Fixation - short","","null","","","","","","","","","","","","",""
"","html-keyboard-response","330","362878","0.0-540.0","hpwxvcom","1440","900","","","","","","","","","","","586","amb","Diagnostic trial","","f","9","11","false","true","LEFT","f","1","","LEFT","true","","",""
"","html-keyboard-response","331","363632","0.0-543.0","hpwxvcom","1440","900","","","","","","","","","","","null","+","Fixation - short","","null","","","","","","","","","","","","",""
"","html-keyboard-response","332","364155","0.0-544.0","hpwxvcom","1440","900","","","","","","","","","","","522","amb","Diagnostic trial","","f","9","12","false","true","LEFT","f","1","","LEFT","true","","",""
"","html-keyboard-response","333","364910","0.0-547.0","hpwxvcom","1440","900","","","","","","","","","","","null","+","Fixation - short","","null","","","","","","","","","","","","",""
"","html-keyboard-response","334","365646","0.0-548.0","hpwxvcom","1440","900","","","","","","","","","","","734","chy","Diagnostic trial","","j","9","13","false","false","RIGHT","j","1","","RIGHT","true","","",""
"","html-keyboard-response","335","366401","0.0-551.0","hpwxvcom","1440","900","","","","","","","","","","","null","+","Fixation - short","","null","","","","","","","","","","","","",""
"","html-keyboard-response","336","367014","0.0-552.0","hpwxvcom","1440","900","","","","","","","","","","","612","amb","Diagnostic trial","","j","9","14","false","false","RIGHT","j","1","","LEFT","false","","",""
"","html-keyboard-response","337","367768","0.0-555.0","hpwxvcom","1440","900","","","","","","","","","","","null","+","Fixation - short","","null","","","","","","","","","","","","",""
"","html-keyboard-response","338","369112","0.0-556.0","hpwxvcom","1440","900","","","","","","","","","","","1344","chy","Inducer trial","","j","9","","true","","","j","1","RIGHT","","","","",""
"","html-keyboard-response","339","370618","0.0-559.0","hpwxvcom","1440","900","","","","","","","","","","","null","+","Fixation - long","","null","","","","","","","","","","","","",""
"","html-keyboard-response","340","371674","0.0-560.0","hpwxvcom","1440","900","","","","","","","","","","","1055","If ydi press LEFT | If xet press RIGHT","Inducer instructions",""," ","10","","","","","","","","","","","",""
"","html-keyboard-response","341","372429","0.0-561.0","hpwxvcom","1440","900","","","","","","","","","","","null","+","Fixation - short","","null","","","","","","","","","","","","",""
"","html-keyboard-response","342","373036","0.0-562.0","hpwxvcom","1440","900","","","","","","","","","","","606","xet","Diagnostic trial","","f","10","0","false","true","LEFT","f","1","","RIGHT","false","","",""
"","html-keyboard-response","343","373792","0.0-565.0","hpwxvcom","1440","900","","","","","","","","","","","null","+","Fixation - short","","null","","","","","","","","","","","","",""
"","html-keyboard-response","344","374286","0.0-566.0","hpwxvcom","1440","900","","","","","","","","","","","493","xet","Diagnostic trial","","f","10","1","false","true","LEFT","f","1","","RIGHT","false","","",""
"","html-keyboard-response","345","375040","0.0-569.0","hpwxvcom","1440","900","","","","","","","","","","","null","+","Fixation - short","","null","","","","","","","","","","","","",""
"","html-keyboard-response","346","375575","0.0-570.0","hpwxvcom","1440","900","","","","","","","","","","","533","xet","Diagnostic trial","","f","10","2","false","true","LEFT","f","1","","RIGHT","false","","",""
"","html-keyboard-response","347","376330","0.0-573.0","hpwxvcom","1440","900","","","","","","","","","","","null","+","Fixation - short","","null","","","","","","","","","","","","",""
"","html-keyboard-response","348","377102","0.0-574.0","hpwxvcom","1440","900","","","","","","","","","","","771","ydi","Diagnostic trial","","j","10","3","false","false","RIGHT","j","1","","LEFT","false","","",""
"","html-keyboard-response","349","377857","0.0-577.0","hpwxvcom","1440","900","","","","","","","","","","","null","+","Fixation - short","","null","","","","","","","","","","","","",""
"","html-keyboard-response","350","378417","0.0-578.0","hpwxvcom","1440","900","","","","","","","","","","","560","ydi","Diagnostic trial","","j","10","4","false","false","RIGHT","j","1","","LEFT","false","","",""
"","html-keyboard-response","351","379173","0.0-581.0","hpwxvcom","1440","900","","","","","","","","","","","null","+","Fixation - short","","null","","","","","","","","","","","","",""
"","html-keyboard-response","352","380326","0.0-582.0","hpwxvcom","1440","900","","","","","","","","","","","1153","xet","Diagnostic trial","","j","10","5","false","false","RIGHT","j","1","","RIGHT","true","","",""
"","html-keyboard-response","353","381081","0.0-585.0","hpwxvcom","1440","900","","","","","","","","","","","null","+","Fixation - short","","null","","","","","","","","","","","","",""
"","html-keyboard-response","354","381740","0.0-586.0","hpwxvcom","1440","900","","","","","","","","","","","658","ydi","Diagnostic trial","","j","10","6","false","false","RIGHT","j","1","","LEFT","false","","",""
"","html-keyboard-response","355","382493","0.0-589.0","hpwxvcom","1440","900","","","","","","","","","","","null","+","Fixation - short","","null","","","","","","","","","","","","",""
"","html-keyboard-response","356","383227","0.0-590.0","hpwxvcom","1440","900","","","","","","","","","","","733","ydi","Diagnostic trial","","f","10","7","false","true","LEFT","f","1","","LEFT","true","","",""
"","html-keyboard-response","357","383981","0.0-593.0","hpwxvcom","1440","900","","","","","","","","","","","null","+","Fixation - short","","null","","","","","","","","","","","","",""
"","html-keyboard-response","358","384509","0.0-594.0","hpwxvcom","1440","900","","","","","","","","","","","527","ydi","Diagnostic trial","","f","10","8","false","true","LEFT","f","1","","LEFT","true","","",""
"","html-keyboard-response","359","385264","0.0-597.0","hpwxvcom","1440","900","","","","","","","","","","","null","+","Fixation - short","","null","","","","","","","","","","","","",""
"","html-keyboard-response","360","386010","0.0-598.0","hpwxvcom","1440","900","","","","","","","","","","","745","ydi","Diagnostic trial","","j","10","9","false","false","RIGHT","j","1","","LEFT","false","","",""
"","html-keyboard-response","361","386765","0.0-601.0","hpwxvcom","1440","900","","","","","","","","","","","null","+","Fixation - short","","null","","","","","","","","","","","","",""
"","html-keyboard-response","362","387547","0.0-602.0","hpwxvcom","1440","900","","","","","","","","","","","782","xet","Diagnostic trial","","f","10","10","false","true","LEFT","f","1","","RIGHT","false","","",""
"","html-keyboard-response","363","388302","0.0-605.0","hpwxvcom","1440","900","","","","","","","","","","","null","+","Fixation - short","","null","","","","","","","","","","","","",""
"","html-keyboard-response","364","389100","0.0-606.0","hpwxvcom","1440","900","","","","","","","","","","","798","ydi","Diagnostic trial","","f","10","11","false","true","LEFT","f","1","","LEFT","true","","",""
"","html-keyboard-response","365","389855","0.0-609.0","hpwxvcom","1440","900","","","","","","","","","","","null","+","Fixation - short","","null","","","","","","","","","","","","",""
"","html-keyboard-response","366","390527","0.0-610.0","hpwxvcom","1440","900","","","","","","","","","","","671","xet","Diagnostic trial","","f","10","12","false","true","LEFT","f","1","","RIGHT","false","","",""
"","html-keyboard-response","367","391283","0.0-613.0","hpwxvcom","1440","900","","","","","","","","","","","null","+","Fixation - short","","null","","","","","","","","","","","","",""
"","html-keyboard-response","368","392014","0.0-614.0","hpwxvcom","1440","900","","","","","","","","","","","731","ydi","Diagnostic trial","","f","10","13","false","true","LEFT","f","1","","LEFT","true","","",""
"","html-keyboard-response","369","392766","0.0-617.0","hpwxvcom","1440","900","","","","","","","","","","","null","+","Fixation - short","","null","","","","","","","","","","","","",""
"","html-keyboard-response","370","393274","0.0-618.0","hpwxvcom","1440","900","","","","","","","","","","","508","ydi","Diagnostic trial","","f","10","14","false","true","LEFT","f","1","","LEFT","true","","",""
"","html-keyboard-response","371","394029","0.0-621.0","hpwxvcom","1440","900","","","","","","","","","","","null","+","Fixation - short","","null","","","","","","","","","","","","",""
"","html-keyboard-response","372","394966","0.0-622.0","hpwxvcom","1440","900","","","","","","","","","","","937","xet","Diagnostic trial","","j","10","15","false","false","RIGHT","j","1","","RIGHT","true","","",""
"","html-keyboard-response","373","395719","0.0-625.0","hpwxvcom","1440","900","","","","","","","","","","","null","+","Fixation - short","","null","","","","","","","","","","","","",""
"","html-keyboard-response","374","396611","0.0-626.0","hpwxvcom","1440","900","","","","","","","","","","","891","ydi","Inducer trial","","f","10","","true","","","f","1","LEFT","","","","",""
"","html-keyboard-response","375","398115","0.0-629.0","hpwxvcom","1440","900","","","","","","","","","","","null","+","Fixation - long","","null","","","","","","","","","","","","",""
"","html-keyboard-response","376","398933","0.0-630.0","hpwxvcom","1440","900","","","","","","","","","","","817","If upf press LEFT | If cpt press RIGHT","Inducer instructions",""," ","11","","","","","","","","","","","",""
"","html-keyboard-response","377","399687","0.0-631.0","hpwxvcom","1440","900","","","","","","","","","","","null","+","Fixation - short","","null","","","","","","","","","","","","",""
"","html-keyboard-response","378","400786","0.0-632.0","hpwxvcom","1440","900","","","","","","","","","","","1097","cpt","Diagnostic trial","","j","11","0","false","false","RIGHT","j","1","","RIGHT","true","","",""
"","html-keyboard-response","379","401542","0.0-635.0","hpwxvcom","1440","900","","","","","","","","","","","null","+","Fixation - short","","null","","","","","","","","","","","","",""
"","html-keyboard-response","380","402107","0.0-636.0","hpwxvcom","1440","900","","","","","","","","","","","564","cpt","Diagnostic trial","","j","11","1","false","false","RIGHT","j","1","","RIGHT","true","","",""
"","html-keyboard-response","381","402860","0.0-639.0","hpwxvcom","1440","900","","","","","","","","","","","null","+","Fixation - short","","null","","","","","","","","","","","","",""
"","html-keyboard-response","382","403752","0.0-640.0","hpwxvcom","1440","900","","","","","","","","","","","891","upf","Diagnostic trial","","f","11","2","false","true","LEFT","f","1","","LEFT","true","","",""
"","html-keyboard-response","383","404506","0.0-643.0","hpwxvcom","1440","900","","","","","","","","","","","null","+","Fixation - short","","null","","","","","","","","","","","","",""
"","html-keyboard-response","384","405310","0.0-644.0","hpwxvcom","1440","900","","","","","","","","","","","802","upf","Diagnostic trial","","f","11","3","false","false","RIGHT","j","0","","LEFT","false","","",""
"","call-function","385","405310","0.0-646.0-0.0","hpwxvcom","","","","","","","","","","","","","","","","","","","","","","","","","","","","","",""
"","html-keyboard-response","386","405615","0.0-646.0-1.0","hpwxvcom","1440","900","","","","","","","","","","","null","Wrong","Feedback","","null","","","","","","","","","","","","",""
"","call-function","387","405615","0.0-646.0-2.0","hpwxvcom","","","","","","","","","","","","","","","","","","","","","","","","","","","","","",""
"","html-keyboard-response","388","406372","0.0-647.0","hpwxvcom","1440","900","","","","","","","","","","","null","+","Fixation - short","","null","","","","","","","","","","","","",""
"","html-keyboard-response","389","406994","0.0-648.0","hpwxvcom","1440","900","","","","","","","","","","","622","upf","Diagnostic trial","","f","11","4","false","true","LEFT","f","1","","LEFT","true","","",""
"","html-keyboard-response","390","407748","0.0-651.0","hpwxvcom","1440","900","","","","","","","","","","","null","+","Fixation - short","","null","","","","","","","","","","","","",""
"","html-keyboard-response","391","408694","0.0-652.0","hpwxvcom","1440","900","","","","","","","","","","","946","upf","Diagnostic trial","","j","11","5","false","false","RIGHT","j","1","","LEFT","false","","",""
"","html-keyboard-response","392","409449","0.0-655.0","hpwxvcom","1440","900","","","","","","","","","","","null","+","Fixation - short","","null","","","","","","","","","","","","",""
"","html-keyboard-response","393","410077","0.0-656.0","hpwxvcom","1440","900","","","","","","","","","","","627","cpt","Diagnostic trial","","j","11","6","false","false","RIGHT","j","1","","RIGHT","true","","",""
"","html-keyboard-response","394","410833","0.0-659.0","hpwxvcom","1440","900","","","","","","","","","","","null","+","Fixation - short","","null","","","","","","","","","","","","",""
"","html-keyboard-response","395","412070","0.0-660.0","hpwxvcom","1440","900","","","","","","","","","","","1235","cpt","Diagnostic trial","","j","11","7","false","false","RIGHT","j","1","","RIGHT","true","","",""
"","html-keyboard-response","396","412824","0.0-663.0","hpwxvcom","1440","900","","","","","","","","","","","null","+","Fixation - short","","null","","","","","","","","","","","","",""
"","html-keyboard-response","397","413693","0.0-664.0","hpwxvcom","1440","900","","","","","","","","","","","868","upf","Diagnostic trial","","j","11","8","false","false","RIGHT","j","1","","LEFT","false","","",""
"","html-keyboard-response","398","414448","0.0-667.0","hpwxvcom","1440","900","","","","","","","","","","","null","+","Fixation - short","","null","","","","","","","","","","","","",""
"","html-keyboard-response","399","414929","0.0-668.0","hpwxvcom","1440","900","","","","","","","","","","","481","upf","Diagnostic trial","","j","11","9","false","false","RIGHT","j","1","","LEFT","false","","",""
"","html-keyboard-response","400","415683","0.0-671.0","hpwxvcom","1440","900","","","","","","","","","","","null","+","Fixation - short","","null","","","","","","","","","","","","",""
"","html-keyboard-response","401","416473","0.0-672.0","hpwxvcom","1440","900","","","","","","","","","","","789","upf","Diagnostic trial","","f","11","10","false","true","LEFT","f","1","","LEFT","true","","",""
"","html-keyboard-response","402","417230","0.0-675.0","hpwxvcom","1440","900","","","","","","","","","","","null","+","Fixation - short","","null","","","","","","","","","","","","",""
"","html-keyboard-response","403","418129","0.0-676.0","hpwxvcom","1440","900","","","","","","","","","","","898","cpt","Diagnostic trial","","j","11","11","false","false","RIGHT","j","1","","RIGHT","true","","",""
"","html-keyboard-response","404","418884","0.0-679.0","hpwxvcom","1440","900","","","","","","","","","","","null","+","Fixation - short","","null","","","","","","","","","","","","",""
"","html-keyboard-response","405","419525","0.0-680.0","hpwxvcom","1440","900","","","","","","","","","","","640","cpt","Diagnostic trial","","f","11","12","false","true","LEFT","f","1","","RIGHT","false","","",""
"","html-keyboard-response","406","420280","0.0-683.0","hpwxvcom","1440","900","","","","","","","","","","","null","+","Fixation - short","","null","","","","","","","","","","","","",""
"","html-keyboard-response","407","421160","0.0-684.0","hpwxvcom","1440","900","","","","","","","","","","","879","cpt","Inducer trial","","f","11","","true","","","j","0","RIGHT","","","","",""
"","call-function","408","421161","0.0-686.0-0.0","hpwxvcom","","","","","","","","","","","","","","","","","","","","","","","","","","","","","",""
"","html-keyboard-response","409","421464","0.0-686.0-1.0","hpwxvcom","1440","900","","","","","","","","","","","null","Wrong","Feedback","","null","","","","","","","","","","","","",""
"","call-function","410","421465","0.0-686.0-2.0","hpwxvcom","","","","","","","","","","","","","","","","","","","","","","","","","","","","","",""
"","html-keyboard-response","411","422971","0.0-687.0","hpwxvcom","1440","900","","","","","","","","","","","null","+","Fixation - long","","null","","","","","","","","","","","","",""
"","html-keyboard-response","412","424391","0.0-688.0","hpwxvcom","1440","900","","","","","","","","","","","1420","If jft press LEFT | If goj press RIGHT","Inducer instructions",""," ","12","","","","","","","","","","","",""
"","html-keyboard-response","413","425148","0.0-689.0","hpwxvcom","1440","900","","","","","","","","","","","null","+","Fixation - short","","null","","","","","","","","","","","","",""
"","html-keyboard-response","414","426840","0.0-690.0","hpwxvcom","1440","900","","","","","","","","","","","1692","jft","Diagnostic trial","","j","12","0","false","false","RIGHT","j","1","","LEFT","false","","",""
"","html-keyboard-response","415","427594","0.0-693.0","hpwxvcom","1440","900","","","","","","","","","","","null","+","Fixation - short","","null","","","","","","","","","","","","",""
"","html-keyboard-response","416","428097","0.0-694.0","hpwxvcom","1440","900","","","","","","","","","","","502","jft","Diagnostic trial","","j","12","1","false","false","RIGHT","j","1","","LEFT","false","","",""
"","html-keyboard-response","417","428851","0.0-697.0","hpwxvcom","1440","900","","","","","","","","","","","null","+","Fixation - short","","null","","","","","","","","","","","","",""
"","html-keyboard-response","418","429381","0.0-698.0","hpwxvcom","1440","900","","","","","","","","","","","529","jft","Diagnostic trial","","j","12","2","false","false","RIGHT","j","1","","LEFT","false","","",""
"","html-keyboard-response","419","430137","0.0-701.0","hpwxvcom","1440","900","","","","","","","","","","","null","+","Fixation - short","","null","","","","","","","","","","","","",""
"","html-keyboard-response","420","430740","0.0-702.0","hpwxvcom","1440","900","","","","","","","","","","","603","jft","Diagnostic trial","","f","12","3","false","true","LEFT","f","1","","LEFT","true","","",""
"","html-keyboard-response","421","431495","0.0-705.0","hpwxvcom","1440","900","","","","","","","","","","","null","+","Fixation - short","","null","","","","","","","","","","","","",""
"","html-keyboard-response","422","432080","0.0-706.0","hpwxvcom","1440","900","","","","","","","","","","","584","jft","Diagnostic trial","","f","12","4","false","true","LEFT","f","1","","LEFT","true","","",""
"","html-keyboard-response","423","432836","0.0-709.0","hpwxvcom","1440","900","","","","","","","","","","","null","+","Fixation - short","","null","","","","","","","","","","","","",""
"","html-keyboard-response","424","433412","0.0-710.0","hpwxvcom","1440","900","","","","","","","","","","","576","jft","Diagnostic trial","","f","12","5","false","false","RIGHT","j","0","","LEFT","false","","",""
"","call-function","425","433413","0.0-712.0-0.0","hpwxvcom","","","","","","","","","","","","","","","","","","","","","","","","","","","","","",""
"","html-keyboard-response","426","433718","0.0-712.0-1.0","hpwxvcom","1440","900","","","","","","","","","","","null","Wrong","Feedback","","null","","","","","","","","","","","","",""
"","call-function","427","433718","0.0-712.0-2.0","hpwxvcom","","","","","","","","","","","","","","","","","","","","","","","","","","","","","",""
"","html-keyboard-response","428","434474","0.0-713.0","hpwxvcom","1440","900","","","","","","","","","","","null","+","Fixation - short","","null","","","","","","","","","","","","",""
"","html-keyboard-response","429","435653","0.0-714.0","hpwxvcom","1440","900","","","","","","","","","","","1178","goj","Inducer trial","","j","12","","true","","","j","1","RIGHT","","","","",""
"","html-keyboard-response","430","437155","0.0-717.0","hpwxvcom","1440","900","","","","","","","","","","","null","+","Fixation - long","","null","","","","","","","","","","","","",""
"","html-keyboard-response","431","437949","0.0-718.0","hpwxvcom","1440","900","","","","","","","","","","","793","If mmo press LEFT | If psl press RIGHT","Inducer instructions",""," ","13","","","","","","","","","","","",""
"","html-keyboard-response","432","438704","0.0-719.0","hpwxvcom","1440","900","","","","","","","","","","","null","+","Fixation - short","","null","","","","","","","","","","","","",""
"","html-keyboard-response","433","439602","0.0-720.0","hpwxvcom","1440","900","","","","","","","","","","","897","mmo","Diagnostic trial","","j","13","0","false","false","RIGHT","j","1","","LEFT","false","","",""
"","html-keyboard-response","434","440359","0.0-723.0","hpwxvcom","1440","900","","","","","","","","","","","null","+","Fixation - short","","null","","","","","","","","","","","","",""
"","html-keyboard-response","435","441004","0.0-724.0","hpwxvcom","1440","900","","","","","","","","","","","645","psl","Diagnostic trial","","f","13","1","false","true","LEFT","f","1","","RIGHT","false","","",""
"","html-keyboard-response","436","441760","0.0-727.0","hpwxvcom","1440","900","","","","","","","","","","","null","+","Fixation - short","","null","","","","","","","","","","","","",""
"","html-keyboard-response","437","442439","0.0-728.0","hpwxvcom","1440","900","","","","","","","","","","","678","mmo","Diagnostic trial","","j","13","2","false","false","RIGHT","j","1","","LEFT","false","","",""
"","html-keyboard-response","438","443191","0.0-731.0","hpwxvcom","1440","900","","","","","","","","","","","null","+","Fixation - short","","null","","","","","","","","","","","","",""
"","html-keyboard-response","439","444050","0.0-732.0","hpwxvcom","1440","900","","","","","","","","","","","857","psl","Diagnostic trial","","f","13","3","false","true","LEFT","f","1","","RIGHT","false","","",""
"","html-keyboard-response","440","444805","0.0-735.0","hpwxvcom","1440","900","","","","","","","","","","","null","+","Fixation - short","","null","","","","","","","","","","","","",""
"","html-keyboard-response","441","445690","0.0-736.0","hpwxvcom","1440","900","","","","","","","","","","","884","mmo","Diagnostic trial","","f","13","4","false","true","LEFT","f","1","","LEFT","true","","",""
"","html-keyboard-response","442","446445","0.0-739.0","hpwxvcom","1440","900","","","","","","","","","","","null","+","Fixation - short","","null","","","","","","","","","","","","",""
"","html-keyboard-response","443","447175","0.0-740.0","hpwxvcom","1440","900","","","","","","","","","","","730","mmo","Diagnostic trial","","f","13","5","false","true","LEFT","f","1","","LEFT","true","","",""
"","html-keyboard-response","444","447931","0.0-743.0","hpwxvcom","1440","900","","","","","","","","","","","null","+","Fixation - short","","null","","","","","","","","","","","","",""
"","html-keyboard-response","445","448601","0.0-744.0","hpwxvcom","1440","900","","","","","","","","","","","669","mmo","Diagnostic trial","","f","13","6","false","false","RIGHT","j","0","","LEFT","false","","",""
"","call-function","446","448602","0.0-746.0-0.0","hpwxvcom","","","","","","","","","","","","","","","","","","","","","","","","","","","","","",""
"","html-keyboard-response","447","448905","0.0-746.0-1.0","hpwxvcom","1440","900","","","","","","","","","","","null","Wrong","Feedback","","null","","","","","","","","","","","","",""
"","call-function","448","448906","0.0-746.0-2.0","hpwxvcom","","","","","","","","","","","","","","","","","","","","","","","","","","","","","",""
"","html-keyboard-response","449","449659","0.0-747.0","hpwxvcom","1440","900","","","","","","","","","","","null","+","Fixation - short","","null","","","","","","","","","","","","",""
"","html-keyboard-response","450","450266","0.0-748.0","hpwxvcom","1440","900","","","","","","","","","","","606","psl","Diagnostic trial","","f","13","7","false","true","LEFT","f","1","","RIGHT","false","","",""
"","html-keyboard-response","451","451022","0.0-751.0","hpwxvcom","1440","900","","","","","","","","","","","null","+","Fixation - short","","null","","","","","","","","","","","","",""
"","html-keyboard-response","452","451821","0.0-752.0","hpwxvcom","1440","900","","","","","","","","","","","798","mmo","Diagnostic trial","","f","13","8","false","true","LEFT","f","1","","LEFT","true","","",""
"","html-keyboard-response","453","452578","0.0-755.0","hpwxvcom","1440","900","","","","","","","","","","","null","+","Fixation - short","","null","","","","","","","","","","","","",""
"","html-keyboard-response","454","453322","0.0-756.0","hpwxvcom","1440","900","","","","","","","","","","","743","mmo","Diagnostic trial","","f","13","9","false","true","LEFT","f","1","","LEFT","true","","",""
"","html-keyboard-response","455","454075","0.0-759.0","hpwxvcom","1440","900","","","","","","","","","","","null","+","Fixation - short","","null","","","","","","","","","","","","",""
"","html-keyboard-response","456","454613","0.0-760.0","hpwxvcom","1440","900","","","","","","","","","","","537","mmo","Diagnostic trial","","f","13","10","false","true","LEFT","f","1","","LEFT","true","","",""
"","html-keyboard-response","457","455367","0.0-763.0","hpwxvcom","1440","900","","","","","","","","","","","null","+","Fixation - short","","null","","","","","","","","","","","","",""
"","html-keyboard-response","458","456088","0.0-764.0","hpwxvcom","1440","900","","","","","","","","","","","720","mmo","Diagnostic trial","","j","13","11","false","false","RIGHT","j","1","","LEFT","false","","",""
"","html-keyboard-response","459","456844","0.0-767.0","hpwxvcom","1440","900","","","","","","","","","","","null","+","Fixation - short","","null","","","","","","","","","","","","",""
"","html-keyboard-response","460","457574","0.0-768.0","hpwxvcom","1440","900","","","","","","","","","","","729","psl","Diagnostic trial","","f","13","12","false","true","LEFT","f","1","","RIGHT","false","","",""
"","html-keyboard-response","461","458330","0.0-771.0","hpwxvcom","1440","900","","","","","","","","","","","null","+","Fixation - short","","null","","","","","","","","","","","","",""
"","html-keyboard-response","462","459143","0.0-772.0","hpwxvcom","1440","900","","","","","","","","","","","812","mmo","Diagnostic trial","","j","13","13","false","false","RIGHT","j","1","","LEFT","false","","",""
"","html-keyboard-response","463","459899","0.0-775.0","hpwxvcom","1440","900","","","","","","","","","","","null","+","Fixation - short","","null","","","","","","","","","","","","",""
"","html-keyboard-response","464","460758","0.0-776.0","hpwxvcom","1440","900","","","","","","","","","","","859","mmo","Diagnostic trial","","f","13","14","false","true","LEFT","f","1","","LEFT","true","","",""
"","html-keyboard-response","465","461514","0.0-779.0","hpwxvcom","1440","900","","","","","","","","","","","null","+","Fixation - short","","null","","","","","","","","","","","","",""
"","html-keyboard-response","466","462223","0.0-780.0","hpwxvcom","1440","900","","","","","","","","","","","707","psl","Diagnostic trial","","f","13","15","false","true","LEFT","f","1","","RIGHT","false","","",""
"","html-keyboard-response","467","462977","0.0-783.0","hpwxvcom","1440","900","","","","","","","","","","","null","+","Fixation - short","","null","","","","","","","","","","","","",""
"","html-keyboard-response","468","464403","0.0-784.0","hpwxvcom","1440","900","","","","","","","","","","","1425","mmo","Inducer trial","","j","13","","true","","","f","0","LEFT","","","","",""
"","call-function","469","464403","0.0-786.0-0.0","hpwxvcom","","","","","","","","","","","","","","","","","","","","","","","","","","","","","",""
"","html-keyboard-response","470","464706","0.0-786.0-1.0","hpwxvcom","1440","900","","","","","","","","","","","null","Wrong","Feedback","","null","","","","","","","","","","","","",""
"","call-function","471","464707","0.0-786.0-2.0","hpwxvcom","","","","","","","","","","","","","","","","","","","","","","","","","","","","","",""
"","html-keyboard-response","472","466213","0.0-787.0","hpwxvcom","1440","900","","","","","","","","","","","null","+","Fixation - long","","null","","","","","","","","","","","","",""
"","html-keyboard-response","473","467280","0.0-788.0","hpwxvcom","1440","900","","","","","","","","","","","1066","If vsc press LEFT | If csp press RIGHT","Inducer instructions",""," ","14","","","","","","","","","","","",""
"","html-keyboard-response","474","468036","0.0-789.0","hpwxvcom","1440","900","","","","","","","","","","","null","+","Fixation - short","","null","","","","","","","","","","","","",""
"","html-keyboard-response","475","469280","0.0-790.0","hpwxvcom","1440","900","","","","","","","","","","","1244","vsc","Diagnostic trial","","j","14","0","false","false","RIGHT","j","1","","LEFT","false","","",""
"","html-keyboard-response","476","470035","0.0-793.0","hpwxvcom","1440","900","","","","","","","","","","","null","+","Fixation - short","","null","","","","","","","","","","","","",""
"","html-keyboard-response","477","471119","0.0-794.0","hpwxvcom","1440","900","","","","","","","","","","","1083","csp","Diagnostic trial","","j","14","1","false","false","RIGHT","j","1","","RIGHT","true","","",""
"","html-keyboard-response","478","471874","0.0-797.0","hpwxvcom","1440","900","","","","","","","","","","","null","+","Fixation - short","","null","","","","","","","","","","","","",""
"","html-keyboard-response","479","472717","0.0-798.0","hpwxvcom","1440","900","","","","","","","","","","","842","vsc","Diagnostic trial","","f","14","2","false","true","LEFT","f","1","","LEFT","true","","",""
"","html-keyboard-response","480","473472","0.0-801.0","hpwxvcom","1440","900","","","","","","","","","","","null","+","Fixation - short","","null","","","","","","","","","","","","",""
"","html-keyboard-response","481","474620","0.0-802.0","hpwxvcom","1440","900","","","","","","","","","","","1147","vsc","Diagnostic trial","","j","14","3","false","false","RIGHT","j","1","","LEFT","false","","",""
"","html-keyboard-response","482","475376","0.0-805.0","hpwxvcom","1440","900","","","","","","","","","","","null","+","Fixation - short","","null","","","","","","","","","","","","",""
"","html-keyboard-response","483","476222","0.0-806.0","hpwxvcom","1440","900","","","","","","","","","","","845","vsc","Diagnostic trial","","f","14","4","false","true","LEFT","f","1","","LEFT","true","","",""
"","html-keyboard-response","484","476975","0.0-809.0","hpwxvcom","1440","900","","","","","","","","","","","null","+","Fixation - short","","null","","","","","","","","","","","","",""
"","html-keyboard-response","485","477936","0.0-810.0","hpwxvcom","1440","900","","","","","","","","","","","960","csp","Diagnostic trial","","f","14","5","false","true","LEFT","f","1","","RIGHT","false","","",""
"","html-keyboard-response","486","478690","0.0-813.0","hpwxvcom","1440","900","","","","","","","","","","","null","+","Fixation - short","","null","","","","","","","","","","","","",""
"","html-keyboard-response","487","479578","0.0-814.0","hpwxvcom","1440","900","","","","","","","","","","","888","vsc","Diagnostic trial","","j","14","6","false","false","RIGHT","j","1","","LEFT","false","","",""
"","html-keyboard-response","488","480332","0.0-817.0","hpwxvcom","1440","900","","","","","","","","","","","null","+","Fixation - short","","null","","","","","","","","","","","","",""
"","html-keyboard-response","489","481385","0.0-818.0","hpwxvcom","1440","900","","","","","","","","","","","1052","vsc","Diagnostic trial","","f","14","7","false","true","LEFT","f","1","","LEFT","true","","",""
"","html-keyboard-response","490","482141","0.0-821.0","hpwxvcom","1440","900","","","","","","","","","","","null","+","Fixation - short","","null","","","","","","","","","","","","",""
"","html-keyboard-response","491","483346","0.0-822.0","hpwxvcom","1440","900","","","","","","","","","","","1204","csp","Diagnostic trial","","j","14","8","false","false","RIGHT","j","1","","RIGHT","true","","",""
"","html-keyboard-response","492","484100","0.0-825.0","hpwxvcom","1440","900","","","","","","","","","","","null","+","Fixation - short","","null","","","","","","","","","","","","",""
"","html-keyboard-response","493","485110","0.0-826.0","hpwxvcom","1440","900","","","","","","","","","","","1009","vsc","Diagnostic trial","","j","14","9","false","false","RIGHT","j","1","","LEFT","false","","",""
"","html-keyboard-response","494","485865","0.0-829.0","hpwxvcom","1440","900","","","","","","","","","","","null","+","Fixation - short","","null","","","","","","","","","","","","",""
"","html-keyboard-response","495","486530","0.0-830.0","hpwxvcom","1440","900","","","","","","","","","","","664","vsc","Diagnostic trial","","j","14","10","false","false","RIGHT","j","1","","LEFT","false","","",""
"","html-keyboard-response","496","487284","0.0-833.0","hpwxvcom","1440","900","","","","","","","","","","","null","+","Fixation - short","","null","","","","","","","","","","","","",""
"","html-keyboard-response","497","487867","0.0-834.0","hpwxvcom","1440","900","","","","","","","","","","","581","vsc","Diagnostic trial","","j","14","11","false","false","RIGHT","j","1","","LEFT","false","","",""
"","html-keyboard-response","498","488622","0.0-837.0","hpwxvcom","1440","900","","","","","","","","","","","null","+","Fixation - short","","null","","","","","","","","","","","","",""
"","html-keyboard-response","499","489279","0.0-838.0","hpwxvcom","1440","900","","","","","","","","","","","656","csp","Diagnostic trial","","f","14","12","false","false","RIGHT","j","0","","RIGHT","true","","",""
"","call-function","500","489280","0.0-840.0-0.0","hpwxvcom","","","","","","","","","","","","","","","","","","","","","","","","","","","","","",""
"","html-keyboard-response","501","489586","0.0-840.0-1.0","hpwxvcom","1440","900","","","","","","","","","","","null","Wrong","Feedback","","null","","","","","","","","","","","","",""
"","call-function","502","489586","0.0-840.0-2.0","hpwxvcom","","","","","","","","","","","","","","","","","","","","","","","","","","","","","",""
"","html-keyboard-response","503","490339","0.0-841.0","hpwxvcom","1440","900","","","","","","","","","","","null","+","Fixation - short","","null","","","","","","","","","","","","",""
"","html-keyboard-response","504","491140","0.0-842.0","hpwxvcom","1440","900","","","","","","","","","","","800","csp","Diagnostic trial","","f","14","13","false","true","LEFT","f","1","","RIGHT","false","","",""
