"value","trial_type","trial_index","time_elapsed","internal_node_id","id","width","height","webaudio","browser","browser_version","mobile","os","fullscreen","vsync_rate","webcam","microphone","view_history","rt","stimulus","trial_info","success","response","inducer_run","diagnostic_run","inducer_trial","italic","correct_diag_response_side","correct_response_key","correct_response","correct_indu_response_side","correct_inducer_response_side","congruent","accuracy","open_feedback","interactive"
"","call-function","0","1","0.0-0.0","oxy0vra2","","","","","","","","","","","","","","","","","","","","","","","","","","","","","",""
"","browser-check","1","10604","0.0-1.0","oxy0vra2","1512","750","true","chrome","120.0.0","false","Mac OS","true","120.8","true","true","","","","","","","","","","","","","","","","","","",""
"","instructions","2","53873","0.0-2.0","oxy0vra2","","","","","","","","","","","","[{""page_index"":0,""viewing_time"":22644},{""page_index"":1,""viewing_time"":15923},{""page_index"":2,""viewing_time"":4702}]","43269","The experiment and consent","The experiment and consent","","","","","","","","","","","","","","",""
"","fullscreen","3","63149","0.0-3.0","oxy0vra2","1512","945","","","","","","","","","","","8272","","Full screen","true","","","","","","","","","","","","","",""
"","instructions","4","94687","0.0-4.0","oxy0vra2","1512","945","","","","","","","","","","[{""page_index"":0,""viewing_time"":19337},{""page_index"":1,""viewing_time"":12198}]","31535","Instructions","Basic overview explanation","","","","","","","","","","","","","","",""
"","html-keyboard-response","5","103644","0.0-5.0","oxy0vra2","1512","945","","","","","","","","","","","7451","If italic press RIGHT | If upright press LEFT","Diagnostic instructions",""," ","","","","","","","","","","","","",""
"","html-keyboard-response","6","104398","0.0-6.0","oxy0vra2","1512","945","","","","","","","","","","","null","+","Fixation - short","","null","","","","","","","","","","","","",""
"","html-keyboard-response","7","105014","0.0-7.0","oxy0vra2","1512","945","","","","","","","","","","","613","lct","Practice diganostic trial","","j","practice","0","false","0","LEFT","f","0","","","","","",""
"","call-function","8","105015","0.0-9.0-0.0","oxy0vra2","","","","","","","","","","","","","","","","","","","","","","","","","","","","","",""
"","html-keyboard-response","9","105318","0.0-9.0-1.0","oxy0vra2","1512","945","","","","","","","","","","","null","Wrong","Feedback","","null","","","","","","","","","","","","",""
"","call-function","10","105319","0.0-9.0-2.0","oxy0vra2","","","","","","","","","","","","","","","","","","","","","","","","","","","","","",""
"","html-keyboard-response","11","106073","0.0-10.0","oxy0vra2","1512","945","","","","","","","","","","","null","+","Fixation - short","","null","","","","","","","","","","","","",""
"","html-keyboard-response","12","106745","0.0-11.0","oxy0vra2","1512","945","","","","","","","","","","","671","dnc","Practice diganostic trial","","f","practice","1","false","1","RIGHT","j","0","","","","","",""
"","call-function","13","106746","0.0-13.0-0.0","oxy0vra2","","","","","","","","","","","","","","","","","","","","","","","","","","","","","",""
"","html-keyboard-response","14","107049","0.0-13.0-1.0","oxy0vra2","1512","945","","","","","","","","","","","null","Wrong","Feedback","","null","","","","","","","","","","","","",""
"","call-function","15","107051","0.0-13.0-2.0","oxy0vra2","","","","","","","","","","","","","","","","","","","","","","","","","","","","","",""
"","html-keyboard-response","16","107804","0.0-14.0","oxy0vra2","1512","945","","","","","","","","","","","null","+","Fixation - short","","null","","","","","","","","","","","","",""
"","html-keyboard-response","17","108545","0.0-15.0","oxy0vra2","1512","945","","","","","","","","","","","739","lct","Practice diganostic trial","","j","practice","2","false","1","RIGHT","j","1","","","","","",""
"","html-keyboard-response","18","109298","0.0-18.0","oxy0vra2","1512","945","","","","","","","","","","","null","+","Fixation - short","","null","","","","","","","","","","","","",""
"","html-keyboard-response","19","109794","0.0-19.0","oxy0vra2","1512","945","","","","","","","","","","","494","dnc","Practice diganostic trial","","j","practice","3","false","1","RIGHT","j","1","","","","","",""
"","html-keyboard-response","20","110548","0.0-22.0","oxy0vra2","1512","945","","","","","","","","","","","null","+","Fixation - short","","null","","","","","","","","","","","","",""
"","html-keyboard-response","21","110921","0.0-23.0","oxy0vra2","1512","945","","","","","","","","","","","371","dnc","Practice diganostic trial","","j","practice","4","false","0","LEFT","f","0","","","","","",""
"","call-function","22","110922","0.0-25.0-0.0","oxy0vra2","","","","","","","","","","","","","","","","","","","","","","","","","","","","","",""
"","html-keyboard-response","23","111224","0.0-25.0-1.0","oxy0vra2","1512","945","","","","","","","","","","","null","Wrong","Feedback","","null","","","","","","","","","","","","",""
"","call-function","24","111225","0.0-25.0-2.0","oxy0vra2","","","","","","","","","","","","","","","","","","","","","","","","","","","","","",""
"","html-keyboard-response","25","111978","0.0-26.0","oxy0vra2","1512","945","","","","","","","","","","","null","+","Fixation - short","","null","","","","","","","","","","","","",""
"","html-keyboard-response","26","112577","0.0-27.0","oxy0vra2","1512","945","","","","","","","","","","","597","lct","Practice diganostic trial","","j","practice","5","false","1","RIGHT","j","1","","","","","",""
"","html-keyboard-response","27","113330","0.0-30.0","oxy0vra2","1512","945","","","","","","","","","","","null","+","Fixation - short","","null","","","","","","","","","","","","",""
"","html-keyboard-response","28","113940","0.0-31.0","oxy0vra2","1512","945","","","","","","","","","","","609","lct","Practice diganostic trial","","f","practice","6","false","0","LEFT","f","1","","","","","",""
"","html-keyboard-response","29","114693","0.0-34.0","oxy0vra2","1512","945","","","","","","","","","","","null","+","Fixation - short","","null","","","","","","","","","","","","",""
"","html-keyboard-response","30","115284","0.0-35.0","oxy0vra2","1512","945","","","","","","","","","","","589","dnc","Practice diganostic trial","","j","practice","7","false","1","RIGHT","j","1","","","","","",""
"","html-keyboard-response","31","116038","0.0-38.0","oxy0vra2","1512","945","","","","","","","","","","","null","+","Fixation - short","","null","","","","","","","","","","","","",""
"","html-keyboard-response","32","116612","0.0-39.0","oxy0vra2","1512","945","","","","","","","","","","","572","dnc","Practice diganostic trial","","j","practice","8","false","0","LEFT","f","0","","","","","",""
"","call-function","33","116613","0.0-41.0-0.0","oxy0vra2","","","","","","","","","","","","","","","","","","","","","","","","","","","","","",""
"","html-keyboard-response","34","116916","0.0-41.0-1.0","oxy0vra2","1512","945","","","","","","","","","","","null","Wrong","Feedback","","null","","","","","","","","","","","","",""
"","call-function","35","116917","0.0-41.0-2.0","oxy0vra2","","","","","","","","","","","","","","","","","","","","","","","","","","","","","",""
"","html-keyboard-response","36","117670","0.0-42.0","oxy0vra2","1512","945","","","","","","","","","","","null","+","Fixation - short","","null","","","","","","","","","","","","",""
"","html-keyboard-response","37","118617","0.0-43.0","oxy0vra2","1512","945","","","","","","","","","","","945","lct","Practice diganostic trial","","f","practice","9","false","0","LEFT","f","1","","","","","",""
"","html-keyboard-response","38","119370","0.0-46.0","oxy0vra2","1512","945","","","","","","","","","","","null","+","Fixation - short","","null","","","","","","","","","","","","",""
"","html-keyboard-response","39","120070","0.0-47.0","oxy0vra2","1512","945","","","","","","","","","","","699","dnc","Practice diganostic trial","","j","practice","10","false","1","RIGHT","j","1","","","","","",""
"","html-keyboard-response","40","120823","0.0-50.0","oxy0vra2","1512","945","","","","","","","","","","","null","+","Fixation - short","","null","","","","","","","","","","","","",""
"","html-keyboard-response","41","121481","0.0-51.0","oxy0vra2","1512","945","","","","","","","","","","","657","lct","Practice diganostic trial","","f","practice","11","false","0","LEFT","f","1","","","","","",""
"","html-keyboard-response","42","122235","0.0-54.0","oxy0vra2","1512","945","","","","","","","","","","","null","+","Fixation - short","","null","","","","","","","","","","","","",""
"","html-keyboard-response","43","122798","0.0-55.0","oxy0vra2","1512","945","","","","","","","","","","","562","lct","Practice diganostic trial","","f","practice","12","false","1","RIGHT","j","0","","","","","",""
"","call-function","44","122800","0.0-57.0-0.0","oxy0vra2","","","","","","","","","","","","","","","","","","","","","","","","","","","","","",""
"","html-keyboard-response","45","123103","0.0-57.0-1.0","oxy0vra2","1512","945","","","","","","","","","","","null","Wrong","Feedback","","null","","","","","","","","","","","","",""
"","call-function","46","123104","0.0-57.0-2.0","oxy0vra2","","","","","","","","","","","","","","","","","","","","","","","","","","","","","",""
"","html-keyboard-response","47","123856","0.0-58.0","oxy0vra2","1512","945","","","","","","","","","","","null","+","Fixation - short","","null","","","","","","","","","","","","",""
"","html-keyboard-response","48","125187","0.0-59.0","oxy0vra2","1512","945","","","","","","","","","","","1330","lct","Practice diganostic trial","","f","practice","13","false","0","LEFT","f","1","","","","","",""
"","html-keyboard-response","49","125940","0.0-62.0","oxy0vra2","1512","945","","","","","","","","","","","null","+","Fixation - short","","null","","","","","","","","","","","","",""
"","html-keyboard-response","50","126452","0.0-63.0","oxy0vra2","1512","945","","","","","","","","","","","510","lct","Practice diganostic trial","","j","practice","14","false","1","RIGHT","j","1","","","","","",""
"","html-keyboard-response","51","127205","0.0-66.0","oxy0vra2","1512","945","","","","","","","","","","","null","+","Fixation - short","","null","","","","","","","","","","","","",""
"","html-keyboard-response","52","127944","0.0-67.0","oxy0vra2","1512","945","","","","","","","","","","","738","dnc","Practice diganostic trial","","f","practice","15","false","0","LEFT","f","1","","","","","",""
"","html-keyboard-response","53","128697","0.0-70.0","oxy0vra2","1512","945","","","","","","","","","","","null","+","Fixation - short","","null","","","","","","","","","","","","",""
"","instructions","54","138116","0.0-71.0","oxy0vra2","1512","945","","","","","","","","","","[{""page_index"":0,""viewing_time"":9417}]","9417","Instructions","Final experiment explanation","","","","","","","","","","","","","","",""
"","html-keyboard-response","55","148231","0.0-72.0","oxy0vra2","1512","945","","","","","","","","","","","8610","If crf press RIGHT | If ume press LEFT","Practice inducer instructions",""," ","practice","","","","","","","","","","","",""
"","html-keyboard-response","56","148868","0.0-73.0","oxy0vra2","1512","945","","","","","","","","","","","636","","Practice inducer trial","","j","practice","","true","","","j","1","RIGHT","","","","",""
"","html-keyboard-response","57","149621","0.0-76.0","oxy0vra2","1512","945","","","","","","","","","","","null","+","Fixation - short","","null","","","","","","","","","","","","",""
"","html-keyboard-response","58","153516","0.0-77.0","oxy0vra2","1512","945","","","","","","","","","","","3892","If edc press RIGHT | If rrd press LEFT","Practice inducer instructions",""," ","practice","","","","","","","","","","","",""
"","html-keyboard-response","59","154244","0.0-78.0","oxy0vra2","1512","945","","","","","","","","","","","727","","Practice inducer trial","","f","practice","","true","","","f","1","LEFT","","","","",""
"","html-keyboard-response","60","154997","0.0-81.0","oxy0vra2","1512","945","","","","","","","","","","","null","+","Fixation - short","","null","","","","","","","","","","","","",""
"","html-keyboard-response","61","157337","0.0-82.0","oxy0vra2","1512","945","","","","","","","","","","","2337","If goj press RIGHT | If mik press LEFT","Practice inducer instructions",""," ","practice","","","","","","","","","","","",""
"","html-keyboard-response","62","157871","0.0-83.0","oxy0vra2","1512","945","","","","","","","","","","","533","","Practice inducer trial","","j","practice","","true","","","j","1","RIGHT","","","","",""
"","html-keyboard-response","63","158624","0.0-86.0","oxy0vra2","1512","945","","","","","","","","","","","null","+","Fixation - short","","null","","","","","","","","","","","","",""
"","html-keyboard-response","64","161085","0.0-87.0","oxy0vra2","1512","945","","","","","","","","","","","2458","If imm press RIGHT | If vbt press LEFT","Practice inducer instructions",""," ","practice","","","","","","","","","","","",""
"","html-keyboard-response","65","161569","0.0-88.0","oxy0vra2","1512","945","","","","","","","","","","","483","","Practice inducer trial","","j","practice","","true","","","j","1","RIGHT","","","","",""
"","html-keyboard-response","66","162322","0.0-91.0","oxy0vra2","1512","945","","","","","","","","","","","null","+","Fixation - short","","null","","","","","","","","","","","","",""
"","html-keyboard-response","67","163921","0.0-92.0","oxy0vra2","1512","945","","","","","","","","","","","1597","If yna press RIGHT | If mmo press LEFT","Practice inducer instructions",""," ","practice","","","","","","","","","","","",""
"","html-keyboard-response","68","164480","0.0-93.0","oxy0vra2","1512","945","","","","","","","","","","","558","","Practice inducer trial","","f","practice","","true","","","f","1","LEFT","","","","",""
"","html-keyboard-response","69","165233","0.0-96.0","oxy0vra2","1512","945","","","","","","","","","","","null","+","Fixation - short","","null","","","","","","","","","","","","",""
"","html-keyboard-response","70","167081","0.0-97.0","oxy0vra2","1512","945","","","","","","","","","","","1846","If oez press RIGHT | If tkb press LEFT","Practice inducer instructions",""," ","practice","","","","","","","","","","","",""
"","html-keyboard-response","71","167624","0.0-98.0","oxy0vra2","1512","945","","","","","","","","","","","541","","Practice inducer trial","","f","practice","","true","","","f","1","LEFT","","","","",""
"","html-keyboard-response","72","168378","0.0-101.0","oxy0vra2","1512","945","","","","","","","","","","","null","+","Fixation - short","","null","","","","","","","","","","","","",""
"","html-keyboard-response","73","187148","0.0-102.0","oxy0vra2","1512","945","","","","","","","","","","","18767","End practice","End of practice",""," ","","","","","","","","","","","","",""
"","html-keyboard-response","74","188650","0.0-103.0","oxy0vra2","1512","945","","","","","","","","","","","null","+","Fixation - long","","null","","","","","","","","","","","","",""
"","html-keyboard-response","75","193353","0.0-104.0","oxy0vra2","1512","945","","","","","","","","","","","4700","If hhd press RIGHT | If amb press LEFT","Inducer instructions",""," ","0","","","","","","","","","","","",""
"","html-keyboard-response","76","194106","0.0-105.0","oxy0vra2","1512","945","","","","","","","","","","","null","+","Fixation - short","","null","","","","","","","","","","","","",""
"","html-keyboard-response","77","194673","0.0-106.0","oxy0vra2","1512","945","","","","","","","","","","","565","amb","Diagnostic trial","","f","0","0","false","false","LEFT","f","1","","RIGHT","false","","",""
"","html-keyboard-response","78","195427","0.0-109.0","oxy0vra2","1512","945","","","","","","","","","","","null","+","Fixation - short","","null","","","","","","","","","","","","",""
"","html-keyboard-response","79","195994","0.0-110.0","oxy0vra2","1512","945","","","","","","","","","","","564","hhd","Diagnostic trial","","j","0","1","false","false","LEFT","f","0","","LEFT","true","","",""
"","call-function","80","195995","0.0-112.0-0.0","oxy0vra2","","","","","","","","","","","","","","","","","","","","","","","","","","","","","",""
"","html-keyboard-response","81","196297","0.0-112.0-1.0","oxy0vra2","1512","945","","","","","","","","","","","null","Wrong","Feedback","","null","","","","","","","","","","","","",""
"","call-function","82","196299","0.0-112.0-2.0","oxy0vra2","","","","","","","","","","","","","","","","","","","","","","","","","","","","","",""
"","html-keyboard-response","83","197052","0.0-113.0","oxy0vra2","1512","945","","","","","","","","","","","null","+","Fixation - short","","null","","","","","","","","","","","","",""
"","html-keyboard-response","84","197663","0.0-114.0","oxy0vra2","1512","945","","","","","","","","","","","610","hhd","Diagnostic trial","","j","0","2","false","true","RIGHT","j","1","","LEFT","false","","",""
"","html-keyboard-response","85","198417","0.0-117.0","oxy0vra2","1512","945","","","","","","","","","","","null","+","Fixation - short","","null","","","","","","","","","","","","",""
"","html-keyboard-response","86","198937","0.0-118.0","oxy0vra2","1512","945","","","","","","","","","","","519","hhd","Diagnostic trial","","j","0","3","false","true","RIGHT","j","1","","LEFT","false","","",""
"","html-keyboard-response","87","199690","0.0-121.0","oxy0vra2","1512","945","","","","","","","","","","","null","+","Fixation - short","","null","","","","","","","","","","","","",""
"","html-keyboard-response","88","200094","0.0-122.0","oxy0vra2","1512","945","","","","","","","","","","","403","hhd","Diagnostic trial","","j","0","4","false","true","RIGHT","j","1","","LEFT","false","","",""
"","html-keyboard-response","89","200847","0.0-125.0","oxy0vra2","1512","945","","","","","","","","","","","null","+","Fixation - short","","null","","","","","","","","","","","","",""
"","html-keyboard-response","90","201470","0.0-126.0","oxy0vra2","1512","945","","","","","","","","","","","622","amb","Diagnostic trial","","f","0","5","false","false","LEFT","f","1","","RIGHT","false","","",""
"","html-keyboard-response","91","202223","0.0-129.0","oxy0vra2","1512","945","","","","","","","","","","","null","+","Fixation - short","","null","","","","","","","","","","","","",""
"","html-keyboard-response","92","202744","0.0-130.0","oxy0vra2","1512","945","","","","","","","","","","","519","hhd","Diagnostic trial","","j","0","6","false","false","LEFT","f","0","","LEFT","true","","",""
"","call-function","93","202745","0.0-132.0-0.0","oxy0vra2","","","","","","","","","","","","","","","","","","","","","","","","","","","","","",""
"","html-keyboard-response","94","203047","0.0-132.0-1.0","oxy0vra2","1512","945","","","","","","","","","","","null","Wrong","Feedback","","null","","","","","","","","","","","","",""
"","call-function","95","203048","0.0-132.0-2.0","oxy0vra2","","","","","","","","","","","","","","","","","","","","","","","","","","","","","",""
"","html-keyboard-response","96","203801","0.0-133.0","oxy0vra2","1512","945","","","","","","","","","","","null","+","Fixation - short","","null","","","","","","","","","","","","",""
"","html-keyboard-response","97","204576","0.0-134.0","oxy0vra2","1512","945","","","","","","","","","","","773","amb","Diagnostic trial","","f","0","7","false","true","RIGHT","j","0","","RIGHT","true","","",""
"","call-function","98","204577","0.0-136.0-0.0","oxy0vra2","","","","","","","","","","","","","","","","","","","","","","","","","","","","","",""
"","html-keyboard-response","99","204880","0.0-136.0-1.0","oxy0vra2","1512","945","","","","","","","","","","","null","Wrong","Feedback","","null","","","","","","","","","","","","",""
"","call-function","100","204880","0.0-136.0-2.0","oxy0vra2","","","","","","","","","","","","","","","","","","","","","","","","","","","","","",""
"","html-keyboard-response","101","205633","0.0-137.0","oxy0vra2","1512","945","","","","","","","","","","","null","+","Fixation - short","","null","","","","","","","","","","","","",""
"","html-keyboard-response","102","206496","0.0-138.0","oxy0vra2","1512","945","","","","","","","","","","","861","amb","Diagnostic trial","","f","0","8","false","false","LEFT","f","1","","RIGHT","false","","",""
"","html-keyboard-response","103","207249","0.0-141.0","oxy0vra2","1512","945","","","","","","","","","","","null","+","Fixation - short","","null","","","","","","","","","","","","",""
"","html-keyboard-response","104","207983","0.0-142.0","oxy0vra2","1512","945","","","","","","","","","","","732","hhd","Diagnostic trial","","j","0","9","false","true","RIGHT","j","1","","LEFT","false","","",""
"","html-keyboard-response","105","208737","0.0-145.0","oxy0vra2","1512","945","","","","","","","","","","","null","+","Fixation - short","","null","","","","","","","","","","","","",""
"","html-keyboard-response","106","209504","0.0-146.0","oxy0vra2","1512","945","","","","","","","","","","","765","hhd","Diagnostic trial","","j","0","10","false","false","LEFT","f","0","","LEFT","true","","",""
"","call-function","107","209505","0.0-148.0-0.0","oxy0vra2","","","","","","","","","","","","","","","","","","","","","","","","","","","","","",""
"","html-keyboard-response","108","209807","0.0-148.0-1.0","oxy0vra2","1512","945","","","","","","","","","","","null","Wrong","Feedback","","null","","","","","","","","","","","","",""
"","call-function","109","209808","0.0-148.0-2.0","oxy0vra2","","","","","","","","","","","","","","","","","","","","","","","","","","","","","",""
"","html-keyboard-response","110","210562","0.0-149.0","oxy0vra2","1512","945","","","","","","","","","","","null","+","Fixation - short","","null","","","","","","","","","","","","",""
"","html-keyboard-response","111","211475","0.0-150.0","oxy0vra2","1512","945","","","","","","","","","","","910","hhd","Inducer trial","","j","0","","true","","","j","1","RIGHT","","","","",""
"","html-keyboard-response","112","212979","0.0-153.0","oxy0vra2","1512","945","","","","","","","","","","","null","+","Fixation - long","","null","","","","","","","","","","","","",""
"","html-keyboard-response","113","217666","0.0-154.0","oxy0vra2","1512","945","","","","","","","","","","","4685","If yrp press RIGHT | If rif press LEFT","Inducer instructions",""," ","1","","","","","","","","","","","",""
"","html-keyboard-response","114","218419","0.0-155.0","oxy0vra2","1512","945","","","","","","","","","","","null","+","Fixation - short","","null","","","","","","","","","","","","",""
"","html-keyboard-response","115","218835","0.0-156.0","oxy0vra2","1512","945","","","","","","","","","","","414","yrp","Diagnostic trial","","j","1","0","false","true","RIGHT","j","1","","LEFT","false","","",""
"","html-keyboard-response","116","219588","0.0-159.0","oxy0vra2","1512","945","","","","","","","","","","","null","+","Fixation - short","","null","","","","","","","","","","","","",""
"","html-keyboard-response","117","220018","0.0-160.0","oxy0vra2","1512","945","","","","","","","","","","","429","yrp","Diagnostic trial","","j","1","1","false","true","RIGHT","j","1","","LEFT","false","","",""
"","html-keyboard-response","118","220771","0.0-163.0","oxy0vra2","1512","945","","","","","","","","","","","null","+","Fixation - short","","null","","","","","","","","","","","","",""
"","html-keyboard-response","119","221210","0.0-164.0","oxy0vra2","1512","945","","","","","","","","","","","437","yrp","Diagnostic trial","","f","1","2","false","false","LEFT","f","1","","LEFT","true","","",""
"","html-keyboard-response","120","221963","0.0-167.0","oxy0vra2","1512","945","","","","","","","","","","","null","+","Fixation - short","","null","","","","","","","","","","","","",""
"","html-keyboard-response","121","222532","0.0-168.0","oxy0vra2","1512","945","","","","","","","","","","","567","yrp","Diagnostic trial","","j","1","3","false","true","RIGHT","j","1","","LEFT","false","","",""
"","html-keyboard-response","122","223286","0.0-171.0","oxy0vra2","1512","945","","","","","","","","","","","null","+","Fixation - short","","null","","","","","","","","","","","","",""
"","html-keyboard-response","123","223882","0.0-172.0","oxy0vra2","1512","945","","","","","","","","","","","595","yrp","Diagnostic trial","","f","1","4","false","false","LEFT","f","1","","LEFT","true","","",""
"","html-keyboard-response","124","224636","0.0-175.0","oxy0vra2","1512","945","","","","","","","","","","","null","+","Fixation - short","","null","","","","","","","","","","","","",""
"","html-keyboard-response","125","225070","0.0-176.0","oxy0vra2","1512","945","","","","","","","","","","","432","yrp","Diagnostic trial","","j","1","5","false","true","RIGHT","j","1","","LEFT","false","","",""
"","html-keyboard-response","126","225822","0.0-179.0","oxy0vra2","1512","945","","","","","","","","","","","null","+","Fixation - short","","null","","","","","","","","","","","","",""
"","html-keyboard-response","127","226527","0.0-180.0","oxy0vra2","1512","945","","","","","","","","","","","703","rif","Diagnostic trial","","f","1","6","false","false","LEFT","f","1","","RIGHT","false","","",""
"","html-keyboard-response","128","227280","0.0-183.0","oxy0vra2","1512","945","","","","","","","","","","","null","+","Fixation - short","","null","","","","","","","","","","","","",""
"","html-keyboard-response","129","227831","0.0-184.0","oxy0vra2","1512","945","","","","","","","","","","","550","rif","Diagnostic trial","","f","1","7","false","false","LEFT","f","1","","RIGHT","false","","",""
"","html-keyboard-response","130","228585","0.0-187.0","oxy0vra2","1512","945","","","","","","","","","","","null","+","Fixation - short","","null","","","","","","","","","","","","",""
"","html-keyboard-response","131","229562","0.0-188.0","oxy0vra2","1512","945","","","","","","","","","","","975","rif","Diagnostic trial","","j","1","8","false","true","RIGHT","j","1","","RIGHT","true","","",""
"","html-keyboard-response","132","230316","0.0-191.0","oxy0vra2","1512","945","","","","","","","","","","","null","+","Fixation - short","","null","","","","","","","","","","","","",""
"","html-keyboard-response","133","231121","0.0-192.0","oxy0vra2","1512","945","","","","","","","","","","","803","rif","Diagnostic trial","","f","1","9","false","false","LEFT","f","1","","RIGHT","false","","",""
"","html-keyboard-response","134","231874","0.0-195.0","oxy0vra2","1512","945","","","","","","","","","","","null","+","Fixation - short","","null","","","","","","","","","","","","",""
"","html-keyboard-response","135","232425","0.0-196.0","oxy0vra2","1512","945","","","","","","","","","","","549","yrp","Diagnostic trial","","j","1","10","false","true","RIGHT","j","1","","LEFT","false","","",""
"","html-keyboard-response","136","233178","0.0-199.0","oxy0vra2","1512","945","","","","","","","","","","","null","+","Fixation - short","","null","","","","","","","","","","","","",""
"","html-keyboard-response","137","233729","0.0-200.0","oxy0vra2","1512","945","","","","","","","","","","","550","yrp","Diagnostic trial","","j","1","11","false","true","RIGHT","j","1","","LEFT","false","","",""
"","html-keyboard-response","138","234483","0.0-203.0","oxy0vra2","1512","945","","","","","","","","","","","null","+","Fixation - short","","null","","","","","","","","","","","","",""
"","html-keyboard-response","139","235176","0.0-204.0","oxy0vra2","1512","945","","","","","","","","","","","692","rif","Diagnostic trial","","f","1","12","false","false","LEFT","f","1","","RIGHT","false","","",""
"","html-keyboard-response","140","235928","0.0-207.0","oxy0vra2","1512","945","","","","","","","","","","","null","+","Fixation - short","","null","","","","","","","","","","","","",""
"","html-keyboard-response","141","236505","0.0-208.0","oxy0vra2","1512","945","","","","","","","","","","","575","yrp","Diagnostic trial","","j","1","13","false","true","RIGHT","j","1","","LEFT","false","","",""
"","html-keyboard-response","142","237258","0.0-211.0","oxy0vra2","1512","945","","","","","","","","","","","null","+","Fixation - short","","null","","","","","","","","","","","","",""
"","html-keyboard-response","143","237827","0.0-212.0","oxy0vra2","1512","945","","","","","","","","","","","568","rif","Diagnostic trial","","f","1","14","false","false","LEFT","f","1","","RIGHT","false","","",""
"","html-keyboard-response","144","238581","0.0-215.0","oxy0vra2","1512","945","","","","","","","","","","","null","+","Fixation - short","","null","","","","","","","","","","","","",""
"","html-keyboard-response","145","239372","0.0-216.0","oxy0vra2","1512","945","","","","","","","","","","","789","yrp","Inducer trial","","j","1","","true","","","j","1","RIGHT","","","","",""
"","html-keyboard-response","146","240875","0.0-219.0","oxy0vra2","1512","945","","","","","","","","","","","null","+","Fixation - long","","null","","","","","","","","","","","","",""
"","html-keyboard-response","147","244312","0.0-220.0","oxy0vra2","1512","945","","","","","","","","","","","3436","If ccx press RIGHT | If psl press LEFT","Inducer instructions",""," ","2","","","","","","","","","","","",""
"","html-keyboard-response","148","245065","0.0-221.0","oxy0vra2","1512","945","","","","","","","","","","","null","+","Fixation - short","","null","","","","","","","","","","","","",""
"","html-keyboard-response","149","245549","0.0-222.0","oxy0vra2","1512","945","","","","","","","","","","","482","psl","Diagnostic trial","","f","2","0","false","false","LEFT","f","1","","RIGHT","false","","",""
"","html-keyboard-response","150","246303","0.0-225.0","oxy0vra2","1512","945","","","","","","","","","","","null","+","Fixation - short","","null","","","","","","","","","","","","",""
"","html-keyboard-response","151","246824","0.0-226.0","oxy0vra2","1512","945","","","","","","","","","","","519","psl","Diagnostic trial","","f","2","1","false","false","LEFT","f","1","","RIGHT","false","","",""
"","html-keyboard-response","152","247576","0.0-229.0","oxy0vra2","1512","945","","","","","","","","","","","null","+","Fixation - short","","null","","","","","","","","","","","","",""
"","html-keyboard-response","153","248128","0.0-230.0","oxy0vra2","1512","945","","","","","","","","","","","550","psl","Diagnostic trial","","j","2","2","false","true","RIGHT","j","1","","RIGHT","true","","",""
"","html-keyboard-response","154","248881","0.0-233.0","oxy0vra2","1512","945","","","","","","","","","","","null","+","Fixation - short","","null","","","","","","","","","","","","",""
"","html-keyboard-response","155","249635","0.0-234.0","oxy0vra2","1512","945","","","","","","","","","","","753","ccx","Diagnostic trial","","f","2","3","false","false","LEFT","f","1","","LEFT","true","","",""
"","html-keyboard-response","156","250389","0.0-237.0","oxy0vra2","1512","945","","","","","","","","","","","null","+","Fixation - short","","null","","","","","","","","","","","","",""
"","html-keyboard-response","157","250990","0.0-238.0","oxy0vra2","1512","945","","","","","","","","","","","600","psl","Diagnostic trial","","f","2","4","false","false","LEFT","f","1","","RIGHT","false","","",""
"","html-keyboard-response","158","251743","0.0-241.0","oxy0vra2","1512","945","","","","","","","","","","","null","+","Fixation - short","","null","","","","","","","","","","","","",""
"","html-keyboard-response","159","252208","0.0-242.0","oxy0vra2","1512","945","","","","","","","","","","","462","psl","Diagnostic trial","","f","2","5","false","false","LEFT","f","1","","RIGHT","false","","",""
"","html-keyboard-response","160","252960","0.0-245.0","oxy0vra2","1512","945","","","","","","","","","","","null","+","Fixation - short","","null","","","","","","","","","","","","",""
"","html-keyboard-response","161","253370","0.0-246.0","oxy0vra2","1512","945","","","","","","","","","","","409","ccx","Diagnostic trial","","j","2","6","false","true","RIGHT","j","1","","LEFT","false","","",""
"","html-keyboard-response","162","254123","0.0-249.0","oxy0vra2","1512","945","","","","","","","","","","","null","+","Fixation - short","","null","","","","","","","","","","","","",""
"","html-keyboard-response","163","254669","0.0-250.0","oxy0vra2","1512","945","","","","","","","","","","","544","psl","Diagnostic trial","","f","2","7","false","false","LEFT","f","1","","RIGHT","false","","",""
"","html-keyboard-response","164","255422","0.0-253.0","oxy0vra2","1512","945","","","","","","","","","","","null","+","Fixation - short","","null","","","","","","","","","","","","",""
"","html-keyboard-response","165","255854","0.0-254.0","oxy0vra2","1512","945","","","","","","","","","","","430","ccx","Diagnostic trial","","j","2","8","false","true","RIGHT","j","1","","LEFT","false","","",""
"","html-keyboard-response","166","256607","0.0-257.0","oxy0vra2","1512","945","","","","","","","","","","","null","+","Fixation - short","","null","","","","","","","","","","","","",""
"","html-keyboard-response","167","257027","0.0-258.0","oxy0vra2","1512","945","","","","","","","","","","","419","ccx","Diagnostic trial","","j","2","9","false","true","RIGHT","j","1","","LEFT","false","","",""
"","html-keyboard-response","168","257779","0.0-261.0","oxy0vra2","1512","945","","","","","","","","","","","null","+","Fixation - short","","null","","","","","","","","","","","","",""
"","html-keyboard-response","169","258256","0.0-262.0","oxy0vra2","1512","945","","","","","","","","","","","474","psl","Diagnostic trial","","f","2","10","false","false","LEFT","f","1","","RIGHT","false","","",""
"","html-keyboard-response","170","259009","0.0-265.0","oxy0vra2","1512","945","","","","","","","","","","","null","+","Fixation - short","","null","","","","","","","","","","","","",""
"","html-keyboard-response","171","259467","0.0-266.0","oxy0vra2","1512","945","","","","","","","","","","","457","psl","Diagnostic trial","","f","2","11","false","false","LEFT","f","1","","RIGHT","false","","",""
"","html-keyboard-response","172","260219","0.0-269.0","oxy0vra2","1512","945","","","","","","","","","","","null","+","Fixation - short","","null","","","","","","","","","","","","",""
"","html-keyboard-response","173","260738","0.0-270.0","oxy0vra2","1512","945","","","","","","","","","","","517","ccx","Diagnostic trial","","j","2","12","false","true","RIGHT","j","1","","LEFT","false","","",""
"","html-keyboard-response","174","261492","0.0-273.0","oxy0vra2","1512","945","","","","","","","","","","","null","+","Fixation - short","","null","","","","","","","","","","","","",""
"","html-keyboard-response","175","262057","0.0-274.0","oxy0vra2","1512","945","","","","","","","","","","","564","ccx","Diagnostic trial","","f","2","13","false","false","LEFT","f","1","","LEFT","true","","",""
"","html-keyboard-response","176","262810","0.0-277.0","oxy0vra2","1512","945","","","","","","","","","","","null","+","Fixation - short","","null","","","","","","","","","","","","",""
"","html-keyboard-response","177","263316","0.0-278.0","oxy0vra2","1512","945","","","","","","","","","","","504","ccx","Diagnostic trial","","j","2","14","false","true","RIGHT","j","1","","LEFT","false","","",""
"","html-keyboard-response","178","264069","0.0-281.0","oxy0vra2","1512","945","","","","","","","","","","","null","+","Fixation - short","","null","","","","","","","","","","","","",""
"","html-keyboard-response","179","264732","0.0-282.0","oxy0vra2","1512","945","","","","","","","","","","","661","ccx","Inducer trial","","j","2","","true","","","j","1","RIGHT","","","","",""
"","html-keyboard-response","180","266234","0.0-285.0","oxy0vra2","1512","945","","","","","","","","","","","null","+","Fixation - long","","null","","","","","","","","","","","","",""
"","html-keyboard-response","181","269572","0.0-286.0","oxy0vra2","1512","945","","","","","","","","","","","3336","If jup press RIGHT | If ttm press LEFT","Inducer instructions",""," ","3","","","","","","","","","","","",""
"","html-keyboard-response","182","270325","0.0-287.0","oxy0vra2","1512","945","","","","","","","","","","","null","+","Fixation - short","","null","","","","","","","","","","","","",""
"","html-keyboard-response","183","270853","0.0-288.0","oxy0vra2","1512","945","","","","","","","","","","","527","ttm","Diagnostic trial","","f","3","0","false","true","RIGHT","j","0","","RIGHT","true","","",""
"","call-function","184","270854","0.0-290.0-0.0","oxy0vra2","","","","","","","","","","","","","","","","","","","","","","","","","","","","","",""
"","html-keyboard-response","185","271157","0.0-290.0-1.0","oxy0vra2","1512","945","","","","","","","","","","","null","Wrong","Feedback","","null","","","","","","","","","","","","",""
"","call-function","186","271158","0.0-290.0-2.0","oxy0vra2","","","","","","","","","","","","","","","","","","","","","","","","","","","","","",""
"","html-keyboard-response","187","271911","0.0-291.0","oxy0vra2","1512","945","","","","","","","","","","","null","+","Fixation - short","","null","","","","","","","","","","","","",""
"","html-keyboard-response","188","272435","0.0-292.0","oxy0vra2","1512","945","","","","","","","","","","","522","jup","Diagnostic trial","","j","3","1","false","true","RIGHT","j","1","","LEFT","false","","",""
"","html-keyboard-response","189","273188","0.0-295.0","oxy0vra2","1512","945","","","","","","","","","","","null","+","Fixation - short","","null","","","","","","","","","","","","",""
"","html-keyboard-response","190","273624","0.0-296.0","oxy0vra2","1512","945","","","","","","","","","","","434","jup","Diagnostic trial","","j","3","2","false","true","RIGHT","j","1","","LEFT","false","","",""
"","html-keyboard-response","191","274378","0.0-299.0","oxy0vra2","1512","945","","","","","","","","","","","null","+","Fixation - short","","null","","","","","","","","","","","","",""
"","html-keyboard-response","192","274886","0.0-300.0","oxy0vra2","1512","945","","","","","","","","","","","507","ttm","Diagnostic trial","","f","3","3","false","false","LEFT","f","1","","RIGHT","false","","",""
"","html-keyboard-response","193","275638","0.0-303.0","oxy0vra2","1512","945","","","","","","","","","","","null","+","Fixation - short","","null","","","","","","","","","","","","",""
"","html-keyboard-response","194","276380","0.0-304.0","oxy0vra2","1512","945","","","","","","","","","","","740","ttm","Inducer trial","","f","3","","true","","","f","1","LEFT","","","","",""
"","html-keyboard-response","195","277883","0.0-307.0","oxy0vra2","1512","945","","","","","","","","","","","null","+","Fixation - long","","null","","","","","","","","","","","","",""
"","html-keyboard-response","196","280154","0.0-308.0","oxy0vra2","1512","945","","","","","","","","","","","2269","If efg press RIGHT | If rbc press LEFT","Inducer instructions",""," ","4","","","","","","","","","","","",""
"","html-keyboard-response","197","280907","0.0-309.0","oxy0vra2","1512","945","","","","","","","","","","","null","+","Fixation - short","","null","","","","","","","","","","","","",""
"","html-keyboard-response","198","281549","0.0-310.0","oxy0vra2","1512","945","","","","","","","","","","","640","efg","Diagnostic trial","","f","4","0","false","false","LEFT","f","1","","LEFT","true","","",""
"","html-keyboard-response","199","282302","0.0-313.0","oxy0vra2","1512","945","","","","","","","","","","","null","+","Fixation - short","","null","","","","","","","","","","","","",""
"","html-keyboard-response","200","282757","0.0-314.0","oxy0vra2","1512","945","","","","","","","","","","","454","efg","Diagnostic trial","","f","4","1","false","false","LEFT","f","1","","LEFT","true","","",""
"","html-keyboard-response","201","283510","0.0-317.0","oxy0vra2","1512","945","","","","","","","","","","","null","+","Fixation - short","","null","","","","","","","","","","","","",""
"","html-keyboard-response","202","283987","0.0-318.0","oxy0vra2","1512","945","","","","","","","","","","","475","efg","Diagnostic trial","","j","4","2","false","true","RIGHT","j","1","","LEFT","false","","",""
"","html-keyboard-response","203","284740","0.0-321.0","oxy0vra2","1512","945","","","","","","","","","","","null","+","Fixation - short","","null","","","","","","","","","","","","",""
"","html-keyboard-response","204","285274","0.0-322.0","oxy0vra2","1512","945","","","","","","","","","","","532","rbc","Diagnostic trial","","f","4","3","false","false","LEFT","f","1","","RIGHT","false","","",""
"","html-keyboard-response","205","286027","0.0-325.0","oxy0vra2","1512","945","","","","","","","","","","","null","+","Fixation - short","","null","","","","","","","","","","","","",""
"","html-keyboard-response","206","286532","0.0-326.0","oxy0vra2","1512","945","","","","","","","","","","","503","rbc","Diagnostic trial","","j","4","4","false","true","RIGHT","j","1","","RIGHT","true","","",""
"","html-keyboard-response","207","287285","0.0-329.0","oxy0vra2","1512","945","","","","","","","","","","","null","+","Fixation - short","","null","","","","","","","","","","","","",""
"","html-keyboard-response","208","287854","0.0-330.0","oxy0vra2","1512","945","","","","","","","","","","","568","efg","Diagnostic trial","","f","4","5","false","false","LEFT","f","1","","LEFT","true","","",""
"","html-keyboard-response","209","288606","0.0-333.0","oxy0vra2","1512","945","","","","","","","","","","","null","+","Fixation - short","","null","","","","","","","","","","","","",""
"","html-keyboard-response","210","289233","0.0-334.0","oxy0vra2","1512","945","","","","","","","","","","","625","efg","Diagnostic trial","","j","4","6","false","true","RIGHT","j","1","","LEFT","false","","",""
"","html-keyboard-response","211","289987","0.0-337.0","oxy0vra2","1512","945","","","","","","","","","","","null","+","Fixation - short","","null","","","","","","","","","","","","",""
"","html-keyboard-response","212","290431","0.0-338.0","oxy0vra2","1512","945","","","","","","","","","","","442","efg","Diagnostic trial","","j","4","7","false","false","LEFT","f","0","","LEFT","true","","",""
"","call-function","213","290432","0.0-340.0-0.0","oxy0vra2","","","","","","","","","","","","","","","","","","","","","","","","","","","","","",""
"","html-keyboard-response","214","290735","0.0-340.0-1.0","oxy0vra2","1512","945","","","","","","","","","","","null","Wrong","Feedback","","null","","","","","","","","","","","","",""
"","call-function","215","290736","0.0-340.0-2.0","oxy0vra2","","","","","","","","","","","","","","","","","","","","","","","","","","","","","",""
"","html-keyboard-response","216","291489","0.0-341.0","oxy0vra2","1512","945","","","","","","","","","","","null","+","Fixation - short","","null","","","","","","","","","","","","",""
"","html-keyboard-response","217","292041","0.0-342.0","oxy0vra2","1512","945","","","","","","","","","","","550","rbc","Diagnostic trial","","j","4","8","false","true","RIGHT","j","1","","RIGHT","true","","",""
"","html-keyboard-response","218","292795","0.0-345.0","oxy0vra2","1512","945","","","","","","","","","","","null","+","Fixation - short","","null","","","","","","","","","","","","",""
"","html-keyboard-response","219","293818","0.0-346.0","oxy0vra2","1512","945","","","","","","","","","","","1020","rbc","Inducer trial","","f","4","","true","","","f","1","LEFT","","","","",""
"","html-keyboard-response","220","295321","0.0-349.0","oxy0vra2","1512","945","","","","","","","","","","","null","+","Fixation - long","","null","","","","","","","","","","","","",""
"","html-keyboard-response","221","297594","0.0-350.0","oxy0vra2","1512","945","","","","","","","","","","","2272","If byy press RIGHT | If ois press LEFT","Inducer instructions",""," ","5","","","","","","","","","","","",""
"","html-keyboard-response","222","298347","0.0-351.0","oxy0vra2","1512","945","","","","","","","","","","","null","+","Fixation - short","","null","","","","","","","","","","","","",""
"","html-keyboard-response","223","299051","0.0-352.0","oxy0vra2","1512","945","","","","","","","","","","","702","ois","Diagnostic trial","","j","5","0","false","true","RIGHT","j","1","","RIGHT","true","","",""
"","html-keyboard-response","224","299804","0.0-355.0","oxy0vra2","1512","945","","","","","","","","","","","null","+","Fixation - short","","null","","","","","","","","","","","","",""
"","html-keyboard-response","225","300241","0.0-356.0","oxy0vra2","1512","945","","","","","","","","","","","436","ois","Diagnostic trial","","j","5","1","false","true","RIGHT","j","1","","RIGHT","true","","",""
"","html-keyboard-response","226","300994","0.0-359.0","oxy0vra2","1512","945","","","","","","","","","","","null","+","Fixation - short","","null","","","","","","","","","","","","",""
"","html-keyboard-response","227","301677","0.0-360.0","oxy0vra2","1512","945","","","","","","","","","","","681","byy","Diagnostic trial","","f","5","2","false","false","LEFT","f","1","","LEFT","true","","",""
"","html-keyboard-response","228","302430","0.0-363.0","oxy0vra2","1512","945","","","","","","","","","","","null","+","Fixation - short","","null","","","","","","","","","","","","",""
"","html-keyboard-response","229","303015","0.0-364.0","oxy0vra2","1512","945","","","","","","","","","","","583","byy","Diagnostic trial","","j","5","3","false","true","RIGHT","j","1","","LEFT","false","","",""
"","html-keyboard-response","230","303768","0.0-367.0","oxy0vra2","1512","945","","","","","","","","","","","null","+","Fixation - short","","null","","","","","","","","","","","","",""
"","html-keyboard-response","231","304250","0.0-368.0","oxy0vra2","1512","945","","","","","","","","","","","480","byy","Diagnostic trial","","j","5","4","false","true","RIGHT","j","1","","LEFT","false","","",""
"","html-keyboard-response","232","305003","0.0-371.0","oxy0vra2","1512","945","","","","","","","","","","","null","+","Fixation - short","","null","","","","","","","","","","","","",""
"","html-keyboard-response","233","305798","0.0-372.0","oxy0vra2","1512","945","","","","","","","","","","","794","ois","Diagnostic trial","","j","5","5","false","true","RIGHT","j","1","","RIGHT","true","","",""
"","html-keyboard-response","234","306552","0.0-375.0","oxy0vra2","1512","945","","","","","","","","","","","null","+","Fixation - short","","null","","","","","","","","","","","","",""
"","html-keyboard-response","235","307529","0.0-376.0","oxy0vra2","1512","945","","","","","","","","","","","975","ois","Inducer trial","","f","5","","true","","","f","1","LEFT","","","","",""
"","html-keyboard-response","236","309032","0.0-379.0","oxy0vra2","1512","945","","","","","","","","","","","null","+","Fixation - long","","null","","","","","","","","","","","","",""
"","html-keyboard-response","237","310816","0.0-380.0","oxy0vra2","1512","945","","","","","","","","","","","1782","If ecl press RIGHT | If gfm press LEFT","Inducer instructions",""," ","6","","","","","","","","","","","",""
"","html-keyboard-response","238","311568","0.0-381.0","oxy0vra2","1512","945","","","","","","","","","","","null","+","Fixation - short","","null","","","","","","","","","","","","",""
"","html-keyboard-response","239","312224","0.0-382.0","oxy0vra2","1512","945","","","","","","","","","","","654","ecl","Diagnostic trial","","f","6","0","false","false","LEFT","f","1","","LEFT","true","","",""
"","html-keyboard-response","240","312977","0.0-385.0","oxy0vra2","1512","945","","","","","","","","","","","null","+","Fixation - short","","null","","","","","","","","","","","","",""
"","html-keyboard-response","241","313392","0.0-386.0","oxy0vra2","1512","945","","","","","","","","","","","413","ecl","Diagnostic trial","","f","6","1","false","false","LEFT","f","1","","LEFT","true","","",""
"","html-keyboard-response","242","314145","0.0-389.0","oxy0vra2","1512","945","","","","","","","","","","","null","+","Fixation - short","","null","","","","","","","","","","","","",""
"","html-keyboard-response","243","314667","0.0-390.0","oxy0vra2","1512","945","","","","","","","","","","","520","gfm","Diagnostic trial","","j","6","2","false","true","RIGHT","j","1","","RIGHT","true","","",""
"","html-keyboard-response","244","315421","0.0-393.0","oxy0vra2","1512","945","","","","","","","","","","","null","+","Fixation - short","","null","","","","","","","","","","","","",""
"","html-keyboard-response","245","316124","0.0-394.0","oxy0vra2","1512","945","","","","","","","","","","","702","gfm","Diagnostic trial","","f","6","3","false","false","LEFT","f","1","","RIGHT","false","","",""
"","html-keyboard-response","246","316878","0.0-397.0","oxy0vra2","1512","945","","","","","","","","","","","null","+","Fixation - short","","null","","","","","","","","","","","","",""
"","html-keyboard-response","247","317610","0.0-398.0","oxy0vra2","1512","945","","","","","","","","","","","731","ecl","Diagnostic trial","","f","6","4","false","false","LEFT","f","1","","LEFT","true","","",""
"","html-keyboard-response","248","318363","0.0-401.0","oxy0vra2","1512","945","","","","","","","","","","","null","+","Fixation - short","","null","","","","","","","","","","","","",""
"","html-keyboard-response","249","318905","0.0-402.0","oxy0vra2","1512","945","","","","","","","","","","","540","gfm","Diagnostic trial","","f","6","5","false","false","LEFT","f","1","","RIGHT","false","","",""
"","html-keyboard-response","250","319658","0.0-405.0","oxy0vra2","1512","945","","","","","","","","","","","null","+","Fixation - short","","null","","","","","","","","","","","","",""
"","html-keyboard-response","251","320160","0.0-406.0","oxy0vra2","1512","945","","","","","","","","","","","500","gfm","Diagnostic trial","","j","6","6","false","true","RIGHT","j","1","","RIGHT","true","","",""
"","html-keyboard-response","252","320913","0.0-409.0","oxy0vra2","1512","945","","","","","","","","","","","null","+","Fixation - short","","null","","","","","","","","","","","","",""
"","html-keyboard-response","253","321548","0.0-410.0","oxy0vra2","1512","945","","","","","","","","","","","633","ecl","Inducer trial","","f","6","","true","","","j","0","RIGHT","","","","",""
"","call-function","254","321548","0.0-412.0-0.0","oxy0vra2","","","","","","","","","","","","","","","","","","","","","","","","","","","","","",""
"","html-keyboard-response","255","321850","0.0-412.0-1.0","oxy0vra2","1512","945","","","","","","","","","","","null","Wrong","Feedback","","null","","","","","","","","","","","","",""
"","call-function","256","321851","0.0-412.0-2.0","oxy0vra2","","","","","","","","","","","","","","","","","","","","","","","","","","","","","",""
"","html-keyboard-response","257","323354","0.0-413.0","oxy0vra2","1512","945","","","","","","","","","","","null","+","Fixation - long","","null","","","","","","","","","","","","",""
"","html-keyboard-response","258","325419","0.0-414.0","oxy0vra2","1512","945","","","","","","","","","","","2063","If vrm press RIGHT | If flh press LEFT","Inducer instructions",""," ","7","","","","","","","","","","","",""
"","html-keyboard-response","259","326172","0.0-415.0","oxy0vra2","1512","945","","","","","","","","","","","null","+","Fixation - short","","null","","","","","","","","","","","","",""
"","html-keyboard-response","260","327017","0.0-416.0","oxy0vra2","1512","945","","","","","","","","","","","844","vrm","Diagnostic trial","","f","7","0","false","false","LEFT","f","1","","LEFT","true","","",""
"","html-keyboard-response","261","327770","0.0-419.0","oxy0vra2","1512","945","","","","","","","","","","","null","+","Fixation - short","","null","","","","","","","","","","","","",""
"","html-keyboard-response","262","328508","0.0-420.0","oxy0vra2","1512","945","","","","","","","","","","","736","vrm","Diagnostic trial","","j","7","1","false","true","RIGHT","j","1","","LEFT","false","","",""
"","html-keyboard-response","263","329261","0.0-423.0","oxy0vra2","1512","945","","","","","","","","","","","null","+","Fixation - short","","null","","","","","","","","","","","","",""
"","html-keyboard-response","264","329939","0.0-424.0","oxy0vra2","1512","945","","","","","","","","","","","677","vrm","Diagnostic trial","","f","7","2","false","false","LEFT","f","1","","LEFT","true","","",""
"","html-keyboard-response","265","330692","0.0-427.0","oxy0vra2","1512","945","","","","","","","","","","","null","+","Fixation - short","","null","","","","","","","","","","","","",""
"","html-keyboard-response","266","331368","0.0-428.0","oxy0vra2","1512","945","","","","","","","","","","","674","flh","Diagnostic trial","","j","7","3","false","true","RIGHT","j","1","","RIGHT","true","","",""
"","html-keyboard-response","267","332122","0.0-431.0","oxy0vra2","1512","945","","","","","","","","","","","null","+","Fixation - short","","null","","","","","","","","","","","","",""
"","html-keyboard-response","268","332805","0.0-432.0","oxy0vra2","1512","945","","","","","","","","","","","682","flh","Diagnostic trial","","f","7","4","false","false","LEFT","f","1","","RIGHT","false","","",""
"","html-keyboard-response","269","333559","0.0-435.0","oxy0vra2","1512","945","","","","","","","","","","","null","+","Fixation - short","","null","","","","","","","","","","","","",""
"","html-keyboard-response","270","334084","0.0-436.0","oxy0vra2","1512","945","","","","","","","","","","","524","flh","Diagnostic trial","","f","7","5","false","false","LEFT","f","1","","RIGHT","false","","",""
"","html-keyboard-response","271","334837","0.0-439.0","oxy0vra2","1512","945","","","","","","","","","","","null","+","Fixation - short","","null","","","","","","","","","","","","",""
"","html-keyboard-response","272","335315","0.0-440.0","oxy0vra2","1512","945","","","","","","","","","","","476","flh","Diagnostic trial","","f","7","6","false","false","LEFT","f","1","","RIGHT","false","","",""
"","html-keyboard-response","273","336068","0.0-443.0","oxy0vra2","1512","945","","","","","","","","","","","null","+","Fixation - short","","null","","","","","","","","","","","","",""
"","html-keyboard-response","274","336565","0.0-444.0","oxy0vra2","1512","945","","","","","","","","","","","495","flh","Diagnostic trial","","f","7","7","false","false","LEFT","f","1","","RIGHT","false","","",""
"","html-keyboard-response","275","337318","0.0-447.0","oxy0vra2","1512","945","","","","","","","","","","","null","+","Fixation - short","","null","","","","","","","","","","","","",""
"","html-keyboard-response","276","338096","0.0-448.0","oxy0vra2","1512","945","","","","","","","","","","","776","vrm","Diagnostic trial","","f","7","8","false","false","LEFT","f","1","","LEFT","true","","",""
"","html-keyboard-response","277","338848","0.0-451.0","oxy0vra2","1512","945","","","","","","","","","","","null","+","Fixation - short","","null","","","","","","","","","","","","",""
"","html-keyboard-response","278","339852","0.0-452.0","oxy0vra2","1512","945","","","","","","","","","","","1003","flh","Diagnostic trial","","j","7","9","false","true","RIGHT","j","1","","RIGHT","true","","",""
"","html-keyboard-response","279","340605","0.0-455.0","oxy0vra2","1512","945","","","","","","","","","","","null","+","Fixation - short","","null","","","","","","","","","","","","",""
"","html-keyboard-response","280","341403","0.0-456.0","oxy0vra2","1512","945","","","","","","","","","","","796","vrm","Diagnostic trial","","f","7","10","false","true","RIGHT","j","0","","LEFT","false","","",""
"","call-function","281","341403","0.0-458.0-0.0","oxy0vra2","","","","","","","","","","","","","","","","","","","","","","","","","","","","","",""
"","html-keyboard-response","282","341705","0.0-458.0-1.0","oxy0vra2","1512","945","","","","","","","","","","","null","Wrong","Feedback","","null","","","","","","","","","","","","",""
"","call-function","283","341706","0.0-458.0-2.0","oxy0vra2","","","","","","","","","","","","","","","","","","","","","","","","","","","","","",""
"","html-keyboard-response","284","342458","0.0-459.0","oxy0vra2","1512","945","","","","","","","","","","","null","+","Fixation - short","","null","","","","","","","","","","","","",""
"","html-keyboard-response","285","343240","0.0-460.0","oxy0vra2","1512","945","","","","","","","","","","","780","vrm","Inducer trial","","j","7","","true","","","j","1","RIGHT","","","","",""
"","html-keyboard-response","286","344744","0.0-463.0","oxy0vra2","1512","945","","","","","","","","","","","null","+","Fixation - long","","null","","","","","","","","","","","","",""
"","html-keyboard-response","287","346209","0.0-464.0","oxy0vra2","1512","945","","","","","","","","","","","1462","If wrz press RIGHT | If sjn press LEFT","Inducer instructions",""," ","8","","","","","","","","","","","",""
"","html-keyboard-response","288","346962","0.0-465.0","oxy0vra2","1512","945","","","","","","","","","","","null","+","Fixation - short","","null","","","","","","","","","","","","",""
"","html-keyboard-response","289","347572","0.0-466.0","oxy0vra2","1512","945","","","","","","","","","","","609","wrz","Diagnostic trial","","j","8","0","false","true","RIGHT","j","1","","LEFT","false","","",""
"","html-keyboard-response","290","348325","0.0-469.0","oxy0vra2","1512","945","","","","","","","","","","","null","+","Fixation - short","","null","","","","","","","","","","","","",""
"","html-keyboard-response","291","348927","0.0-470.0","oxy0vra2","1512","945","","","","","","","","","","","600","wrz","Diagnostic trial","","f","8","1","false","false","LEFT","f","1","","LEFT","true","","",""
"","html-keyboard-response","292","349680","0.0-473.0","oxy0vra2","1512","945","","","","","","","","","","","null","+","Fixation - short","","null","","","","","","","","","","","","",""
"","html-keyboard-response","293","350243","0.0-474.0","oxy0vra2","1512","945","","","","","","","","","","","561","wrz","Diagnostic trial","","f","8","2","false","false","LEFT","f","1","","LEFT","true","","",""
"","html-keyboard-response","294","350997","0.0-477.0","oxy0vra2","1512","945","","","","","","","","","","","null","+","Fixation - short","","null","","","","","","","","","","","","",""
"","html-keyboard-response","295","351897","0.0-478.0","oxy0vra2","1512","945","","","","","","","","","","","899","wrz","Diagnostic trial","","f","8","3","false","false","LEFT","f","1","","LEFT","true","","",""
"","html-keyboard-response","296","352651","0.0-481.0","oxy0vra2","1512","945","","","","","","","","","","","null","+","Fixation - short","","null","","","","","","","","","","","","",""
"","html-keyboard-response","297","353268","0.0-482.0","oxy0vra2","1512","945","","","","","","","","","","","616","wrz","Diagnostic trial","","j","8","4","false","true","RIGHT","j","1","","LEFT","false","","",""
"","html-keyboard-response","298","354021","0.0-485.0","oxy0vra2","1512","945","","","","","","","","","","","null","+","Fixation - short","","null","","","","","","","","","","","","",""
"","html-keyboard-response","299","354701","0.0-486.0","oxy0vra2","1512","945","","","","","","","","","","","679","sjn","Diagnostic trial","","f","8","5","false","false","LEFT","f","1","","RIGHT","false","","",""
"","html-keyboard-response","300","355455","0.0-489.0","oxy0vra2","1512","945","","","","","","","","","","","null","+","Fixation - short","","null","","","","","","","","","","","","",""
"","html-keyboard-response","301","356176","0.0-490.0","oxy0vra2","1512","945","","","","","","","","","","","720","sjn","Diagnostic trial","","j","8","6","false","true","RIGHT","j","1","","RIGHT","true","","",""
"","html-keyboard-response","302","356929","0.0-493.0","oxy0vra2","1512","945","","","","","","","","","","","null","+","Fixation - short","","null","","","","","","","","","","","","",""
"","html-keyboard-response","303","357681","0.0-494.0","oxy0vra2","1512","945","","","","","","","","","","","751","sjn","Diagnostic trial","","j","8","7","false","true","RIGHT","j","1","","RIGHT","true","","",""
"","html-keyboard-response","304","358434","0.0-497.0","oxy0vra2","1512","945","","","","","","","","","","","null","+","Fixation - short","","null","","","","","","","","","","","","",""
"","html-keyboard-response","305","359642","0.0-498.0","oxy0vra2","1512","945","","","","","","","","","","","1206","wrz","Diagnostic trial","","f","8","8","false","false","LEFT","f","1","","LEFT","true","","",""
"","html-keyboard-response","306","360396","0.0-501.0","oxy0vra2","1512","945","","","","","","","","","","","null","+","Fixation - short","","null","","","","","","","","","","","","",""
"","html-keyboard-response","307","360987","0.0-502.0","oxy0vra2","1512","945","","","","","","","","","","","589","wrz","Diagnostic trial","","j","8","9","false","true","RIGHT","j","1","","LEFT","false","","",""
"","html-keyboard-response","308","361740","0.0-505.0","oxy0vra2","1512","945","","","","","","","","","","","null","+","Fixation - short","","null","","","","","","","","","","","","",""
"","html-keyboard-response","309","362267","0.0-506.0","oxy0vra2","1512","945","","","","","","","","","","","525","wrz","Diagnostic trial","","j","8","10","false","true","RIGHT","j","1","","LEFT","false","","",""
"","html-keyboard-response","310","363020","0.0-509.0","oxy0vra2","1512","945","","","","","","","","","","","null","+","Fixation - short","","null","","","","","","","","","","","","",""
"","html-keyboard-response","311","363686","0.0-510.0","oxy0vra2","1512","945","","","","","","","","","","","664","sjn","Diagnostic trial","","f","8","11","false","false","LEFT","f","1","","RIGHT","false","","",""
"","html-keyboard-response","312","364438","0.0-513.0","oxy0vra2","1512","945","","","","","","","","","","","null","+","Fixation - short","","null","","","","","","","","","","","","",""
"","html-keyboard-response","313","365204","0.0-514.0","oxy0vra2","1512","945","","","","","","","","","","","764","wrz","Diagnostic trial","","f","8","12","false","false","LEFT","f","1","","LEFT","true","","",""
"","html-keyboard-response","314","365957","0.0-517.0","oxy0vra2","1512","945","","","","","","","","","","","null","+","Fixation - short","","null","","","","","","","","","","","","",""
"","html-keyboard-response","315","366454","0.0-518.0","oxy0vra2","1512","945","","","","","","","","","","","495","wrz","Diagnostic trial","","f","8","13","false","false","LEFT","f","1","","LEFT","true","","",""
"","html-keyboard-response","316","367207","0.0-521.0","oxy0vra2","1512","945","","","","","","","","","","","null","+","Fixation - short","","null","","","","","","","","","","","","",""
"","html-keyboard-response","317","367651","0.0-522.0","oxy0vra2","1512","945","","","","","","","","","","","442","wrz","Diagnostic trial","","f","8","14","false","false","LEFT","f","1","","LEFT","true","","",""
"","html-keyboard-response","318","368405","0.0-525.0","oxy0vra2","1512","945","","","","","","","","","","","null","+","Fixation - short","","null","","","","","","","","","","","","",""
"","html-keyboard-response","319","369407","0.0-526.0","oxy0vra2","1512","945","","","","","","","","","","","1001","wrz","Inducer trial","","j","8","","true","","","j","1","RIGHT","","","","",""
"","html-keyboard-response","320","370910","0.0-529.0","oxy0vra2","1512","945","","","","","","","","","","","null","+","Fixation - long","","null","","","","","","","","","","","","",""
"","html-keyboard-response","321","372497","0.0-530.0","oxy0vra2","1512","945","","","","","","","","","","","1586","If ndm press RIGHT | If dij press LEFT","Inducer instructions",""," ","9","","","","","","","","","","","",""
"","html-keyboard-response","322","373250","0.0-531.0","oxy0vra2","1512","945","","","","","","","","","","","null","+","Fixation - short","","null","","","","","","","","","","","","",""
"","html-keyboard-response","323","373893","0.0-532.0","oxy0vra2","1512","945","","","","","","","","","","","641","dij","Diagnostic trial","","j","9","0","false","true","RIGHT","j","1","","RIGHT","true","","",""
"","html-keyboard-response","324","374647","0.0-535.0","oxy0vra2","1512","945","","","","","","","","","","","null","+","Fixation - short","","null","","","","","","","","","","","","",""
"","html-keyboard-response","325","375181","0.0-536.0","oxy0vra2","1512","945","","","","","","","","","","","533","ndm","Diagnostic trial","","f","9","1","false","false","LEFT","f","1","","LEFT","true","","",""
"","html-keyboard-response","326","375935","0.0-539.0","oxy0vra2","1512","945","","","","","","","","","","","null","+","Fixation - short","","null","","","","","","","","","","","","",""
"","html-keyboard-response","327","376689","0.0-540.0","oxy0vra2","1512","945","","","","","","","","","","","752","dij","Diagnostic trial","","f","9","2","false","false","LEFT","f","1","","RIGHT","false","","",""
"","html-keyboard-response","328","377442","0.0-543.0","oxy0vra2","1512","945","","","","","","","","","","","null","+","Fixation - short","","null","","","","","","","","","","","","",""
"","html-keyboard-response","329","377942","0.0-544.0","oxy0vra2","1512","945","","","","","","","","","","","499","ndm","Diagnostic trial","","j","9","3","false","true","RIGHT","j","1","","LEFT","false","","",""
"","html-keyboard-response","330","378696","0.0-547.0","oxy0vra2","1512","945","","","","","","","","","","","null","+","Fixation - short","","null","","","","","","","","","","","","",""
"","html-keyboard-response","331","379220","0.0-548.0","oxy0vra2","1512","945","","","","","","","","","","","523","dij","Diagnostic trial","","j","9","4","false","true","RIGHT","j","1","","RIGHT","true","","",""
"","html-keyboard-response","332","379973","0.0-551.0","oxy0vra2","1512","945","","","","","","","","","","","null","+","Fixation - short","","null","","","","","","","","","","","","",""
"","html-keyboard-response","333","380525","0.0-552.0","oxy0vra2","1512","945","","","","","","","","","","","550","ndm","Diagnostic trial","","j","9","5","false","true","RIGHT","j","1","","LEFT","false","","",""
"","html-keyboard-response","334","381278","0.0-555.0","oxy0vra2","1512","945","","","","","","","","","","","null","+","Fixation - short","","null","","","","","","","","","","","","",""
"","html-keyboard-response","335","381806","0.0-556.0","oxy0vra2","1512","945","","","","","","","","","","","526","dij","Diagnostic trial","","j","9","6","false","true","RIGHT","j","1","","RIGHT","true","","",""
"","html-keyboard-response","336","382560","0.0-559.0","oxy0vra2","1512","945","","","","","","","","","","","null","+","Fixation - short","","null","","","","","","","","","","","","",""
"","html-keyboard-response","337","383053","0.0-560.0","oxy0vra2","1512","945","","","","","","","","","","","491","ndm","Diagnostic trial","","f","9","7","false","false","LEFT","f","1","","LEFT","true","","",""
"","html-keyboard-response","338","383807","0.0-563.0","oxy0vra2","1512","945","","","","","","","","","","","null","+","Fixation - short","","null","","","","","","","","","","","","",""
"","html-keyboard-response","339","384322","0.0-564.0","oxy0vra2","1512","945","","","","","","","","","","","514","dij","Diagnostic trial","","j","9","8","false","true","RIGHT","j","1","","RIGHT","true","","",""
"","html-keyboard-response","340","385076","0.0-567.0","oxy0vra2","1512","945","","","","","","","","","","","null","+","Fixation - short","","null","","","","","","","","","","","","",""
"","html-keyboard-response","341","385621","0.0-568.0","oxy0vra2","1512","945","","","","","","","","","","","544","ndm","Diagnostic trial","","f","9","9","false","false","LEFT","f","1","","LEFT","true","","",""
"","html-keyboard-response","342","386375","0.0-571.0","oxy0vra2","1512","945","","","","","","","","","","","null","+","Fixation - short","","null","","","","","","","","","","","","",""
"","html-keyboard-response","343","387001","0.0-572.0","oxy0vra2","1512","945","","","","","","","","","","","624","dij","Inducer trial","","j","9","","true","","","f","0","LEFT","","","","",""
"","call-function","344","387002","0.0-574.0-0.0","oxy0vra2","","","","","","","","","","","","","","","","","","","","","","","","","","","","","",""
"","html-keyboard-response","345","387305","0.0-574.0-1.0","oxy0vra2","1512","945","","","","","","","","","","","null","Wrong","Feedback","","null","","","","","","","","","","","","",""
"","call-function","346","387306","0.0-574.0-2.0","oxy0vra2","","","","","","","","","","","","","","","","","","","","","","","","","","","","","",""
"","html-keyboard-response","347","388809","0.0-575.0","oxy0vra2","1512","945","","","","","","","","","","","null","+","Fixation - long","","null","","","","","","","","","","","","",""
"","html-keyboard-response","348","389400","0.0-576.0","oxy0vra2","1512","945","","","","","","","","","","","589","If otr press RIGHT | If xet press LEFT","Inducer instructions",""," ","10","","","","","","","","","","","",""
"","html-keyboard-response","349","390152","0.0-577.0","oxy0vra2","1512","945","","","","","","","","","","","null","+","Fixation - short","","null","","","","","","","","","","","","",""
"","html-keyboard-response","350","390890","0.0-578.0","oxy0vra2","1512","945","","","","","","","","","","","736","otr","Diagnostic trial","","f","10","0","false","false","LEFT","f","1","","LEFT","true","","",""
"","html-keyboard-response","351","391642","0.0-581.0","oxy0vra2","1512","945","","","","","","","","","","","null","+","Fixation - short","","null","","","","","","","","","","","","",""
"","html-keyboard-response","352","392049","0.0-582.0","oxy0vra2","1512","945","","","","","","","","","","","404","otr","Diagnostic trial","","j","10","1","false","true","RIGHT","j","1","","LEFT","false","","",""
"","html-keyboard-response","353","392801","0.0-585.0","oxy0vra2","1512","945","","","","","","","","","","","null","+","Fixation - short","","null","","","","","","","","","","","","",""
"","html-keyboard-response","354","393266","0.0-586.0","oxy0vra2","1512","945","","","","","","","","","","","463","xet","Diagnostic trial","","f","10","2","false","true","RIGHT","j","0","","RIGHT","true","","",""
"","call-function","355","393267","0.0-588.0-0.0","oxy0vra2","","","","","","","","","","","","","","","","","","","","","","","","","","","","","",""
"","html-keyboard-response","356","393569","0.0-588.0-1.0","oxy0vra2","1512","945","","","","","","","","","","","null","Wrong","Feedback","","null","","","","","","","","","","","","",""
"","call-function","357","393570","0.0-588.0-2.0","oxy0vra2","","","","","","","","","","","","","","","","","","","","","","","","","","","","","",""
"","html-keyboard-response","358","394324","0.0-589.0","oxy0vra2","1512","945","","","","","","","","","","","null","+","Fixation - short","","null","","","","","","","","","","","","",""
"","html-keyboard-response","359","394994","0.0-590.0","oxy0vra2","1512","945","","","","","","","","","","","669","otr","Diagnostic trial","","f","10","3","false","false","LEFT","f","1","","LEFT","true","","",""
"","html-keyboard-response","360","395748","0.0-593.0","oxy0vra2","1512","945","","","","","","","","","","","null","+","Fixation - short","","null","","","","","","","","","","","","",""
"","html-keyboard-response","361","396195","0.0-594.0","oxy0vra2","1512","945","","","","","","","","","","","445","otr","Diagnostic trial","","f","10","4","false","false","LEFT","f","1","","LEFT","true","","",""
"","html-keyboard-response","362","396947","0.0-597.0","oxy0vra2","1512","945","","","","","","","","","","","null","+","Fixation - short","","null","","","","","","","","","","","","",""
"","html-keyboard-response","363","397510","0.0-598.0","oxy0vra2","1512","945","","","","","","","","","","","561","otr","Inducer trial","","j","10","","true","","","j","1","RIGHT","","","","",""
"","html-keyboard-response","364","399013","0.0-601.0","oxy0vra2","1512","945","","","","","","","","","","","null","+","Fixation - long","","null","","","","","","","","","","","","",""
"","html-keyboard-response","365","401378","0.0-602.0","oxy0vra2","1512","945","","","","","","","","","","","2363","If pmf press RIGHT | If cer press LEFT","Inducer instructions",""," ","11","","","","","","","","","","","",""
"","html-keyboard-response","366","402130","0.0-603.0","oxy0vra2","1512","945","","","","","","","","","","","null","+","Fixation - short","","null","","","","","","","","","","","","",""
"","html-keyboard-response","367","402632","0.0-604.0","oxy0vra2","1512","945","","","","","","","","","","","500","pmf","Diagnostic trial","","f","11","0","false","false","LEFT","f","1","","LEFT","true","","",""
"","html-keyboard-response","368","403385","0.0-607.0","oxy0vra2","1512","945","","","","","","","","","","","null","+","Fixation - short","","null","","","","","","","","","","","","",""
"","html-keyboard-response","369","404020","0.0-608.0","oxy0vra2","1512","945","","","","","","","","","","","633","cer","Diagnostic trial","","j","11","1","false","true","RIGHT","j","1","","RIGHT","true","","",""
"","html-keyboard-response","370","404773","0.0-611.0","oxy0vra2","1512","945","","","","","","","","","","","null","+","Fixation - short","","null","","","","","","","","","","","","",""
"","html-keyboard-response","371","405401","0.0-612.0","oxy0vra2","1512","945","","","","","","","","","","","627","cer","Diagnostic trial","","f","11","2","false","false","LEFT","f","1","","RIGHT","false","","",""
"","html-keyboard-response","372","406155","0.0-615.0","oxy0vra2","1512","945","","","","","","","","","","","null","+","Fixation - short","","null","","","","","","","","","","","","",""
"","html-keyboard-response","373","406822","0.0-616.0","oxy0vra2","1512","945","","","","","","","","","","","666","cer","Diagnostic trial","","f","11","3","false","false","LEFT","f","1","","RIGHT","false","","",""
"","html-keyboard-response","374","407575","0.0-619.0","oxy0vra2","1512","945","","","","","","","","","","","null","+","Fixation - short","","null","","","","","","","","","","","","",""
"","html-keyboard-response","375","408285","0.0-620.0","oxy0vra2","1512","945","","","","","","","","","","","707","pmf","Diagnostic trial","","f","11","4","false","false","LEFT","f","1","","LEFT","true","","",""
"","html-keyboard-response","376","409038","0.0-623.0","oxy0vra2","1512","945","","","","","","","","","","","null","+","Fixation - short","","null","","","","","","","","","","","","",""
"","html-keyboard-response","377","409453","0.0-624.0","oxy0vra2","1512","945","","","","","","","","","","","413","pmf","Diagnostic trial","","f","11","5","false","false","LEFT","f","1","","LEFT","true","","",""
"","html-keyboard-response","378","410206","0.0-627.0","oxy0vra2","1512","945","","","","","","","","","","","null","+","Fixation - short","","null","","","","","","","","","","","","",""
"","html-keyboard-response","379","410775","0.0-628.0","oxy0vra2","1512","945","","","","","","","","","","","568","cer","Diagnostic trial","","f","11","6","false","false","LEFT","f","1","","RIGHT","false","","",""
"","html-keyboard-response","380","411529","0.0-631.0","oxy0vra2","1512","945","","","","","","","","","","","null","+","Fixation - short","","null","","","","","","","","","","","","",""
"","html-keyboard-response","381","412057","0.0-632.0","oxy0vra2","1512","945","","","","","","","","","","","527","cer","Diagnostic trial","","j","11","7","false","true","RIGHT","j","1","","RIGHT","true","","",""
"","html-keyboard-response","382","412810","0.0-635.0","oxy0vra2","1512","945","","","","","","","","","","","null","+","Fixation - short","","null","","","","","","","","","","","","",""
"","html-keyboard-response","383","413419","0.0-636.0","oxy0vra2","1512","945","","","","","","","","","","","606","cer","Diagnostic trial","","j","11","8","false","true","RIGHT","j","1","","RIGHT","true","","",""
"","html-keyboard-response","384","414172","0.0-639.0","oxy0vra2","1512","945","","","","","","","","","","","null","+","Fixation - short","","null","","","","","","","","","","","","",""
"","html-keyboard-response","385","414743","0.0-640.0","oxy0vra2","1512","945","","","","","","","","","","","568","cer","Diagnostic trial","","j","11","9","false","true","RIGHT","j","1","","RIGHT","true","","",""
"","html-keyboard-response","386","415496","0.0-643.0","oxy0vra2","1512","945","","","","","","","","","","","null","+","Fixation - short","","null","","","","","","","","","","","","",""
"","html-keyboard-response","387","416059","0.0-644.0","oxy0vra2","1512","945","","","","","","","","","","","561","pmf","Diagnostic trial","","j","11","10","false","true","RIGHT","j","1","","LEFT","false","","",""
"","html-keyboard-response","388","416813","0.0-647.0","oxy0vra2","1512","945","","","","","","","","","","","null","+","Fixation - short","","null","","","","","","","","","","","","",""
"","html-keyboard-response","389","417316","0.0-648.0","oxy0vra2","1512","945","","","","","","","","","","","501","pmf","Diagnostic trial","","j","11","11","false","true","RIGHT","j","1","","LEFT","false","","",""
"","html-keyboard-response","390","418069","0.0-651.0","oxy0vra2","1512","945","","","","","","","","","","","null","+","Fixation - short","","null","","","","","","","","","","","","",""
"","html-keyboard-response","391","418905","0.0-652.0","oxy0vra2","1512","945","","","","","","","","","","","833","cer","Inducer trial","","f","11","","true","","","f","1","LEFT","","","","",""
"","html-keyboard-response","392","420407","0.0-655.0","oxy0vra2","1512","945","","","","","","","","","","","null","+","Fixation - long","","null","","","","","","","","","","","","",""
"","html-keyboard-response","393","421771","0.0-656.0","oxy0vra2","1512","945","","","","","","","","","","","1362","If quy press RIGHT | If jil press LEFT","Inducer instructions",""," ","12","","","","","","","","","","","",""
"","html-keyboard-response","394","422524","0.0-657.0","oxy0vra2","1512","945","","","","","","","","","","","null","+","Fixation - short","","null","","","","","","","","","","","","",""
"","html-keyboard-response","395","423209","0.0-658.0","oxy0vra2","1512","945","","","","","","","","","","","683","quy","Diagnostic trial","","f","12","0","false","false","LEFT","f","1","","LEFT","true","","",""
"","html-keyboard-response","396","423962","0.0-661.0","oxy0vra2","1512","945","","","","","","","","","","","null","+","Fixation - short","","null","","","","","","","","","","","","",""
"","html-keyboard-response","397","424469","0.0-662.0","oxy0vra2","1512","945","","","","","","","","","","","505","jil","Diagnostic trial","","f","12","1","false","false","LEFT","f","1","","RIGHT","false","","",""
"","html-keyboard-response","398","425222","0.0-665.0","oxy0vra2","1512","945","","","","","","","","","","","null","+","Fixation - short","","null","","","","","","","","","","","","",""
"","html-keyboard-response","399","425644","0.0-666.0","oxy0vra2","1512","945","","","","","","","","","","","420","jil","Diagnostic trial","","f","12","2","false","false","LEFT","f","1","","RIGHT","false","","",""
"","html-keyboard-response","400","426398","0.0-669.0","oxy0vra2","1512","945","","","","","","","","","","","null","+","Fixation - short","","null","","","","","","","","","","","","",""
"","html-keyboard-response","401","427151","0.0-670.0","oxy0vra2","1512","945","","","","","","","","","","","752","jil","Diagnostic trial","","j","12","3","false","true","RIGHT","j","1","","RIGHT","true","","",""
"","html-keyboard-response","402","427904","0.0-673.0","oxy0vra2","1512","945","","","","","","","","","","","null","+","Fixation - short","","null","","","","","","","","","","","","",""
"","html-keyboard-response","403","428613","0.0-674.0","oxy0vra2","1512","945","","","","","","","","","","","707","jil","Diagnostic trial","","f","12","4","false","false","LEFT","f","1","","RIGHT","false","","",""
"","html-keyboard-response","404","429367","0.0-677.0","oxy0vra2","1512","945","","","","","","","","","","","null","+","Fixation - short","","null","","","","","","","","","","","","",""
"","html-keyboard-response","405","429891","0.0-678.0","oxy0vra2","1512","945","","","","","","","","","","","523","jil","Diagnostic trial","","f","12","5","false","false","LEFT","f","1","","RIGHT","false","","",""
"","html-keyboard-response","406","430643","0.0-681.0","oxy0vra2","1512","945","","","","","","","","","","","null","+","Fixation - short","","null","","","","","","","","","","","","",""
"","html-keyboard-response","407","431211","0.0-682.0","oxy0vra2","1512","945","","","","","","","","","","","565","jil","Diagnostic trial","","j","12","6","false","true","RIGHT","j","1","","RIGHT","true","","",""
"","html-keyboard-response","408","431964","0.0-685.0","oxy0vra2","1512","945","","","","","","","","","","","null","+","Fixation - short","","null","","","","","","","","","","","","",""
"","html-keyboard-response","409","432566","0.0-686.0","oxy0vra2","1512","945","","","","","","","","","","","600","jil","Diagnostic trial","","j","12","7","false","true","RIGHT","j","1","","RIGHT","true","","",""
"","html-keyboard-response","410","433319","0.0-689.0","oxy0vra2","1512","945","","","","","","","","","","","null","+","Fixation - short","","null","","","","","","","","","","","","",""
"","html-keyboard-response","411","434085","0.0-690.0","oxy0vra2","1512","945","","","","","","","","","","","765","quy","Diagnostic trial","","f","12","8","false","false","LEFT","f","1","","LEFT","true","","",""
"","html-keyboard-response","412","434839","0.0-693.0","oxy0vra2","1512","945","","","","","","","","","","","null","+","Fixation - short","","null","","","","","","","","","","","","",""
"","html-keyboard-response","413","435655","0.0-694.0","oxy0vra2","1512","945","","","","","","","","","","","814","jil","Inducer trial","","f","12","","true","","","f","1","LEFT","","","","",""
"","html-keyboard-response","414","437158","0.0-697.0","oxy0vra2","1512","945","","","","","","","","","","","null","+","Fixation - long","","null","","","","","","","","","","","","",""
"","html-keyboard-response","415","438766","0.0-698.0","oxy0vra2","1512","945","","","","","","","","","","","1606","If pph press RIGHT | If dlg press LEFT","Inducer instructions",""," ","13","","","","","","","","","","","",""
"","html-keyboard-response","416","439520","0.0-699.0","oxy0vra2","1512","945","","","","","","","","","","","null","+","Fixation - short","","null","","","","","","","","","","","","",""
"","html-keyboard-response","417","440004","0.0-700.0","oxy0vra2","1512","945","","","","","","","","","","","482","dlg","Diagnostic trial","","f","13","0","false","false","LEFT","f","1","","RIGHT","false","","",""
"","html-keyboard-response","418","440757","0.0-703.0","oxy0vra2","1512","945","","","","","","","","","","","null","+","Fixation - short","","null","","","","","","","","","","","","",""
"","html-keyboard-response","419","441252","0.0-704.0","oxy0vra2","1512","945","","","","","","","","","","","494","dlg","Diagnostic trial","","j","13","1","false","true","RIGHT","j","1","","RIGHT","true","","",""
"","html-keyboard-response","420","442004","0.0-707.0","oxy0vra2","1512","945","","","","","","","","","","","null","+","Fixation - short","","null","","","","","","","","","","","","",""
"","html-keyboard-response","421","442491","0.0-708.0","oxy0vra2","1512","945","","","","","","","","","","","486","pph","Diagnostic trial","","f","13","2","false","true","RIGHT","j","0","","LEFT","false","","",""
"","call-function","422","442492","0.0-710.0-0.0","oxy0vra2","","","","","","","","","","","","","","","","","","","","","","","","","","","","","",""
"","html-keyboard-response","423","442795","0.0-710.0-1.0","oxy0vra2","1512","945","","","","","","","","","","","null","Wrong","Feedback","","null","","","","","","","","","","","","",""
"","call-function","424","442797","0.0-710.0-2.0","oxy0vra2","","","","","","","","","","","","","","","","","","","","","","","","","","","","","",""
"","html-keyboard-response","425","443549","0.0-711.0","oxy0vra2","1512","945","","","","","","","","","","","null","+","Fixation - short","","null","","","","","","","","","","","","",""
"","html-keyboard-response","426","444125","0.0-712.0","oxy0vra2","1512","945","","","","","","","","","","","574","pph","Diagnostic trial","","f","13","3","false","false","LEFT","f","1","","LEFT","true","","",""
"","html-keyboard-response","427","444879","0.0-715.0","oxy0vra2","1512","945","","","","","","","","","","","null","+","Fixation - short","","null","","","","","","","","","","","","",""
"","html-keyboard-response","428","445351","0.0-716.0","oxy0vra2","1512","945","","","","","","","","","","","471","pph","Diagnostic trial","","f","13","4","false","false","LEFT","f","1","","LEFT","true","","",""
"","html-keyboard-response","429","446104","0.0-719.0","oxy0vra2","1512","945","","","","","","","","","","","null","+","Fixation - short","","null","","","","","","","","","","","","",""
"","html-keyboard-response","430","446682","0.0-720.0","oxy0vra2","1512","945","","","","","","","","","","","577","dlg","Diagnostic trial","","j","13","5","false","true","RIGHT","j","1","","RIGHT","true","","",""
"","html-keyboard-response","431","447436","0.0-723.0","oxy0vra2","1512","945","","","","","","","","","","","null","+","Fixation - short","","null","","","","","","","","","","","","",""
"","html-keyboard-response","432","447916","0.0-724.0","oxy0vra2","1512","945","","","","","","","","","","","478","pph","Diagnostic trial","","j","13","6","false","true","RIGHT","j","1","","LEFT","false","","",""
"","html-keyboard-response","433","448670","0.0-727.0","oxy0vra2","1512","945","","","","","","","","","","","null","+","Fixation - short","","null","","","","","","","","","","","","",""
"","html-keyboard-response","434","449111","0.0-728.0","oxy0vra2","1512","945","","","","","","","","","","","439","pph","Diagnostic trial","","j","13","7","false","true","RIGHT","j","1","","LEFT","false","","",""
"","html-keyboard-response","435","449863","0.0-731.0","oxy0vra2","1512","945","","","","","","","","","","","null","+","Fixation - short","","null","","","","","","","","","","","","",""
"","html-keyboard-response","436","450332","0.0-732.0","oxy0vra2","1512","945","","","","","","","","","","","467","dlg","Diagnostic trial","","f","13","8","false","false","LEFT","f","1","","RIGHT","false","","",""
"","html-keyboard-response","437","451084","0.0-735.0","oxy0vra2","1512","945","","","","","","","","","","","null","+","Fixation - short","","null","","","","","","","","","","","","",""
"","html-keyboard-response","438","451841","0.0-736.0","oxy0vra2","1512","945","","","","","","","","","","","754","dlg","Diagnostic trial","","j","13","9","false","true","RIGHT","j","1","","RIGHT","true","","",""
"","html-keyboard-response","439","452593","0.0-739.0","oxy0vra2","1512","945","","","","","","","","","","","null","+","Fixation - short","","null","","","","","","","","","","","","",""
"","html-keyboard-response","440","453069","0.0-740.0","oxy0vra2","1512","945","","","","","","","","","","","475","pph","Diagnostic trial","","j","13","10","false","true","RIGHT","j","1","","LEFT","false","","",""
"","html-keyboard-response","441","453823","0.0-743.0","oxy0vra2","1512","945","","","","","","","","","","","null","+","Fixation - short","","null","","","","","","","","","","","","",""
"","html-keyboard-response","442","454478","0.0-744.0","oxy0vra2","1512","945","","","","","","","","","","","654","dlg","Diagnostic trial","","j","13","11","false","true","RIGHT","j","1","","RIGHT","true","","",""
"","html-keyboard-response","443","455231","0.0-747.0","oxy0vra2","1512","945","","","","","","","","","","","null","+","Fixation - short","","null","","","","","","","","","","","","",""
"","html-keyboard-response","444","455882","0.0-748.0","oxy0vra2","1512","945","","","","","","","","","","","648","pph","Inducer trial","","j","13","","true","","","j","1","RIGHT","","","","",""
"","html-keyboard-response","445","457386","0.0-751.0","oxy0vra2","1512","945","","","","","","","","","","","null","+","Fixation - long","","null","","","","","","","","","","","","",""
"","html-keyboard-response","446","459547","0.0-752.0","oxy0vra2","1512","945","","","","","","","","","","","2161","If tgf press RIGHT | If wab press LEFT","Inducer instructions",""," ","14","","","","","","","","","","","",""
"","html-keyboard-response","447","460299","0.0-753.0","oxy0vra2","1512","945","","","","","","","","","","","null","+","Fixation - short","","null","","","","","","","","","","","","",""
"","html-keyboard-response","448","460876","0.0-754.0","oxy0vra2","1512","945","","","","","","","","","","","577","tgf","Diagnostic trial","","f","14","0","false","false","LEFT","f","1","","LEFT","true","","",""
"","html-keyboard-response","449","461628","0.0-757.0","oxy0vra2","1512","945","","","","","","","","","","","null","+","Fixation - short","","null","","","","","","","","","","","","",""
"","html-keyboard-response","450","462041","0.0-758.0","oxy0vra2","1512","945","","","","","","","","","","","412","wab","Diagnostic trial","","j","14","1","false","true","RIGHT","j","1","","RIGHT","true","","",""
"","html-keyboard-response","451","462793","0.0-761.0","oxy0vra2","1512","945","","","","","","","","","","","null","+","Fixation - short","","null","","","","","","","","","","","","",""
"","html-keyboard-response","452","463349","0.0-762.0","oxy0vra2","1512","945","","","","","","","","","","","555","tgf","Diagnostic trial","","f","14","2","false","false","LEFT","f","1","","LEFT","true","","",""
"","html-keyboard-response","453","464100","0.0-765.0","oxy0vra2","1512","945","","","","","","","","","","","null","+","Fixation - short","","null","","","","","","","","","","","","",""
"","html-keyboard-response","454","464647","0.0-766.0","oxy0vra2","1512","945","","","","","","","","","","","546","wab","Diagnostic trial","","j","14","3","false","true","RIGHT","j","1","","RIGHT","true","","",""
"","html-keyboard-response","455","465399","0.0-769.0","oxy0vra2","1512","945","","","","","","","","","","","null","+","Fixation - short","","null","","","","","","","","","","","","",""
"","html-keyboard-response","456","466020","0.0-770.0","oxy0vra2","1512","945","","","","","","","","","","","621","wab","Diagnostic trial","","f","14","4","false","false","LEFT","f","1","","RIGHT","false","","",""
"","html-keyboard-response","457","466773","0.0-773.0","oxy0vra2","1512","945","","","","","","","","","","","null","+","Fixation - short","","null","","","","","","","","","","","","",""
"","html-keyboard-response","458","467263","0.0-774.0","oxy0vra2","1512","945","","","","","","","","","","","489","tgf","Diagnostic trial","","j","14","5","false","true","RIGHT","j","1","","LEFT","false","","",""
"","html-keyboard-response","459","468016","0.0-777.0","oxy0vra2","1512","945","","","","","","","","","","","null","+","Fixation - short","","null","","","","","","","","","","","","",""
"","html-keyboard-response","460","468533","0.0-778.0","oxy0vra2","1512","945","","","","","","","","","","","516","tgf","Diagnostic trial","","j","14","6","false","true","RIGHT","j","1","","LEFT","false","","",""
"","html-keyboard-response","461","469286","0.0-781.0","oxy0vra2","1512","945","","","","","","","","","","","null","+","Fixation - short","","null","","","","","","","","","","","","",""
"","html-keyboard-response","462","469838","0.0-782.0","oxy0vra2","1512","945","","","","","","","","","","","551","wab","Diagnostic trial","","f","14","7","false","false","LEFT","f","1","","RIGHT","false","","",""
"","html-keyboard-response","463","470590","0.0-785.0","oxy0vra2","1512","945","","","","","","","","","","","null","+","Fixation - short","","null","","","","","","","","","","","","",""
"","html-keyboard-response","464","471191","0.0-786.0","oxy0vra2","1512","945","","","","","","","","","","","600","wab","Diagnostic trial","","j","14","8","false","true","RIGHT","j","1","","RIGHT","true","","",""
"","html-keyboard-response","465","471943","0.0-789.0","oxy0vra2","1512","945","","","","","","","","","","","null","+","Fixation - short","","null","","","","","","","","","","","","",""
"","html-keyboard-response","466","472498","0.0-790.0","oxy0vra2","1512","945","","","","","","","","","","","554","tgf","Diagnostic trial","","f","14","9","false","false","LEFT","f","1","","LEFT","true","","",""
"","html-keyboard-response","467","473250","0.0-793.0","oxy0vra2","1512","945","","","","","","","","","","","null","+","Fixation - short","","null","","","","","","","","","","","","",""
"","html-keyboard-response","468","473824","0.0-794.0","oxy0vra2","1512","945","","","","","","","","","","","574","wab","Diagnostic trial","","j","14","10","false","true","RIGHT","j","1","","RIGHT","true","","",""
"","html-keyboard-response","469","474577","0.0-797.0","oxy0vra2","1512","945","","","","","","","","","","","null","+","Fixation - short","","null","","","","","","","","","","","","",""
"","html-keyboard-response","470","475061","0.0-798.0","oxy0vra2","1512","945","","","","","","","","","","","484","wab","Diagnostic trial","","j","14","11","false","true","RIGHT","j","1","","RIGHT","true","","",""
"","html-keyboard-response","471","475814","0.0-801.0","oxy0vra2","1512","945","","","","","","","","","","","null","+","Fixation - short","","null","","","","","","","","","","","","",""
"","html-keyboard-response","472","476350","0.0-802.0","oxy0vra2","1512","945","","","","","","","","","","","535","tgf","Diagnostic trial","","j","14","12","false","true","RIGHT","j","1","","LEFT","false","","",""
"","html-keyboard-response","473","477103","0.0-805.0","oxy0vra2","1512","945","","","","","","","","","","","null","+","Fixation - short","","null","","","","","","","","","","","","",""
"","html-keyboard-response","474","477627","0.0-806.0","oxy0vra2","1512","945","","","","","","","","","","","523","wab","Diagnostic trial","","f","14","13","false","false","LEFT","f","1","","RIGHT","false","","",""
"","html-keyboard-response","475","478380","0.0-809.0","oxy0vra2","1512","945","","","","","","","","","","","null","+","Fixation - short","","null","","","","","","","","","","","","",""
"","html-keyboard-response","476","478823","0.0-810.0","oxy0vra2","1512","945","","","","","","","","","","","441","tgf","Diagnostic trial","","j","14","14","false","true","RIGHT","j","1","","LEFT","false","","",""
"","html-keyboard-response","477","479575","0.0-813.0","oxy0vra2","1512","945","","","","","","","","","","","null","+","Fixation - short","","null","","","","","","","","","","","","",""
"","html-keyboard-response","478","480053","0.0-814.0","oxy0vra2","1512","945","","","","","","","","","","","477","tgf","Diagnostic trial","","j","14","15","false","true","RIGHT","j","1","","LEFT","false","","",""
"","html-keyboard-response","479","480805","0.0-817.0","oxy0vra2","1512","945","","","","","","","","","","","null","+","Fixation - short","","null","","","","","","","","","","","","",""
"","html-keyboard-response","480","481596","0.0-818.0","oxy0vra2","1512","945","","","","","","","","","","","791","tgf","Inducer trial","","j","14","","true","","","j","1","RIGHT","","","","",""
"","html-keyboard-response","481","483098","0.0-821.0","oxy0vra2","1512","945","","","","","","","","","","","null","+","Fixation - long","","null","","","","","","","","","","","","",""
"","html-keyboard-response","482","484350","0.0-822.0","oxy0vra2","1512","945","","","","","","","","","","","1251","If ila press RIGHT | If dgv press LEFT","Inducer instructions",""," ","15","","","","","","","","","","","",""
"","html-keyboard-response","483","485103","0.0-823.0","oxy0vra2","1512","945","","","","","","","","","","","null","+","Fixation - short","","null","","","","","","","","","","","","",""
"","html-keyboard-response","484","485536","0.0-824.0","oxy0vra2","1512","945","","","","","","","","","","","431","ila","Diagnostic trial","","j","15","0","false","true","RIGHT","j","1","","LEFT","false","","",""
"","html-keyboard-response","485","486289","0.0-827.0","oxy0vra2","1512","945","","","","","","","","","","","null","+","Fixation - short","","null","","","","","","","","","","","","",""
"","html-keyboard-response","486","486761","0.0-828.0","oxy0vra2","1512","945","","","","","","","","","","","471","dgv","Diagnostic trial","","f","15","1","false","false","LEFT","f","1","","RIGHT","false","","",""
"","html-keyboard-response","487","487514","0.0-831.0","oxy0vra2","1512","945","","","","","","","","","","","null","+","Fixation - short","","null","","","","","","","","","","","","",""
"","html-keyboard-response","488","488212","0.0-832.0","oxy0vra2","1512","945","","","","","","","","","","","697","ila","Diagnostic trial","","f","15","2","false","false","LEFT","f","1","","LEFT","true","","",""
"","html-keyboard-response","489","488964","0.0-835.0","oxy0vra2","1512","945","","","","","","","","","","","null","+","Fixation - short","","null","","","","","","","","","","","","",""
"","html-keyboard-response","490","489479","0.0-836.0","oxy0vra2","1512","945","","","","","","","","","","","513","ila","Diagnostic trial","","j","15","3","false","true","RIGHT","j","1","","LEFT","false","","",""
"","html-keyboard-response","491","490233","0.0-839.0","oxy0vra2","1512","945","","","","","","","","","","","null","+","Fixation - short","","null","","","","","","","","","","","","",""
"","html-keyboard-response","492","490764","0.0-840.0","oxy0vra2","1512","945","","","","","","","","","","","530","dgv","Diagnostic trial","","f","15","4","false","false","LEFT","f","1","","RIGHT","false","","",""
"","html-keyboard-response","493","491516","0.0-843.0","oxy0vra2","1512","945","","","","","","","","","","","null","+","Fixation - short","","null","","","","","","","","","","","","",""
"","html-keyboard-response","494","491998","0.0-844.0","oxy0vra2","1512","945","","","","","","","","","","","480","ila","Diagnostic trial","","j","15","5","false","true","RIGHT","j","1","","LEFT","false","","",""
"","html-keyboard-response","495","492751","0.0-847.0","oxy0vra2","1512","945","","","","","","","","","","","null","+","Fixation - short","","null","","","","","","","","","","","","",""
"","html-keyboard-response","496","493596","0.0-848.0","oxy0vra2","1512","945","","","","","","","","","","","844","ila","Inducer trial","","j","15","","true","","","j","1","RIGHT","","","","",""
"","html-keyboard-response","497","495099","0.0-851.0","oxy0vra2","1512","945","","","","","","","","","","","null","+","Fixation - long","","null","","","","","","","","","","","","",""
"","html-keyboard-response","498","496507","0.0-852.0","oxy0vra2","1512","945","","","","","","","","","","","1406","If eht press RIGHT | If saj press LEFT","Inducer instructions",""," ","16","","","","","","","","","","","",""
"","html-keyboard-response","499","497260","0.0-853.0","oxy0vra2","1512","945","","","","","","","","","","","null","+","Fixation - short","","null","","","","","","","","","","","","",""
"","html-keyboard-response","500","497804","0.0-854.0","oxy0vra2","1512","945","","","","","","","","","","","541","saj","Diagnostic trial","","j","16","0","false","true","RIGHT","j","1","","RIGHT","true","","",""
"","html-keyboard-response","501","498557","0.0-857.0","oxy0vra2","1512","945","","","","","","","","","","","null","+","Fixation - short","","null","","","","","","","","","","","","",""
"","html-keyboard-response","502","499004","0.0-858.0","oxy0vra2","1512","945","","","","","","","","","","","445","eht","Diagnostic trial","","f","16","1","false","false","LEFT","f","1","","LEFT","true","","",""
