"value","trial_type","trial_index","time_elapsed","internal_node_id","id","width","height","webaudio","browser","browser_version","mobile","os","fullscreen","vsync_rate","webcam","microphone","view_history","rt","stimulus","trial_info","success","response","inducer_run","diagnostic_run","inducer_trial","italic","correct_diag_response_side","correct_response_key","correct_response","correct_indu_response_side","correct_inducer_response_side","congruent","accuracy","open_feedback","interactive"
"","call-function","0","2","0.0-0.0","rq3ouf4v","","","","","","","","","","","","","","","","","","","","","","","","","","","","","",""
"","browser-check","1","1129","0.0-1.0","rq3ouf4v","1512","858","true","chrome","120.0.0","false","Mac OS","true","119.12","true","true","","","","","","","","","","","","","","","","","","",""
"","instructions","2","31274","0.0-2.0","rq3ouf4v","","","","","","","","","","","","[{""page_index"":0,""viewing_time"":7912},{""page_index"":1,""viewing_time"":19785},{""page_index"":2,""viewing_time"":2448}]","30145","The experiment and consent","The experiment and consent","","","","","","","","","","","","","","",""
"","fullscreen","3","34150","0.0-3.0","rq3ouf4v","1512","945","","","","","","","","","","","1874","","Full screen","true","","","","","","","","","","","","","",""
"","instructions","4","63843","0.0-4.0","rq3ouf4v","1512","945","","","","","","","","","","[{""page_index"":0,""viewing_time"":19521},{""page_index"":1,""viewing_time"":10170}]","29691","Instructions","Basic overview explanation","","","","","","","","","","","","","","",""
"","html-keyboard-response","5","85351","0.0-5.0","rq3ouf4v","1512","945","","","","","","","","","","","null","If italic press RIGHT | If upright press LEFT","Diagnostic instructions","","null","","","","","","","","","","","","",""
"","html-keyboard-response","6","86106","0.0-6.0","rq3ouf4v","1512","945","","","","","","","","","","","null","+","Fixation - short","","null","","","","","","","","","","","","",""
"","html-keyboard-response","7","87413","0.0-7.0","rq3ouf4v","1512","945","","","","","","","","","","","1304","pte","Practice diganostic trial","","j","practice","0","false","1","RIGHT","j","1","","","","","",""
"","html-keyboard-response","8","88167","0.0-10.0","rq3ouf4v","1512","945","","","","","","","","","","","null","+","Fixation - short","","null","","","","","","","","","","","","",""
"","html-keyboard-response","9","88866","0.0-11.0","rq3ouf4v","1512","945","","","","","","","","","","","697","pte","Practice diganostic trial","","f","practice","1","false","0","LEFT","f","1","","","","","",""
"","html-keyboard-response","10","89620","0.0-14.0","rq3ouf4v","1512","945","","","","","","","","","","","null","+","Fixation - short","","null","","","","","","","","","","","","",""
"","html-keyboard-response","11","90248","0.0-15.0","rq3ouf4v","1512","945","","","","","","","","","","","625","pte","Practice diganostic trial","","j","practice","2","false","1","RIGHT","j","1","","","","","",""
"","html-keyboard-response","12","91001","0.0-18.0","rq3ouf4v","1512","945","","","","","","","","","","","null","+","Fixation - short","","null","","","","","","","","","","","","",""
"","html-keyboard-response","13","91741","0.0-19.0","rq3ouf4v","1512","945","","","","","","","","","","","738","cer","Practice diganostic trial","","f","practice","3","false","0","LEFT","f","1","","","","","",""
"","html-keyboard-response","14","92495","0.0-22.0","rq3ouf4v","1512","945","","","","","","","","","","","null","+","Fixation - short","","null","","","","","","","","","","","","",""
"","html-keyboard-response","15","93066","0.0-23.0","rq3ouf4v","1512","945","","","","","","","","","","","568","pte","Practice diganostic trial","","f","practice","4","false","0","LEFT","f","1","","","","","",""
"","html-keyboard-response","16","93819","0.0-26.0","rq3ouf4v","1512","945","","","","","","","","","","","null","+","Fixation - short","","null","","","","","","","","","","","","",""
"","html-keyboard-response","17","94244","0.0-27.0","rq3ouf4v","1512","945","","","","","","","","","","","424","cer","Practice diganostic trial","","f","practice","5","false","0","LEFT","f","1","","","","","",""
"","html-keyboard-response","18","94998","0.0-30.0","rq3ouf4v","1512","945","","","","","","","","","","","null","+","Fixation - short","","null","","","","","","","","","","","","",""
"","html-keyboard-response","19","95434","0.0-31.0","rq3ouf4v","1512","945","","","","","","","","","","","435","pte","Practice diganostic trial","","f","practice","6","false","0","LEFT","f","1","","","","","",""
"","html-keyboard-response","20","96187","0.0-34.0","rq3ouf4v","1512","945","","","","","","","","","","","null","+","Fixation - short","","null","","","","","","","","","","","","",""
"","html-keyboard-response","21","96585","0.0-35.0","rq3ouf4v","1512","945","","","","","","","","","","","397","pte","Practice diganostic trial","","f","practice","7","false","0","LEFT","f","1","","","","","",""
"","html-keyboard-response","22","97339","0.0-38.0","rq3ouf4v","1512","945","","","","","","","","","","","null","+","Fixation - short","","null","","","","","","","","","","","","",""
"","html-keyboard-response","23","97850","0.0-39.0","rq3ouf4v","1512","945","","","","","","","","","","","510","cer","Practice diganostic trial","","j","practice","8","false","1","RIGHT","j","1","","","","","",""
"","html-keyboard-response","24","98603","0.0-42.0","rq3ouf4v","1512","945","","","","","","","","","","","null","+","Fixation - short","","null","","","","","","","","","","","","",""
"","html-keyboard-response","25","99257","0.0-43.0","rq3ouf4v","1512","945","","","","","","","","","","","652","cer","Practice diganostic trial","","f","practice","9","false","0","LEFT","f","1","","","","","",""
"","html-keyboard-response","26","100010","0.0-46.0","rq3ouf4v","1512","945","","","","","","","","","","","null","+","Fixation - short","","null","","","","","","","","","","","","",""
"","html-keyboard-response","27","100577","0.0-47.0","rq3ouf4v","1512","945","","","","","","","","","","","566","cer","Practice diganostic trial","","j","practice","10","false","1","RIGHT","j","1","","","","","",""
"","html-keyboard-response","28","101329","0.0-50.0","rq3ouf4v","1512","945","","","","","","","","","","","null","+","Fixation - short","","null","","","","","","","","","","","","",""
"","html-keyboard-response","29","101870","0.0-51.0","rq3ouf4v","1512","945","","","","","","","","","","","539","cer","Practice diganostic trial","","j","practice","11","false","1","RIGHT","j","1","","","","","",""
"","html-keyboard-response","30","102622","0.0-54.0","rq3ouf4v","1512","945","","","","","","","","","","","null","+","Fixation - short","","null","","","","","","","","","","","","",""
"","html-keyboard-response","31","103379","0.0-55.0","rq3ouf4v","1512","945","","","","","","","","","","","756","pte","Practice diganostic trial","","j","practice","12","false","1","RIGHT","j","1","","","","","",""
"","html-keyboard-response","32","104130","0.0-58.0","rq3ouf4v","1512","945","","","","","","","","","","","null","+","Fixation - short","","null","","","","","","","","","","","","",""
"","html-keyboard-response","33","104716","0.0-59.0","rq3ouf4v","1512","945","","","","","","","","","","","584","pte","Practice diganostic trial","","f","practice","13","false","0","LEFT","f","1","","","","","",""
"","html-keyboard-response","34","105469","0.0-62.0","rq3ouf4v","1512","945","","","","","","","","","","","null","+","Fixation - short","","null","","","","","","","","","","","","",""
"","html-keyboard-response","35","105916","0.0-63.0","rq3ouf4v","1512","945","","","","","","","","","","","445","cer","Practice diganostic trial","","j","practice","14","false","1","RIGHT","j","1","","","","","",""
"","html-keyboard-response","36","106669","0.0-66.0","rq3ouf4v","1512","945","","","","","","","","","","","null","+","Fixation - short","","null","","","","","","","","","","","","",""
"","html-keyboard-response","37","107201","0.0-67.0","rq3ouf4v","1512","945","","","","","","","","","","","530","cer","Practice diganostic trial","","j","practice","15","false","1","RIGHT","j","1","","","","","",""
"","html-keyboard-response","38","107954","0.0-70.0","rq3ouf4v","1512","945","","","","","","","","","","","null","+","Fixation - short","","null","","","","","","","","","","","","",""
"","instructions","39","110165","0.0-71.0","rq3ouf4v","1512","945","","","","","","","","","","[{""page_index"":0,""viewing_time"":2208}]","2208","Instructions","Final experiment explanation","","","","","","","","","","","","","","",""
"","html-keyboard-response","40","128856","0.0-72.0","rq3ouf4v","1512","945","","","","","","","","","","","17188","If jsf press RIGHT | If epy press LEFT","Practice inducer instructions",""," ","practice","","","","","","","","","","","",""
"","html-keyboard-response","41","130522","0.0-73.0","rq3ouf4v","1512","945","","","","","","","","","","","1665","","Practice inducer trial","","f","practice","","true","","","f","1","LEFT","","","","",""
"","html-keyboard-response","42","131276","0.0-76.0","rq3ouf4v","1512","945","","","","","","","","","","","null","+","Fixation - short","","null","","","","","","","","","","","","",""
"","html-keyboard-response","43","138988","0.0-77.0","rq3ouf4v","1512","945","","","","","","","","","","","7711","If mts press RIGHT | If swr press LEFT","Practice inducer instructions",""," ","practice","","","","","","","","","","","",""
"","html-keyboard-response","44","140249","0.0-78.0","rq3ouf4v","1512","945","","","","","","","","","","","1259","","Practice inducer trial","","f","practice","","true","","","f","1","LEFT","","","","",""
"","html-keyboard-response","45","141000","0.0-81.0","rq3ouf4v","1512","945","","","","","","","","","","","null","+","Fixation - short","","null","","","","","","","","","","","","",""
"","html-keyboard-response","46","143946","0.0-82.0","rq3ouf4v","1512","945","","","","","","","","","","","2944","If bms press RIGHT | If jlm press LEFT","Practice inducer instructions",""," ","practice","","","","","","","","","","","",""
"","html-keyboard-response","47","144879","0.0-83.0","rq3ouf4v","1512","945","","","","","","","","","","","931","","Practice inducer trial","","j","practice","","true","","","j","1","RIGHT","","","","",""
"","html-keyboard-response","48","145632","0.0-86.0","rq3ouf4v","1512","945","","","","","","","","","","","null","+","Fixation - short","","null","","","","","","","","","","","","",""
"","html-keyboard-response","49","147268","0.0-87.0","rq3ouf4v","1512","945","","","","","","","","","","","1633","If dgv press RIGHT | If csp press LEFT","Practice inducer instructions",""," ","practice","","","","","","","","","","","",""
"","html-keyboard-response","50","148197","0.0-88.0","rq3ouf4v","1512","945","","","","","","","","","","","927","","Practice inducer trial","","j","practice","","true","","","j","1","RIGHT","","","","",""
"","html-keyboard-response","51","148950","0.0-91.0","rq3ouf4v","1512","945","","","","","","","","","","","null","+","Fixation - short","","null","","","","","","","","","","","","",""
"","html-keyboard-response","52","150485","0.0-92.0","rq3ouf4v","1512","945","","","","","","","","","","","1533","If vsc press RIGHT | If ibg press LEFT","Practice inducer instructions",""," ","practice","","","","","","","","","","","",""
"","html-keyboard-response","53","151300","0.0-93.0","rq3ouf4v","1512","945","","","","","","","","","","","813","","Practice inducer trial","","j","practice","","true","","","j","1","RIGHT","","","","",""
"","html-keyboard-response","54","152053","0.0-96.0","rq3ouf4v","1512","945","","","","","","","","","","","null","+","Fixation - short","","null","","","","","","","","","","","","",""
"","html-keyboard-response","55","155690","0.0-97.0","rq3ouf4v","1512","945","","","","","","","","","","","3634","If ttm press RIGHT | If fuc press LEFT","Practice inducer instructions",""," ","practice","","","","","","","","","","","",""
"","html-keyboard-response","56","156583","0.0-98.0","rq3ouf4v","1512","945","","","","","","","","","","","891","","Practice inducer trial","","f","practice","","true","","","f","1","LEFT","","","","",""
"","html-keyboard-response","57","157335","0.0-101.0","rq3ouf4v","1512","945","","","","","","","","","","","null","+","Fixation - short","","null","","","","","","","","","","","","",""
"","html-keyboard-response","58","159975","0.0-102.0","rq3ouf4v","1512","945","","","","","","","","","","","2638","End practice","End of practice",""," ","","","","","","","","","","","","",""
"","html-keyboard-response","59","161479","0.0-103.0","rq3ouf4v","1512","945","","","","","","","","","","","null","+","Fixation - long","","null","","","","","","","","","","","","",""
"","html-keyboard-response","60","166896","0.0-104.0","rq3ouf4v","1512","945","","","","","","","","","","","5415","If adj press RIGHT | If ydi press LEFT","Inducer instructions",""," ","0","","","","","","","","","","","",""
"","html-keyboard-response","61","167649","0.0-105.0","rq3ouf4v","1512","945","","","","","","","","","","","null","+","Fixation - short","","null","","","","","","","","","","","","",""
"","html-keyboard-response","62","168284","0.0-106.0","rq3ouf4v","1512","945","","","","","","","","","","","632","ydi","Diagnostic trial","","f","0","0","false","false","LEFT","f","1","","RIGHT","false","","",""
"","html-keyboard-response","63","169038","0.0-109.0","rq3ouf4v","1512","945","","","","","","","","","","","null","+","Fixation - short","","null","","","","","","","","","","","","",""
"","html-keyboard-response","64","169900","0.0-110.0","rq3ouf4v","1512","945","","","","","","","","","","","860","ydi","Diagnostic trial","","j","0","1","false","true","RIGHT","j","1","","RIGHT","true","","",""
"","html-keyboard-response","65","170653","0.0-113.0","rq3ouf4v","1512","945","","","","","","","","","","","null","+","Fixation - short","","null","","","","","","","","","","","","",""
"","html-keyboard-response","66","171631","0.0-114.0","rq3ouf4v","1512","945","","","","","","","","","","","976","adj","Diagnostic trial","","j","0","2","false","true","RIGHT","j","1","","LEFT","false","","",""
"","html-keyboard-response","67","172383","0.0-117.0","rq3ouf4v","1512","945","","","","","","","","","","","null","+","Fixation - short","","null","","","","","","","","","","","","",""
"","html-keyboard-response","68","173006","0.0-118.0","rq3ouf4v","1512","945","","","","","","","","","","","621","adj","Diagnostic trial","","f","0","3","false","false","LEFT","f","1","","LEFT","true","","",""
"","html-keyboard-response","69","173758","0.0-121.0","rq3ouf4v","1512","945","","","","","","","","","","","null","+","Fixation - short","","null","","","","","","","","","","","","",""
"","html-keyboard-response","70","174465","0.0-122.0","rq3ouf4v","1512","945","","","","","","","","","","","705","ydi","Diagnostic trial","","j","0","4","false","true","RIGHT","j","1","","RIGHT","true","","",""
"","html-keyboard-response","71","175217","0.0-125.0","rq3ouf4v","1512","945","","","","","","","","","","","null","+","Fixation - short","","null","","","","","","","","","","","","",""
"","html-keyboard-response","72","175804","0.0-126.0","rq3ouf4v","1512","945","","","","","","","","","","","584","ydi","Diagnostic trial","","j","0","5","false","true","RIGHT","j","1","","RIGHT","true","","",""
"","html-keyboard-response","73","176557","0.0-129.0","rq3ouf4v","1512","945","","","","","","","","","","","null","+","Fixation - short","","null","","","","","","","","","","","","",""
"","html-keyboard-response","74","177114","0.0-130.0","rq3ouf4v","1512","945","","","","","","","","","","","556","ydi","Diagnostic trial","","f","0","6","false","false","LEFT","f","1","","RIGHT","false","","",""
"","html-keyboard-response","75","177867","0.0-133.0","rq3ouf4v","1512","945","","","","","","","","","","","null","+","Fixation - short","","null","","","","","","","","","","","","",""
"","html-keyboard-response","76","178360","0.0-134.0","rq3ouf4v","1512","945","","","","","","","","","","","492","adj","Diagnostic trial","","j","0","7","false","true","RIGHT","j","1","","LEFT","false","","",""
"","html-keyboard-response","77","179112","0.0-137.0","rq3ouf4v","1512","945","","","","","","","","","","","null","+","Fixation - short","","null","","","","","","","","","","","","",""
"","html-keyboard-response","78","180224","0.0-138.0","rq3ouf4v","1512","945","","","","","","","","","","","1110","ydi","Diagnostic trial","","j","0","8","false","true","RIGHT","j","1","","RIGHT","true","","",""
"","html-keyboard-response","79","180977","0.0-141.0","rq3ouf4v","1512","945","","","","","","","","","","","null","+","Fixation - short","","null","","","","","","","","","","","","",""
"","html-keyboard-response","80","181534","0.0-142.0","rq3ouf4v","1512","945","","","","","","","","","","","557","adj","Diagnostic trial","","f","0","9","false","false","LEFT","f","1","","LEFT","true","","",""
"","html-keyboard-response","81","182286","0.0-145.0","rq3ouf4v","1512","945","","","","","","","","","","","null","+","Fixation - short","","null","","","","","","","","","","","","",""
"","html-keyboard-response","82","182706","0.0-146.0","rq3ouf4v","1512","945","","","","","","","","","","","419","ydi","Diagnostic trial","","j","0","10","false","false","LEFT","f","0","","RIGHT","false","","",""
"","call-function","83","182707","0.0-148.0-0.0","rq3ouf4v","","","","","","","","","","","","","","","","","","","","","","","","","","","","","",""
"","html-keyboard-response","84","183009","0.0-148.0-1.0","rq3ouf4v","1512","945","","","","","","","","","","","null","Wrong","Feedback","","null","","","","","","","","","","","","",""
"","call-function","85","183010","0.0-148.0-2.0","rq3ouf4v","","","","","","","","","","","","","","","","","","","","","","","","","","","","","",""
"","html-keyboard-response","86","183762","0.0-149.0","rq3ouf4v","1512","945","","","","","","","","","","","null","+","Fixation - short","","null","","","","","","","","","","","","",""
"","html-keyboard-response","87","184722","0.0-150.0","rq3ouf4v","1512","945","","","","","","","","","","","958","ydi","Diagnostic trial","","f","0","11","false","false","LEFT","f","1","","RIGHT","false","","",""
"","html-keyboard-response","88","185476","0.0-153.0","rq3ouf4v","1512","945","","","","","","","","","","","null","+","Fixation - short","","null","","","","","","","","","","","","",""
"","html-keyboard-response","89","186073","0.0-154.0","rq3ouf4v","1512","945","","","","","","","","","","","595","adj","Diagnostic trial","","f","0","12","false","false","LEFT","f","1","","LEFT","true","","",""
"","html-keyboard-response","90","186826","0.0-157.0","rq3ouf4v","1512","945","","","","","","","","","","","null","+","Fixation - short","","null","","","","","","","","","","","","",""
"","html-keyboard-response","91","187253","0.0-158.0","rq3ouf4v","1512","945","","","","","","","","","","","425","adj","Diagnostic trial","","j","0","13","false","true","RIGHT","j","1","","LEFT","false","","",""
"","html-keyboard-response","92","188006","0.0-161.0","rq3ouf4v","1512","945","","","","","","","","","","","null","+","Fixation - short","","null","","","","","","","","","","","","",""
"","html-keyboard-response","93","189368","0.0-162.0","rq3ouf4v","1512","945","","","","","","","","","","","1361","ydi","Inducer trial","","f","0","","true","","","f","1","LEFT","","","","",""
"","html-keyboard-response","94","190870","0.0-165.0","rq3ouf4v","1512","945","","","","","","","","","","","null","+","Fixation - long","","null","","","","","","","","","","","","",""
"","html-keyboard-response","95","194030","0.0-166.0","rq3ouf4v","1512","945","","","","","","","","","","","3157","If ebe press RIGHT | If slu press LEFT","Inducer instructions",""," ","1","","","","","","","","","","","",""
"","html-keyboard-response","96","194784","0.0-167.0","rq3ouf4v","1512","945","","","","","","","","","","","null","+","Fixation - short","","null","","","","","","","","","","","","",""
"","html-keyboard-response","97","195696","0.0-168.0","rq3ouf4v","1512","945","","","","","","","","","","","911","ebe","Diagnostic trial","","f","1","0","false","false","LEFT","f","1","","LEFT","true","","",""
"","html-keyboard-response","98","196449","0.0-171.0","rq3ouf4v","1512","945","","","","","","","","","","","null","+","Fixation - short","","null","","","","","","","","","","","","",""
"","html-keyboard-response","99","197054","0.0-172.0","rq3ouf4v","1512","945","","","","","","","","","","","603","ebe","Diagnostic trial","","f","1","1","false","false","LEFT","f","1","","LEFT","true","","",""
"","html-keyboard-response","100","197808","0.0-175.0","rq3ouf4v","1512","945","","","","","","","","","","","null","+","Fixation - short","","null","","","","","","","","","","","","",""
"","html-keyboard-response","101","198247","0.0-176.0","rq3ouf4v","1512","945","","","","","","","","","","","438","ebe","Diagnostic trial","","f","1","2","false","false","LEFT","f","1","","LEFT","true","","",""
"","html-keyboard-response","102","198999","0.0-179.0","rq3ouf4v","1512","945","","","","","","","","","","","null","+","Fixation - short","","null","","","","","","","","","","","","",""
"","html-keyboard-response","103","199815","0.0-180.0","rq3ouf4v","1512","945","","","","","","","","","","","815","slu","Diagnostic trial","","f","1","3","false","false","LEFT","f","1","","RIGHT","false","","",""
"","html-keyboard-response","104","200568","0.0-183.0","rq3ouf4v","1512","945","","","","","","","","","","","null","+","Fixation - short","","null","","","","","","","","","","","","",""
"","html-keyboard-response","105","201190","0.0-184.0","rq3ouf4v","1512","945","","","","","","","","","","","620","slu","Diagnostic trial","","j","1","4","false","true","RIGHT","j","1","","RIGHT","true","","",""
"","html-keyboard-response","106","201941","0.0-187.0","rq3ouf4v","1512","945","","","","","","","","","","","null","+","Fixation - short","","null","","","","","","","","","","","","",""
"","html-keyboard-response","107","202504","0.0-188.0","rq3ouf4v","1512","945","","","","","","","","","","","561","ebe","Diagnostic trial","","j","1","5","false","true","RIGHT","j","1","","LEFT","false","","",""
"","html-keyboard-response","108","203257","0.0-191.0","rq3ouf4v","1512","945","","","","","","","","","","","null","+","Fixation - short","","null","","","","","","","","","","","","",""
"","html-keyboard-response","109","203814","0.0-192.0","rq3ouf4v","1512","945","","","","","","","","","","","554","slu","Diagnostic trial","","f","1","6","false","false","LEFT","f","1","","RIGHT","false","","",""
"","html-keyboard-response","110","204567","0.0-195.0","rq3ouf4v","1512","945","","","","","","","","","","","null","+","Fixation - short","","null","","","","","","","","","","","","",""
"","html-keyboard-response","111","205103","0.0-196.0","rq3ouf4v","1512","945","","","","","","","","","","","534","slu","Diagnostic trial","","f","1","7","false","false","LEFT","f","1","","RIGHT","false","","",""
"","html-keyboard-response","112","205856","0.0-199.0","rq3ouf4v","1512","945","","","","","","","","","","","null","+","Fixation - short","","null","","","","","","","","","","","","",""
"","html-keyboard-response","113","206604","0.0-200.0","rq3ouf4v","1512","945","","","","","","","","","","","747","slu","Diagnostic trial","","j","1","8","false","true","RIGHT","j","1","","RIGHT","true","","",""
"","html-keyboard-response","114","207357","0.0-203.0","rq3ouf4v","1512","945","","","","","","","","","","","null","+","Fixation - short","","null","","","","","","","","","","","","",""
"","html-keyboard-response","115","207940","0.0-204.0","rq3ouf4v","1512","945","","","","","","","","","","","581","slu","Diagnostic trial","","f","1","9","false","false","LEFT","f","1","","RIGHT","false","","",""
"","html-keyboard-response","116","208694","0.0-207.0","rq3ouf4v","1512","945","","","","","","","","","","","null","+","Fixation - short","","null","","","","","","","","","","","","",""
"","html-keyboard-response","117","209231","0.0-208.0","rq3ouf4v","1512","945","","","","","","","","","","","536","ebe","Diagnostic trial","","f","1","10","false","false","LEFT","f","1","","LEFT","true","","",""
"","html-keyboard-response","118","209984","0.0-211.0","rq3ouf4v","1512","945","","","","","","","","","","","null","+","Fixation - short","","null","","","","","","","","","","","","",""
"","html-keyboard-response","119","210468","0.0-212.0","rq3ouf4v","1512","945","","","","","","","","","","","483","slu","Diagnostic trial","","j","1","11","false","true","RIGHT","j","1","","RIGHT","true","","",""
"","html-keyboard-response","120","211220","0.0-215.0","rq3ouf4v","1512","945","","","","","","","","","","","null","+","Fixation - short","","null","","","","","","","","","","","","",""
"","html-keyboard-response","121","211715","0.0-216.0","rq3ouf4v","1512","945","","","","","","","","","","","493","ebe","Diagnostic trial","","j","1","12","false","true","RIGHT","j","1","","LEFT","false","","",""
"","html-keyboard-response","122","212468","0.0-219.0","rq3ouf4v","1512","945","","","","","","","","","","","null","+","Fixation - short","","null","","","","","","","","","","","","",""
"","html-keyboard-response","123","213126","0.0-220.0","rq3ouf4v","1512","945","","","","","","","","","","","657","ebe","Inducer trial","","f","1","","true","","","j","0","RIGHT","","","","",""
"","call-function","124","213126","0.0-222.0-0.0","rq3ouf4v","","","","","","","","","","","","","","","","","","","","","","","","","","","","","",""
"","html-keyboard-response","125","213428","0.0-222.0-1.0","rq3ouf4v","1512","945","","","","","","","","","","","null","Wrong","Feedback","","null","","","","","","","","","","","","",""
"","call-function","126","213429","0.0-222.0-2.0","rq3ouf4v","","","","","","","","","","","","","","","","","","","","","","","","","","","","","",""
"","html-keyboard-response","127","214932","0.0-223.0","rq3ouf4v","1512","945","","","","","","","","","","","null","+","Fixation - long","","null","","","","","","","","","","","","",""
"","html-keyboard-response","128","217445","0.0-224.0","rq3ouf4v","1512","945","","","","","","","","","","","2511","If gdn press RIGHT | If dnc press LEFT","Inducer instructions",""," ","2","","","","","","","","","","","",""
"","html-keyboard-response","129","218199","0.0-225.0","rq3ouf4v","1512","945","","","","","","","","","","","null","+","Fixation - short","","null","","","","","","","","","","","","",""
"","html-keyboard-response","130","219072","0.0-226.0","rq3ouf4v","1512","945","","","","","","","","","","","872","gdn","Diagnostic trial","","f","2","0","false","false","LEFT","f","1","","LEFT","true","","",""
"","html-keyboard-response","131","219825","0.0-229.0","rq3ouf4v","1512","945","","","","","","","","","","","null","+","Fixation - short","","null","","","","","","","","","","","","",""
"","html-keyboard-response","132","220505","0.0-230.0","rq3ouf4v","1512","945","","","","","","","","","","","678","gdn","Diagnostic trial","","j","2","1","false","true","RIGHT","j","1","","LEFT","false","","",""
"","html-keyboard-response","133","221258","0.0-233.0","rq3ouf4v","1512","945","","","","","","","","","","","null","+","Fixation - short","","null","","","","","","","","","","","","",""
"","html-keyboard-response","134","222741","0.0-234.0","rq3ouf4v","1512","945","","","","","","","","","","","1482","dnc","Diagnostic trial","","j","2","2","false","true","RIGHT","j","1","","RIGHT","true","","",""
"","html-keyboard-response","135","223494","0.0-237.0","rq3ouf4v","1512","945","","","","","","","","","","","null","+","Fixation - short","","null","","","","","","","","","","","","",""
"","html-keyboard-response","136","224266","0.0-238.0","rq3ouf4v","1512","945","","","","","","","","","","","771","gdn","Diagnostic trial","","j","2","3","false","true","RIGHT","j","1","","LEFT","false","","",""
"","html-keyboard-response","137","225018","0.0-241.0","rq3ouf4v","1512","945","","","","","","","","","","","null","+","Fixation - short","","null","","","","","","","","","","","","",""
"","html-keyboard-response","138","225617","0.0-242.0","rq3ouf4v","1512","945","","","","","","","","","","","597","dnc","Diagnostic trial","","f","2","4","false","false","LEFT","f","1","","RIGHT","false","","",""
"","html-keyboard-response","139","226369","0.0-245.0","rq3ouf4v","1512","945","","","","","","","","","","","null","+","Fixation - short","","null","","","","","","","","","","","","",""
"","html-keyboard-response","140","227481","0.0-246.0","rq3ouf4v","1512","945","","","","","","","","","","","1111","gdn","Diagnostic trial","","f","2","5","false","false","LEFT","f","1","","LEFT","true","","",""
"","html-keyboard-response","141","228234","0.0-249.0","rq3ouf4v","1512","945","","","","","","","","","","","null","+","Fixation - short","","null","","","","","","","","","","","","",""
"","html-keyboard-response","142","228745","0.0-250.0","rq3ouf4v","1512","945","","","","","","","","","","","510","gdn","Diagnostic trial","","j","2","6","false","true","RIGHT","j","1","","LEFT","false","","",""
"","html-keyboard-response","143","229498","0.0-253.0","rq3ouf4v","1512","945","","","","","","","","","","","null","+","Fixation - short","","null","","","","","","","","","","","","",""
"","html-keyboard-response","144","230313","0.0-254.0","rq3ouf4v","1512","945","","","","","","","","","","","814","gdn","Diagnostic trial","","j","2","7","false","true","RIGHT","j","1","","LEFT","false","","",""
"","html-keyboard-response","145","231066","0.0-257.0","rq3ouf4v","1512","945","","","","","","","","","","","null","+","Fixation - short","","null","","","","","","","","","","","","",""
"","html-keyboard-response","146","232023","0.0-258.0","rq3ouf4v","1512","945","","","","","","","","","","","955","gdn","Diagnostic trial","","f","2","8","false","false","LEFT","f","1","","LEFT","true","","",""
"","html-keyboard-response","147","232777","0.0-261.0","rq3ouf4v","1512","945","","","","","","","","","","","null","+","Fixation - short","","null","","","","","","","","","","","","",""
"","html-keyboard-response","148","233862","0.0-262.0","rq3ouf4v","1512","945","","","","","","","","","","","1084","dnc","Diagnostic trial","","j","2","9","false","false","LEFT","f","0","","RIGHT","false","","",""
"","call-function","149","233863","0.0-264.0-0.0","rq3ouf4v","","","","","","","","","","","","","","","","","","","","","","","","","","","","","",""
"","html-keyboard-response","150","234165","0.0-264.0-1.0","rq3ouf4v","1512","945","","","","","","","","","","","null","Wrong","Feedback","","null","","","","","","","","","","","","",""
"","call-function","151","234166","0.0-264.0-2.0","rq3ouf4v","","","","","","","","","","","","","","","","","","","","","","","","","","","","","",""
"","html-keyboard-response","152","234918","0.0-265.0","rq3ouf4v","1512","945","","","","","","","","","","","null","+","Fixation - short","","null","","","","","","","","","","","","",""
"","html-keyboard-response","153","236239","0.0-266.0","rq3ouf4v","1512","945","","","","","","","","","","","1319","dnc","Diagnostic trial","","j","2","10","false","true","RIGHT","j","1","","RIGHT","true","","",""
"","html-keyboard-response","154","236991","0.0-269.0","rq3ouf4v","1512","945","","","","","","","","","","","null","+","Fixation - short","","null","","","","","","","","","","","","",""
"","html-keyboard-response","155","238610","0.0-270.0","rq3ouf4v","1512","945","","","","","","","","","","","1617","dnc","Inducer trial","","f","2","","true","","","f","1","LEFT","","","","",""
"","html-keyboard-response","156","240114","0.0-273.0","rq3ouf4v","1512","945","","","","","","","","","","","null","+","Fixation - long","","null","","","","","","","","","","","","",""
"","html-keyboard-response","157","241317","0.0-274.0","rq3ouf4v","1512","945","","","","","","","","","","","1202","If lpn press RIGHT | If yrp press LEFT","Inducer instructions",""," ","3","","","","","","","","","","","",""
"","html-keyboard-response","158","242069","0.0-275.0","rq3ouf4v","1512","945","","","","","","","","","","","null","+","Fixation - short","","null","","","","","","","","","","","","",""
"","html-keyboard-response","159","242820","0.0-276.0","rq3ouf4v","1512","945","","","","","","","","","","","750","lpn","Diagnostic trial","","j","3","0","false","true","RIGHT","j","1","","LEFT","false","","",""
"","html-keyboard-response","160","243573","0.0-279.0","rq3ouf4v","1512","945","","","","","","","","","","","null","+","Fixation - short","","null","","","","","","","","","","","","",""
"","html-keyboard-response","161","244582","0.0-280.0","rq3ouf4v","1512","945","","","","","","","","","","","1006","yrp","Diagnostic trial","","f","3","1","false","false","LEFT","f","1","","RIGHT","false","","",""
"","html-keyboard-response","162","245335","0.0-283.0","rq3ouf4v","1512","945","","","","","","","","","","","null","+","Fixation - short","","null","","","","","","","","","","","","",""
"","html-keyboard-response","163","245980","0.0-284.0","rq3ouf4v","1512","945","","","","","","","","","","","644","lpn","Diagnostic trial","","j","3","2","false","true","RIGHT","j","1","","LEFT","false","","",""
"","html-keyboard-response","164","246734","0.0-287.0","rq3ouf4v","1512","945","","","","","","","","","","","null","+","Fixation - short","","null","","","","","","","","","","","","",""
"","html-keyboard-response","165","247445","0.0-288.0","rq3ouf4v","1512","945","","","","","","","","","","","709","yrp","Diagnostic trial","","f","3","3","false","false","LEFT","f","1","","RIGHT","false","","",""
"","html-keyboard-response","166","248199","0.0-291.0","rq3ouf4v","1512","945","","","","","","","","","","","null","+","Fixation - short","","null","","","","","","","","","","","","",""
"","html-keyboard-response","167","248914","0.0-292.0","rq3ouf4v","1512","945","","","","","","","","","","","714","lpn","Diagnostic trial","","j","3","4","false","true","RIGHT","j","1","","LEFT","false","","",""
"","html-keyboard-response","168","249667","0.0-295.0","rq3ouf4v","1512","945","","","","","","","","","","","null","+","Fixation - short","","null","","","","","","","","","","","","",""
"","html-keyboard-response","169","250524","0.0-296.0","rq3ouf4v","1512","945","","","","","","","","","","","856","lpn","Diagnostic trial","","f","3","5","false","false","LEFT","f","1","","LEFT","true","","",""
"","html-keyboard-response","170","251277","0.0-299.0","rq3ouf4v","1512","945","","","","","","","","","","","null","+","Fixation - short","","null","","","","","","","","","","","","",""
"","html-keyboard-response","171","252563","0.0-300.0","rq3ouf4v","1512","945","","","","","","","","","","","1284","yrp","Diagnostic trial","","f","3","6","false","false","LEFT","f","1","","RIGHT","false","","",""
"","html-keyboard-response","172","253317","0.0-303.0","rq3ouf4v","1512","945","","","","","","","","","","","null","+","Fixation - short","","null","","","","","","","","","","","","",""
"","html-keyboard-response","173","253950","0.0-304.0","rq3ouf4v","1512","945","","","","","","","","","","","631","lpn","Diagnostic trial","","f","3","7","false","false","LEFT","f","1","","LEFT","true","","",""
"","html-keyboard-response","174","254702","0.0-307.0","rq3ouf4v","1512","945","","","","","","","","","","","null","+","Fixation - short","","null","","","","","","","","","","","","",""
"","html-keyboard-response","175","255552","0.0-308.0","rq3ouf4v","1512","945","","","","","","","","","","","847","yrp","Diagnostic trial","","j","3","8","false","true","RIGHT","j","1","","RIGHT","true","","",""
"","html-keyboard-response","176","256305","0.0-311.0","rq3ouf4v","1512","945","","","","","","","","","","","null","+","Fixation - short","","null","","","","","","","","","","","","",""
"","html-keyboard-response","177","256863","0.0-312.0","rq3ouf4v","1512","945","","","","","","","","","","","557","lpn","Diagnostic trial","","j","3","9","false","true","RIGHT","j","1","","LEFT","false","","",""
"","html-keyboard-response","178","257615","0.0-315.0","rq3ouf4v","1512","945","","","","","","","","","","","null","+","Fixation - short","","null","","","","","","","","","","","","",""
"","html-keyboard-response","179","258104","0.0-316.0","rq3ouf4v","1512","945","","","","","","","","","","","487","lpn","Diagnostic trial","","f","3","10","false","false","LEFT","f","1","","LEFT","true","","",""
"","html-keyboard-response","180","258858","0.0-319.0","rq3ouf4v","1512","945","","","","","","","","","","","null","+","Fixation - short","","null","","","","","","","","","","","","",""
"","html-keyboard-response","181","259553","0.0-320.0","rq3ouf4v","1512","945","","","","","","","","","","","693","lpn","Diagnostic trial","","j","3","11","false","true","RIGHT","j","1","","LEFT","false","","",""
"","html-keyboard-response","182","260306","0.0-323.0","rq3ouf4v","1512","945","","","","","","","","","","","null","+","Fixation - short","","null","","","","","","","","","","","","",""
"","html-keyboard-response","183","260781","0.0-324.0","rq3ouf4v","1512","945","","","","","","","","","","","474","yrp","Diagnostic trial","","j","3","12","false","true","RIGHT","j","1","","RIGHT","true","","",""
"","html-keyboard-response","184","261535","0.0-327.0","rq3ouf4v","1512","945","","","","","","","","","","","null","+","Fixation - short","","null","","","","","","","","","","","","",""
"","html-keyboard-response","185","262484","0.0-328.0","rq3ouf4v","1512","945","","","","","","","","","","","947","lpn","Inducer trial","","j","3","","true","","","j","1","RIGHT","","","","",""
"","html-keyboard-response","186","263986","0.0-331.0","rq3ouf4v","1512","945","","","","","","","","","","","null","+","Fixation - long","","null","","","","","","","","","","","","",""
"","html-keyboard-response","187","264994","0.0-332.0","rq3ouf4v","1512","945","","","","","","","","","","","1006","If sjn press RIGHT | If bsh press LEFT","Inducer instructions",""," ","4","","","","","","","","","","","",""
"","html-keyboard-response","188","265747","0.0-333.0","rq3ouf4v","1512","945","","","","","","","","","","","null","+","Fixation - short","","null","","","","","","","","","","","","",""
"","html-keyboard-response","189","266848","0.0-334.0","rq3ouf4v","1512","945","","","","","","","","","","","1100","bsh","Diagnostic trial","","j","4","0","false","true","RIGHT","j","1","","RIGHT","true","","",""
"","html-keyboard-response","190","267601","0.0-337.0","rq3ouf4v","1512","945","","","","","","","","","","","null","+","Fixation - short","","null","","","","","","","","","","","","",""
"","html-keyboard-response","191","268100","0.0-338.0","rq3ouf4v","1512","945","","","","","","","","","","","497","sjn","Diagnostic trial","","f","4","1","false","false","LEFT","f","1","","LEFT","true","","",""
"","html-keyboard-response","192","268853","0.0-341.0","rq3ouf4v","1512","945","","","","","","","","","","","null","+","Fixation - short","","null","","","","","","","","","","","","",""
"","html-keyboard-response","193","269518","0.0-342.0","rq3ouf4v","1512","945","","","","","","","","","","","663","sjn","Diagnostic trial","","j","4","2","false","true","RIGHT","j","1","","LEFT","false","","",""
"","html-keyboard-response","194","270271","0.0-345.0","rq3ouf4v","1512","945","","","","","","","","","","","null","+","Fixation - short","","null","","","","","","","","","","","","",""
"","html-keyboard-response","195","271683","0.0-346.0","rq3ouf4v","1512","945","","","","","","","","","","","1410","bsh","Diagnostic trial","","f","4","3","false","true","RIGHT","j","0","","RIGHT","true","","",""
"","call-function","196","271683","0.0-348.0-0.0","rq3ouf4v","","","","","","","","","","","","","","","","","","","","","","","","","","","","","",""
"","html-keyboard-response","197","271985","0.0-348.0-1.0","rq3ouf4v","1512","945","","","","","","","","","","","null","Wrong","Feedback","","null","","","","","","","","","","","","",""
"","call-function","198","271986","0.0-348.0-2.0","rq3ouf4v","","","","","","","","","","","","","","","","","","","","","","","","","","","","","",""
"","html-keyboard-response","199","272739","0.0-349.0","rq3ouf4v","1512","945","","","","","","","","","","","null","+","Fixation - short","","null","","","","","","","","","","","","",""
"","html-keyboard-response","200","273562","0.0-350.0","rq3ouf4v","1512","945","","","","","","","","","","","822","bsh","Inducer trial","","f","4","","true","","","f","1","LEFT","","","","",""
"","html-keyboard-response","201","275066","0.0-353.0","rq3ouf4v","1512","945","","","","","","","","","","","null","+","Fixation - long","","null","","","","","","","","","","","","",""
"","html-keyboard-response","202","275825","0.0-354.0","rq3ouf4v","1512","945","","","","","","","","","","","757","If dpa press RIGHT | If mda press LEFT","Inducer instructions",""," ","5","","","","","","","","","","","",""
"","html-keyboard-response","203","276578","0.0-355.0","rq3ouf4v","1512","945","","","","","","","","","","","null","+","Fixation - short","","null","","","","","","","","","","","","",""
"","html-keyboard-response","204","277286","0.0-356.0","rq3ouf4v","1512","945","","","","","","","","","","","707","mda","Diagnostic trial","","f","5","0","false","false","LEFT","f","1","","RIGHT","false","","",""
"","html-keyboard-response","205","278038","0.0-359.0","rq3ouf4v","1512","945","","","","","","","","","","","null","+","Fixation - short","","null","","","","","","","","","","","","",""
"","html-keyboard-response","206","278711","0.0-360.0","rq3ouf4v","1512","945","","","","","","","","","","","671","mda","Diagnostic trial","","j","5","1","false","true","RIGHT","j","1","","RIGHT","true","","",""
"","html-keyboard-response","207","279465","0.0-363.0","rq3ouf4v","1512","945","","","","","","","","","","","null","+","Fixation - short","","null","","","","","","","","","","","","",""
"","html-keyboard-response","208","280285","0.0-364.0","rq3ouf4v","1512","945","","","","","","","","","","","819","mda","Diagnostic trial","","f","5","2","false","false","LEFT","f","1","","RIGHT","false","","",""
"","html-keyboard-response","209","281038","0.0-367.0","rq3ouf4v","1512","945","","","","","","","","","","","null","+","Fixation - short","","null","","","","","","","","","","","","",""
"","html-keyboard-response","210","281620","0.0-368.0","rq3ouf4v","1512","945","","","","","","","","","","","580","mda","Diagnostic trial","","j","5","3","false","true","RIGHT","j","1","","RIGHT","true","","",""
"","html-keyboard-response","211","282374","0.0-371.0","rq3ouf4v","1512","945","","","","","","","","","","","null","+","Fixation - short","","null","","","","","","","","","","","","",""
"","html-keyboard-response","212","283386","0.0-372.0","rq3ouf4v","1512","945","","","","","","","","","","","1010","dpa","Diagnostic trial","","j","5","4","false","true","RIGHT","j","1","","LEFT","false","","",""
"","html-keyboard-response","213","284138","0.0-375.0","rq3ouf4v","1512","945","","","","","","","","","","","null","+","Fixation - short","","null","","","","","","","","","","","","",""
"","html-keyboard-response","214","285003","0.0-376.0","rq3ouf4v","1512","945","","","","","","","","","","","863","dpa","Diagnostic trial","","f","5","5","false","false","LEFT","f","1","","LEFT","true","","",""
"","html-keyboard-response","215","285756","0.0-379.0","rq3ouf4v","1512","945","","","","","","","","","","","null","+","Fixation - short","","null","","","","","","","","","","","","",""
"","html-keyboard-response","216","286349","0.0-380.0","rq3ouf4v","1512","945","","","","","","","","","","","591","dpa","Diagnostic trial","","j","5","6","false","true","RIGHT","j","1","","LEFT","false","","",""
"","html-keyboard-response","217","287102","0.0-383.0","rq3ouf4v","1512","945","","","","","","","","","","","null","+","Fixation - short","","null","","","","","","","","","","","","",""
"","html-keyboard-response","218","288115","0.0-384.0","rq3ouf4v","1512","945","","","","","","","","","","","1011","mda","Diagnostic trial","","j","5","7","false","true","RIGHT","j","1","","RIGHT","true","","",""
"","html-keyboard-response","219","288867","0.0-387.0","rq3ouf4v","1512","945","","","","","","","","","","","null","+","Fixation - short","","null","","","","","","","","","","","","",""
"","html-keyboard-response","220","289549","0.0-388.0","rq3ouf4v","1512","945","","","","","","","","","","","681","dpa","Diagnostic trial","","f","5","8","false","false","LEFT","f","1","","LEFT","true","","",""
"","html-keyboard-response","221","290302","0.0-391.0","rq3ouf4v","1512","945","","","","","","","","","","","null","+","Fixation - short","","null","","","","","","","","","","","","",""
"","html-keyboard-response","222","290817","0.0-392.0","rq3ouf4v","1512","945","","","","","","","","","","","513","mda","Diagnostic trial","","j","5","9","false","true","RIGHT","j","1","","RIGHT","true","","",""
"","html-keyboard-response","223","291569","0.0-395.0","rq3ouf4v","1512","945","","","","","","","","","","","null","+","Fixation - short","","null","","","","","","","","","","","","",""
"","html-keyboard-response","224","292076","0.0-396.0","rq3ouf4v","1512","945","","","","","","","","","","","505","mda","Diagnostic trial","","j","5","10","false","true","RIGHT","j","1","","RIGHT","true","","",""
"","html-keyboard-response","225","292829","0.0-399.0","rq3ouf4v","1512","945","","","","","","","","","","","null","+","Fixation - short","","null","","","","","","","","","","","","",""
"","html-keyboard-response","226","293371","0.0-400.0","rq3ouf4v","1512","945","","","","","","","","","","","541","dpa","Diagnostic trial","","j","5","11","false","true","RIGHT","j","1","","LEFT","false","","",""
"","html-keyboard-response","227","294124","0.0-403.0","rq3ouf4v","1512","945","","","","","","","","","","","null","+","Fixation - short","","null","","","","","","","","","","","","",""
"","html-keyboard-response","228","294727","0.0-404.0","rq3ouf4v","1512","945","","","","","","","","","","","603","mda","Diagnostic trial","","f","5","12","false","false","LEFT","f","1","","RIGHT","false","","",""
"","html-keyboard-response","229","295480","0.0-407.0","rq3ouf4v","1512","945","","","","","","","","","","","null","+","Fixation - short","","null","","","","","","","","","","","","",""
"","html-keyboard-response","230","296153","0.0-408.0","rq3ouf4v","1512","945","","","","","","","","","","","671","dpa","Diagnostic trial","","j","5","13","false","true","RIGHT","j","1","","LEFT","false","","",""
"","html-keyboard-response","231","296907","0.0-411.0","rq3ouf4v","1512","945","","","","","","","","","","","null","+","Fixation - short","","null","","","","","","","","","","","","",""
"","html-keyboard-response","232","298096","0.0-412.0","rq3ouf4v","1512","945","","","","","","","","","","","1188","dpa","Inducer trial","","f","5","","true","","","j","0","RIGHT","","","","",""
"","call-function","233","298097","0.0-414.0-0.0","rq3ouf4v","","","","","","","","","","","","","","","","","","","","","","","","","","","","","",""
"","html-keyboard-response","234","298399","0.0-414.0-1.0","rq3ouf4v","1512","945","","","","","","","","","","","null","Wrong","Feedback","","null","","","","","","","","","","","","",""
"","call-function","235","298400","0.0-414.0-2.0","rq3ouf4v","","","","","","","","","","","","","","","","","","","","","","","","","","","","","",""
"","html-keyboard-response","236","299904","0.0-415.0","rq3ouf4v","1512","945","","","","","","","","","","","null","+","Fixation - long","","null","","","","","","","","","","","","",""
"","html-keyboard-response","237","303973","0.0-416.0","rq3ouf4v","1512","945","","","","","","","","","","","4067","If yna press RIGHT | If ccx press LEFT","Inducer instructions",""," ","6","","","","","","","","","","","",""
"","html-keyboard-response","238","304727","0.0-417.0","rq3ouf4v","1512","945","","","","","","","","","","","null","+","Fixation - short","","null","","","","","","","","","","","","",""
"","html-keyboard-response","239","306007","0.0-418.0","rq3ouf4v","1512","945","","","","","","","","","","","1278","yna","Diagnostic trial","","f","6","0","false","false","LEFT","f","1","","LEFT","true","","",""
"","html-keyboard-response","240","306761","0.0-421.0","rq3ouf4v","1512","945","","","","","","","","","","","null","+","Fixation - short","","null","","","","","","","","","","","","",""
"","html-keyboard-response","241","308112","0.0-422.0","rq3ouf4v","1512","945","","","","","","","","","","","1349","ccx","Diagnostic trial","","f","6","1","false","false","LEFT","f","1","","RIGHT","false","","",""
"","html-keyboard-response","242","308863","0.0-425.0","rq3ouf4v","1512","945","","","","","","","","","","","null","+","Fixation - short","","null","","","","","","","","","","","","",""
"","html-keyboard-response","243","309666","0.0-426.0","rq3ouf4v","1512","945","","","","","","","","","","","801","ccx","Diagnostic trial","","j","6","2","false","true","RIGHT","j","1","","RIGHT","true","","",""
"","html-keyboard-response","244","310418","0.0-429.0","rq3ouf4v","1512","945","","","","","","","","","","","null","+","Fixation - short","","null","","","","","","","","","","","","",""
"","html-keyboard-response","245","311296","0.0-430.0","rq3ouf4v","1512","945","","","","","","","","","","","876","yna","Diagnostic trial","","f","6","3","false","false","LEFT","f","1","","LEFT","true","","",""
"","html-keyboard-response","246","312049","0.0-433.0","rq3ouf4v","1512","945","","","","","","","","","","","null","+","Fixation - short","","null","","","","","","","","","","","","",""
"","html-keyboard-response","247","312679","0.0-434.0","rq3ouf4v","1512","945","","","","","","","","","","","628","yna","Diagnostic trial","","j","6","4","false","true","RIGHT","j","1","","LEFT","false","","",""
"","html-keyboard-response","248","313432","0.0-437.0","rq3ouf4v","1512","945","","","","","","","","","","","null","+","Fixation - short","","null","","","","","","","","","","","","",""
"","html-keyboard-response","249","314103","0.0-438.0","rq3ouf4v","1512","945","","","","","","","","","","","668","yna","Diagnostic trial","","f","6","5","false","false","LEFT","f","1","","LEFT","true","","",""
"","html-keyboard-response","250","314855","0.0-441.0","rq3ouf4v","1512","945","","","","","","","","","","","null","+","Fixation - short","","null","","","","","","","","","","","","",""
"","html-keyboard-response","251","315480","0.0-442.0","rq3ouf4v","1512","945","","","","","","","","","","","623","ccx","Diagnostic trial","","f","6","6","false","false","LEFT","f","1","","RIGHT","false","","",""
"","html-keyboard-response","252","316234","0.0-445.0","rq3ouf4v","1512","945","","","","","","","","","","","null","+","Fixation - short","","null","","","","","","","","","","","","",""
"","html-keyboard-response","253","316818","0.0-446.0","rq3ouf4v","1512","945","","","","","","","","","","","582","yna","Diagnostic trial","","f","6","7","false","false","LEFT","f","1","","LEFT","true","","",""
"","html-keyboard-response","254","317570","0.0-449.0","rq3ouf4v","1512","945","","","","","","","","","","","null","+","Fixation - short","","null","","","","","","","","","","","","",""
"","html-keyboard-response","255","319575","0.0-450.0","rq3ouf4v","1512","945","","","","","","","","","","","null","yna","Inducer trial","","null","6","","true","","","j","NaN","RIGHT","","","","",""
"","call-function","256","319576","0.0-451.0-0.0","rq3ouf4v","","","","","","","","","","","","","","","","","","","","","","","","","","","","","",""
"","html-keyboard-response","257","319880","0.0-451.0-1.0","rq3ouf4v","1512","945","","","","","","","","","","","null","Slow","Feedback","","null","","","","","","","","","","","","",""
"","call-function","258","319881","0.0-451.0-2.0","rq3ouf4v","","","","","","","","","","","","","","","","","","","","","","","","","","","","","",""
"","html-keyboard-response","259","321384","0.0-453.0","rq3ouf4v","1512","945","","","","","","","","","","","null","+","Fixation - long","","null","","","","","","","","","","","","",""
"","html-keyboard-response","260","322461","0.0-454.0","rq3ouf4v","1512","945","","","","","","","","","","","1075","If kho press RIGHT | If dij press LEFT","Inducer instructions",""," ","7","","","","","","","","","","","",""
"","html-keyboard-response","261","323213","0.0-455.0","rq3ouf4v","1512","945","","","","","","","","","","","null","+","Fixation - short","","null","","","","","","","","","","","","",""
"","html-keyboard-response","262","324159","0.0-456.0","rq3ouf4v","1512","945","","","","","","","","","","","945","dij","Diagnostic trial","","j","7","0","false","true","RIGHT","j","1","","RIGHT","true","","",""
"","html-keyboard-response","263","324912","0.0-459.0","rq3ouf4v","1512","945","","","","","","","","","","","null","+","Fixation - short","","null","","","","","","","","","","","","",""
"","html-keyboard-response","264","325361","0.0-460.0","rq3ouf4v","1512","945","","","","","","","","","","","448","dij","Diagnostic trial","","j","7","1","false","false","LEFT","f","0","","RIGHT","false","","",""
"","call-function","265","325362","0.0-462.0-0.0","rq3ouf4v","","","","","","","","","","","","","","","","","","","","","","","","","","","","","",""
"","html-keyboard-response","266","325666","0.0-462.0-1.0","rq3ouf4v","1512","945","","","","","","","","","","","null","Wrong","Feedback","","null","","","","","","","","","","","","",""
"","call-function","267","325667","0.0-462.0-2.0","rq3ouf4v","","","","","","","","","","","","","","","","","","","","","","","","","","","","","",""
"","html-keyboard-response","268","326420","0.0-463.0","rq3ouf4v","1512","945","","","","","","","","","","","null","+","Fixation - short","","null","","","","","","","","","","","","",""
"","html-keyboard-response","269","327627","0.0-464.0","rq3ouf4v","1512","945","","","","","","","","","","","1205","kho","Diagnostic trial","","f","7","2","false","false","LEFT","f","1","","LEFT","true","","",""
"","html-keyboard-response","270","328378","0.0-467.0","rq3ouf4v","1512","945","","","","","","","","","","","null","+","Fixation - short","","null","","","","","","","","","","","","",""
"","html-keyboard-response","271","329762","0.0-468.0","rq3ouf4v","1512","945","","","","","","","","","","","1383","dij","Diagnostic trial","","f","7","3","false","false","LEFT","f","1","","RIGHT","false","","",""
"","html-keyboard-response","272","330515","0.0-471.0","rq3ouf4v","1512","945","","","","","","","","","","","null","+","Fixation - short","","null","","","","","","","","","","","","",""
"","html-keyboard-response","273","331103","0.0-472.0","rq3ouf4v","1512","945","","","","","","","","","","","587","kho","Diagnostic trial","","j","7","4","false","true","RIGHT","j","1","","LEFT","false","","",""
"","html-keyboard-response","274","331857","0.0-475.0","rq3ouf4v","1512","945","","","","","","","","","","","null","+","Fixation - short","","null","","","","","","","","","","","","",""
"","html-keyboard-response","275","332941","0.0-476.0","rq3ouf4v","1512","945","","","","","","","","","","","1082","kho","Diagnostic trial","","j","7","5","false","true","RIGHT","j","1","","LEFT","false","","",""
"","html-keyboard-response","276","333693","0.0-479.0","rq3ouf4v","1512","945","","","","","","","","","","","null","+","Fixation - short","","null","","","","","","","","","","","","",""
"","html-keyboard-response","277","334393","0.0-480.0","rq3ouf4v","1512","945","","","","","","","","","","","699","kho","Diagnostic trial","","j","7","6","false","true","RIGHT","j","1","","LEFT","false","","",""
"","html-keyboard-response","278","335146","0.0-483.0","rq3ouf4v","1512","945","","","","","","","","","","","null","+","Fixation - short","","null","","","","","","","","","","","","",""
"","html-keyboard-response","279","336097","0.0-484.0","rq3ouf4v","1512","945","","","","","","","","","","","949","dij","Diagnostic trial","","f","7","7","false","true","RIGHT","j","0","","RIGHT","true","","",""
"","call-function","280","336098","0.0-486.0-0.0","rq3ouf4v","","","","","","","","","","","","","","","","","","","","","","","","","","","","","",""
"","html-keyboard-response","281","336401","0.0-486.0-1.0","rq3ouf4v","1512","945","","","","","","","","","","","null","Wrong","Feedback","","null","","","","","","","","","","","","",""
"","call-function","282","336402","0.0-486.0-2.0","rq3ouf4v","","","","","","","","","","","","","","","","","","","","","","","","","","","","","",""
"","html-keyboard-response","283","337155","0.0-487.0","rq3ouf4v","1512","945","","","","","","","","","","","null","+","Fixation - short","","null","","","","","","","","","","","","",""
"","html-keyboard-response","284","338113","0.0-488.0","rq3ouf4v","1512","945","","","","","","","","","","","956","kho","Diagnostic trial","","f","7","8","false","false","LEFT","f","1","","LEFT","true","","",""
"","html-keyboard-response","285","338865","0.0-491.0","rq3ouf4v","1512","945","","","","","","","","","","","null","+","Fixation - short","","null","","","","","","","","","","","","",""
"","html-keyboard-response","286","339475","0.0-492.0","rq3ouf4v","1512","945","","","","","","","","","","","608","dij","Diagnostic trial","","j","7","9","false","true","RIGHT","j","1","","RIGHT","true","","",""
"","html-keyboard-response","287","340229","0.0-495.0","rq3ouf4v","1512","945","","","","","","","","","","","null","+","Fixation - short","","null","","","","","","","","","","","","",""
"","html-keyboard-response","288","340997","0.0-496.0","rq3ouf4v","1512","945","","","","","","","","","","","767","dij","Diagnostic trial","","j","7","10","false","true","RIGHT","j","1","","RIGHT","true","","",""
"","html-keyboard-response","289","341750","0.0-499.0","rq3ouf4v","1512","945","","","","","","","","","","","null","+","Fixation - short","","null","","","","","","","","","","","","",""
"","html-keyboard-response","290","342633","0.0-500.0","rq3ouf4v","1512","945","","","","","","","","","","","881","kho","Diagnostic trial","","f","7","11","false","false","LEFT","f","1","","LEFT","true","","",""
"","html-keyboard-response","291","343386","0.0-503.0","rq3ouf4v","1512","945","","","","","","","","","","","null","+","Fixation - short","","null","","","","","","","","","","","","",""
"","html-keyboard-response","292","344370","0.0-504.0","rq3ouf4v","1512","945","","","","","","","","","","","982","dij","Diagnostic trial","","f","7","12","false","false","LEFT","f","1","","RIGHT","false","","",""
"","html-keyboard-response","293","345122","0.0-507.0","rq3ouf4v","1512","945","","","","","","","","","","","null","+","Fixation - short","","null","","","","","","","","","","","","",""
"","html-keyboard-response","294","345826","0.0-508.0","rq3ouf4v","1512","945","","","","","","","","","","","701","kho","Diagnostic trial","","f","7","13","false","false","LEFT","f","1","","LEFT","true","","",""
"","html-keyboard-response","295","346579","0.0-511.0","rq3ouf4v","1512","945","","","","","","","","","","","null","+","Fixation - short","","null","","","","","","","","","","","","",""
"","html-keyboard-response","296","347066","0.0-512.0","rq3ouf4v","1512","945","","","","","","","","","","","485","kho","Diagnostic trial","","j","7","14","false","true","RIGHT","j","1","","LEFT","false","","",""
"","html-keyboard-response","297","347820","0.0-515.0","rq3ouf4v","1512","945","","","","","","","","","","","null","+","Fixation - short","","null","","","","","","","","","","","","",""
"","html-keyboard-response","298","349489","0.0-516.0","rq3ouf4v","1512","945","","","","","","","","","","","1668","dij","Inducer trial","","f","7","","true","","","f","1","LEFT","","","","",""
"","html-keyboard-response","299","350992","0.0-519.0","rq3ouf4v","1512","945","","","","","","","","","","","null","+","Fixation - long","","null","","","","","","","","","","","","",""
"","html-keyboard-response","300","353138","0.0-520.0","rq3ouf4v","1512","945","","","","","","","","","","","2144","If mvv press RIGHT | If vpu press LEFT","Inducer instructions",""," ","8","","","","","","","","","","","",""
"","html-keyboard-response","301","353891","0.0-521.0","rq3ouf4v","1512","945","","","","","","","","","","","null","+","Fixation - short","","null","","","","","","","","","","","","",""
"","html-keyboard-response","302","354586","0.0-522.0","rq3ouf4v","1512","945","","","","","","","","","","","694","vpu","Diagnostic trial","","j","8","0","false","true","RIGHT","j","1","","RIGHT","true","","",""
"","html-keyboard-response","303","355339","0.0-525.0","rq3ouf4v","1512","945","","","","","","","","","","","null","+","Fixation - short","","null","","","","","","","","","","","","",""
"","html-keyboard-response","304","356025","0.0-526.0","rq3ouf4v","1512","945","","","","","","","","","","","684","vpu","Diagnostic trial","","j","8","1","false","true","RIGHT","j","1","","RIGHT","true","","",""
"","html-keyboard-response","305","356778","0.0-529.0","rq3ouf4v","1512","945","","","","","","","","","","","null","+","Fixation - short","","null","","","","","","","","","","","","",""
"","html-keyboard-response","306","357279","0.0-530.0","rq3ouf4v","1512","945","","","","","","","","","","","499","mvv","Diagnostic trial","","j","8","2","false","true","RIGHT","j","1","","LEFT","false","","",""
"","html-keyboard-response","307","358032","0.0-533.0","rq3ouf4v","1512","945","","","","","","","","","","","null","+","Fixation - short","","null","","","","","","","","","","","","",""
"","html-keyboard-response","308","358529","0.0-534.0","rq3ouf4v","1512","945","","","","","","","","","","","496","mvv","Diagnostic trial","","j","8","3","false","true","RIGHT","j","1","","LEFT","false","","",""
"","html-keyboard-response","309","359281","0.0-537.0","rq3ouf4v","1512","945","","","","","","","","","","","null","+","Fixation - short","","null","","","","","","","","","","","","",""
"","html-keyboard-response","310","359677","0.0-538.0","rq3ouf4v","1512","945","","","","","","","","","","","394","mvv","Diagnostic trial","","j","8","4","false","false","LEFT","f","0","","LEFT","true","","",""
"","call-function","311","359677","0.0-540.0-0.0","rq3ouf4v","","","","","","","","","","","","","","","","","","","","","","","","","","","","","",""
"","html-keyboard-response","312","359979","0.0-540.0-1.0","rq3ouf4v","1512","945","","","","","","","","","","","null","Wrong","Feedback","","null","","","","","","","","","","","","",""
"","call-function","313","359980","0.0-540.0-2.0","rq3ouf4v","","","","","","","","","","","","","","","","","","","","","","","","","","","","","",""
"","html-keyboard-response","314","360732","0.0-541.0","rq3ouf4v","1512","945","","","","","","","","","","","null","+","Fixation - short","","null","","","","","","","","","","","","",""
"","html-keyboard-response","315","361409","0.0-542.0","rq3ouf4v","1512","945","","","","","","","","","","","675","vpu","Diagnostic trial","","j","8","5","false","true","RIGHT","j","1","","RIGHT","true","","",""
"","html-keyboard-response","316","362162","0.0-545.0","rq3ouf4v","1512","945","","","","","","","","","","","null","+","Fixation - short","","null","","","","","","","","","","","","",""
"","html-keyboard-response","317","363225","0.0-546.0","rq3ouf4v","1512","945","","","","","","","","","","","1060","mvv","Diagnostic trial","","j","8","6","false","true","RIGHT","j","1","","LEFT","false","","",""
"","html-keyboard-response","318","363978","0.0-549.0","rq3ouf4v","1512","945","","","","","","","","","","","null","+","Fixation - short","","null","","","","","","","","","","","","",""
"","html-keyboard-response","319","365118","0.0-550.0","rq3ouf4v","1512","945","","","","","","","","","","","1138","vpu","Diagnostic trial","","j","8","7","false","true","RIGHT","j","1","","RIGHT","true","","",""
"","html-keyboard-response","320","365871","0.0-553.0","rq3ouf4v","1512","945","","","","","","","","","","","null","+","Fixation - short","","null","","","","","","","","","","","","",""
"","html-keyboard-response","321","366547","0.0-554.0","rq3ouf4v","1512","945","","","","","","","","","","","674","mvv","Diagnostic trial","","j","8","8","false","true","RIGHT","j","1","","LEFT","false","","",""
"","html-keyboard-response","322","367298","0.0-557.0","rq3ouf4v","1512","945","","","","","","","","","","","null","+","Fixation - short","","null","","","","","","","","","","","","",""
"","html-keyboard-response","323","367944","0.0-558.0","rq3ouf4v","1512","945","","","","","","","","","","","644","mvv","Diagnostic trial","","f","8","9","false","false","LEFT","f","1","","LEFT","true","","",""
"","html-keyboard-response","324","368698","0.0-561.0","rq3ouf4v","1512","945","","","","","","","","","","","null","+","Fixation - short","","null","","","","","","","","","","","","",""
"","html-keyboard-response","325","370039","0.0-562.0","rq3ouf4v","1512","945","","","","","","","","","","","1339","mvv","Inducer trial","","j","8","","true","","","j","1","RIGHT","","","","",""
"","html-keyboard-response","326","371544","0.0-565.0","rq3ouf4v","1512","945","","","","","","","","","","","null","+","Fixation - long","","null","","","","","","","","","","","","",""
"","html-keyboard-response","327","373393","0.0-566.0","rq3ouf4v","1512","945","","","","","","","","","","","1847","If tkb press RIGHT | If faq press LEFT","Inducer instructions",""," ","9","","","","","","","","","","","",""
"","html-keyboard-response","328","374144","0.0-567.0","rq3ouf4v","1512","945","","","","","","","","","","","null","+","Fixation - short","","null","","","","","","","","","","","","",""
"","html-keyboard-response","329","374834","0.0-568.0","rq3ouf4v","1512","945","","","","","","","","","","","688","faq","Diagnostic trial","","j","9","0","false","true","RIGHT","j","1","","RIGHT","true","","",""
"","html-keyboard-response","330","375586","0.0-571.0","rq3ouf4v","1512","945","","","","","","","","","","","null","+","Fixation - short","","null","","","","","","","","","","","","",""
"","html-keyboard-response","331","376448","0.0-572.0","rq3ouf4v","1512","945","","","","","","","","","","","861","tkb","Diagnostic trial","","j","9","1","false","true","RIGHT","j","1","","LEFT","false","","",""
"","html-keyboard-response","332","377201","0.0-575.0","rq3ouf4v","1512","945","","","","","","","","","","","null","+","Fixation - short","","null","","","","","","","","","","","","",""
"","html-keyboard-response","333","377704","0.0-576.0","rq3ouf4v","1512","945","","","","","","","","","","","501","faq","Diagnostic trial","","j","9","2","false","true","RIGHT","j","1","","RIGHT","true","","",""
"","html-keyboard-response","334","378457","0.0-579.0","rq3ouf4v","1512","945","","","","","","","","","","","null","+","Fixation - short","","null","","","","","","","","","","","","",""
"","html-keyboard-response","335","379228","0.0-580.0","rq3ouf4v","1512","945","","","","","","","","","","","769","faq","Diagnostic trial","","f","9","3","false","false","LEFT","f","1","","RIGHT","false","","",""
"","html-keyboard-response","336","379981","0.0-583.0","rq3ouf4v","1512","945","","","","","","","","","","","null","+","Fixation - short","","null","","","","","","","","","","","","",""
"","html-keyboard-response","337","380771","0.0-584.0","rq3ouf4v","1512","945","","","","","","","","","","","788","tkb","Diagnostic trial","","f","9","4","false","false","LEFT","f","1","","LEFT","true","","",""
"","html-keyboard-response","338","381525","0.0-587.0","rq3ouf4v","1512","945","","","","","","","","","","","null","+","Fixation - short","","null","","","","","","","","","","","","",""
"","html-keyboard-response","339","382071","0.0-588.0","rq3ouf4v","1512","945","","","","","","","","","","","545","tkb","Diagnostic trial","","j","9","5","false","true","RIGHT","j","1","","LEFT","false","","",""
"","html-keyboard-response","340","382825","0.0-591.0","rq3ouf4v","1512","945","","","","","","","","","","","null","+","Fixation - short","","null","","","","","","","","","","","","",""
"","html-keyboard-response","341","383573","0.0-592.0","rq3ouf4v","1512","945","","","","","","","","","","","747","tkb","Diagnostic trial","","f","9","6","false","false","LEFT","f","1","","LEFT","true","","",""
"","html-keyboard-response","342","384327","0.0-595.0","rq3ouf4v","1512","945","","","","","","","","","","","null","+","Fixation - short","","null","","","","","","","","","","","","",""
"","html-keyboard-response","343","384989","0.0-596.0","rq3ouf4v","1512","945","","","","","","","","","","","661","faq","Diagnostic trial","","f","9","7","false","false","LEFT","f","1","","RIGHT","false","","",""
"","html-keyboard-response","344","385743","0.0-599.0","rq3ouf4v","1512","945","","","","","","","","","","","null","+","Fixation - short","","null","","","","","","","","","","","","",""
"","html-keyboard-response","345","386278","0.0-600.0","rq3ouf4v","1512","945","","","","","","","","","","","534","faq","Diagnostic trial","","f","9","8","false","false","LEFT","f","1","","RIGHT","false","","",""
"","html-keyboard-response","346","387032","0.0-603.0","rq3ouf4v","1512","945","","","","","","","","","","","null","+","Fixation - short","","null","","","","","","","","","","","","",""
"","html-keyboard-response","347","387569","0.0-604.0","rq3ouf4v","1512","945","","","","","","","","","","","535","faq","Diagnostic trial","","j","9","9","false","true","RIGHT","j","1","","RIGHT","true","","",""
"","html-keyboard-response","348","388323","0.0-607.0","rq3ouf4v","1512","945","","","","","","","","","","","null","+","Fixation - short","","null","","","","","","","","","","","","",""
"","html-keyboard-response","349","388941","0.0-608.0","rq3ouf4v","1512","945","","","","","","","","","","","616","faq","Diagnostic trial","","j","9","10","false","true","RIGHT","j","1","","RIGHT","true","","",""
"","html-keyboard-response","350","389693","0.0-611.0","rq3ouf4v","1512","945","","","","","","","","","","","null","+","Fixation - short","","null","","","","","","","","","","","","",""
"","html-keyboard-response","351","390694","0.0-612.0","rq3ouf4v","1512","945","","","","","","","","","","","1000","faq","Diagnostic trial","","f","9","11","false","false","LEFT","f","1","","RIGHT","false","","",""
"","html-keyboard-response","352","391447","0.0-615.0","rq3ouf4v","1512","945","","","","","","","","","","","null","+","Fixation - short","","null","","","","","","","","","","","","",""
"","html-keyboard-response","353","392658","0.0-616.0","rq3ouf4v","1512","945","","","","","","","","","","","1209","faq","Inducer trial","","f","9","","true","","","f","1","LEFT","","","","",""
"","html-keyboard-response","354","394162","0.0-619.0","rq3ouf4v","1512","945","","","","","","","","","","","null","+","Fixation - long","","null","","","","","","","","","","","","",""
"","html-keyboard-response","355","395391","0.0-620.0","rq3ouf4v","1512","945","","","","","","","","","","","1227","If jcr press RIGHT | If wab press LEFT","Inducer instructions",""," ","10","","","","","","","","","","","",""
"","html-keyboard-response","356","396143","0.0-621.0","rq3ouf4v","1512","945","","","","","","","","","","","null","+","Fixation - short","","null","","","","","","","","","","","","",""
"","html-keyboard-response","357","396750","0.0-622.0","rq3ouf4v","1512","945","","","","","","","","","","","605","jcr","Diagnostic trial","","f","10","0","false","false","LEFT","f","1","","LEFT","true","","",""
"","html-keyboard-response","358","397503","0.0-625.0","rq3ouf4v","1512","945","","","","","","","","","","","null","+","Fixation - short","","null","","","","","","","","","","","","",""
"","html-keyboard-response","359","398177","0.0-626.0","rq3ouf4v","1512","945","","","","","","","","","","","673","wab","Diagnostic trial","","j","10","1","false","true","RIGHT","j","1","","RIGHT","true","","",""
"","html-keyboard-response","360","398930","0.0-629.0","rq3ouf4v","1512","945","","","","","","","","","","","null","+","Fixation - short","","null","","","","","","","","","","","","",""
"","html-keyboard-response","361","399721","0.0-630.0","rq3ouf4v","1512","945","","","","","","","","","","","789","wab","Diagnostic trial","","j","10","2","false","true","RIGHT","j","1","","RIGHT","true","","",""
"","html-keyboard-response","362","400473","0.0-633.0","rq3ouf4v","1512","945","","","","","","","","","","","null","+","Fixation - short","","null","","","","","","","","","","","","",""
"","html-keyboard-response","363","401403","0.0-634.0","rq3ouf4v","1512","945","","","","","","","","","","","929","jcr","Diagnostic trial","","f","10","3","false","false","LEFT","f","1","","LEFT","true","","",""
"","html-keyboard-response","364","402155","0.0-637.0","rq3ouf4v","1512","945","","","","","","","","","","","null","+","Fixation - short","","null","","","","","","","","","","","","",""
"","html-keyboard-response","365","402838","0.0-638.0","rq3ouf4v","1512","945","","","","","","","","","","","681","wab","Diagnostic trial","","j","10","4","false","true","RIGHT","j","1","","RIGHT","true","","",""
"","html-keyboard-response","366","403591","0.0-641.0","rq3ouf4v","1512","945","","","","","","","","","","","null","+","Fixation - short","","null","","","","","","","","","","","","",""
"","html-keyboard-response","367","404331","0.0-642.0","rq3ouf4v","1512","945","","","","","","","","","","","738","jcr","Diagnostic trial","","j","10","5","false","true","RIGHT","j","1","","LEFT","false","","",""
"","html-keyboard-response","368","405085","0.0-645.0","rq3ouf4v","1512","945","","","","","","","","","","","null","+","Fixation - short","","null","","","","","","","","","","","","",""
"","html-keyboard-response","369","405712","0.0-646.0","rq3ouf4v","1512","945","","","","","","","","","","","625","jcr","Diagnostic trial","","j","10","6","false","true","RIGHT","j","1","","LEFT","false","","",""
"","html-keyboard-response","370","406464","0.0-649.0","rq3ouf4v","1512","945","","","","","","","","","","","null","+","Fixation - short","","null","","","","","","","","","","","","",""
"","html-keyboard-response","371","407222","0.0-650.0","rq3ouf4v","1512","945","","","","","","","","","","","756","wab","Diagnostic trial","","f","10","7","false","false","LEFT","f","1","","RIGHT","false","","",""
"","html-keyboard-response","372","407976","0.0-653.0","rq3ouf4v","1512","945","","","","","","","","","","","null","+","Fixation - short","","null","","","","","","","","","","","","",""
"","html-keyboard-response","373","408772","0.0-654.0","rq3ouf4v","1512","945","","","","","","","","","","","795","jcr","Diagnostic trial","","f","10","8","false","false","LEFT","f","1","","LEFT","true","","",""
"","html-keyboard-response","374","409525","0.0-657.0","rq3ouf4v","1512","945","","","","","","","","","","","null","+","Fixation - short","","null","","","","","","","","","","","","",""
"","html-keyboard-response","375","410138","0.0-658.0","rq3ouf4v","1512","945","","","","","","","","","","","611","jcr","Diagnostic trial","","j","10","9","false","true","RIGHT","j","1","","LEFT","false","","",""
"","html-keyboard-response","376","410890","0.0-661.0","rq3ouf4v","1512","945","","","","","","","","","","","null","+","Fixation - short","","null","","","","","","","","","","","","",""
"","html-keyboard-response","377","411515","0.0-662.0","rq3ouf4v","1512","945","","","","","","","","","","","623","jcr","Diagnostic trial","","f","10","10","false","false","LEFT","f","1","","LEFT","true","","",""
"","html-keyboard-response","378","412268","0.0-665.0","rq3ouf4v","1512","945","","","","","","","","","","","null","+","Fixation - short","","null","","","","","","","","","","","","",""
"","html-keyboard-response","379","412928","0.0-666.0","rq3ouf4v","1512","945","","","","","","","","","","","659","wab","Diagnostic trial","","j","10","11","false","true","RIGHT","j","1","","RIGHT","true","","",""
"","html-keyboard-response","380","413681","0.0-669.0","rq3ouf4v","1512","945","","","","","","","","","","","null","+","Fixation - short","","null","","","","","","","","","","","","",""
"","html-keyboard-response","381","414493","0.0-670.0","rq3ouf4v","1512","945","","","","","","","","","","","810","jcr","Diagnostic trial","","f","10","12","false","false","LEFT","f","1","","LEFT","true","","",""
"","html-keyboard-response","382","415246","0.0-673.0","rq3ouf4v","1512","945","","","","","","","","","","","null","+","Fixation - short","","null","","","","","","","","","","","","",""
"","html-keyboard-response","383","415814","0.0-674.0","rq3ouf4v","1512","945","","","","","","","","","","","567","wab","Diagnostic trial","","j","10","13","false","true","RIGHT","j","1","","RIGHT","true","","",""
"","html-keyboard-response","384","416566","0.0-677.0","rq3ouf4v","1512","945","","","","","","","","","","","null","+","Fixation - short","","null","","","","","","","","","","","","",""
"","html-keyboard-response","385","417634","0.0-678.0","rq3ouf4v","1512","945","","","","","","","","","","","1066","jcr","Inducer trial","","j","10","","true","","","j","1","RIGHT","","","","",""
"","html-keyboard-response","386","419137","0.0-681.0","rq3ouf4v","1512","945","","","","","","","","","","","null","+","Fixation - long","","null","","","","","","","","","","","","",""
"","html-keyboard-response","387","420140","0.0-682.0","rq3ouf4v","1512","945","","","","","","","","","","","1001","If cpt press RIGHT | If amb press LEFT","Inducer instructions",""," ","11","","","","","","","","","","","",""
"","html-keyboard-response","388","420893","0.0-683.0","rq3ouf4v","1512","945","","","","","","","","","","","null","+","Fixation - short","","null","","","","","","","","","","","","",""
"","html-keyboard-response","389","421795","0.0-684.0","rq3ouf4v","1512","945","","","","","","","","","","","901","cpt","Diagnostic trial","","j","11","0","false","true","RIGHT","j","1","","LEFT","false","","",""
"","html-keyboard-response","390","422548","0.0-687.0","rq3ouf4v","1512","945","","","","","","","","","","","null","+","Fixation - short","","null","","","","","","","","","","","","",""
"","html-keyboard-response","391","423152","0.0-688.0","rq3ouf4v","1512","945","","","","","","","","","","","603","cpt","Diagnostic trial","","j","11","1","false","true","RIGHT","j","1","","LEFT","false","","",""
"","html-keyboard-response","392","423904","0.0-691.0","rq3ouf4v","1512","945","","","","","","","","","","","null","+","Fixation - short","","null","","","","","","","","","","","","",""
"","html-keyboard-response","393","424560","0.0-692.0","rq3ouf4v","1512","945","","","","","","","","","","","654","cpt","Diagnostic trial","","f","11","2","false","false","LEFT","f","1","","LEFT","true","","",""
"","html-keyboard-response","394","425313","0.0-695.0","rq3ouf4v","1512","945","","","","","","","","","","","null","+","Fixation - short","","null","","","","","","","","","","","","",""
"","html-keyboard-response","395","426447","0.0-696.0","rq3ouf4v","1512","945","","","","","","","","","","","1133","amb","Diagnostic trial","","f","11","3","false","false","LEFT","f","1","","RIGHT","false","","",""
"","html-keyboard-response","396","427200","0.0-699.0","rq3ouf4v","1512","945","","","","","","","","","","","null","+","Fixation - short","","null","","","","","","","","","","","","",""
"","html-keyboard-response","397","427668","0.0-700.0","rq3ouf4v","1512","945","","","","","","","","","","","467","amb","Diagnostic trial","","j","11","4","false","true","RIGHT","j","1","","RIGHT","true","","",""
"","html-keyboard-response","398","428420","0.0-703.0","rq3ouf4v","1512","945","","","","","","","","","","","null","+","Fixation - short","","null","","","","","","","","","","","","",""
"","html-keyboard-response","399","428999","0.0-704.0","rq3ouf4v","1512","945","","","","","","","","","","","577","cpt","Diagnostic trial","","f","11","5","false","false","LEFT","f","1","","LEFT","true","","",""
"","html-keyboard-response","400","429751","0.0-707.0","rq3ouf4v","1512","945","","","","","","","","","","","null","+","Fixation - short","","null","","","","","","","","","","","","",""
"","html-keyboard-response","401","430547","0.0-708.0","rq3ouf4v","1512","945","","","","","","","","","","","794","amb","Diagnostic trial","","j","11","6","false","true","RIGHT","j","1","","RIGHT","true","","",""
"","html-keyboard-response","402","431301","0.0-711.0","rq3ouf4v","1512","945","","","","","","","","","","","null","+","Fixation - short","","null","","","","","","","","","","","","",""
"","html-keyboard-response","403","432018","0.0-712.0","rq3ouf4v","1512","945","","","","","","","","","","","716","amb","Diagnostic trial","","j","11","7","false","true","RIGHT","j","1","","RIGHT","true","","",""
"","html-keyboard-response","404","432771","0.0-715.0","rq3ouf4v","1512","945","","","","","","","","","","","null","+","Fixation - short","","null","","","","","","","","","","","","",""
"","html-keyboard-response","405","433310","0.0-716.0","rq3ouf4v","1512","945","","","","","","","","","","","538","amb","Diagnostic trial","","f","11","8","false","false","LEFT","f","1","","RIGHT","false","","",""
"","html-keyboard-response","406","434062","0.0-719.0","rq3ouf4v","1512","945","","","","","","","","","","","null","+","Fixation - short","","null","","","","","","","","","","","","",""
"","html-keyboard-response","407","434810","0.0-720.0","rq3ouf4v","1512","945","","","","","","","","","","","745","cpt","Diagnostic trial","","j","11","9","false","true","RIGHT","j","1","","LEFT","false","","",""
"","html-keyboard-response","408","435563","0.0-723.0","rq3ouf4v","1512","945","","","","","","","","","","","null","+","Fixation - short","","null","","","","","","","","","","","","",""
"","html-keyboard-response","409","436287","0.0-724.0","rq3ouf4v","1512","945","","","","","","","","","","","723","cpt","Inducer trial","","j","11","","true","","","j","1","RIGHT","","","","",""
"","html-keyboard-response","410","437789","0.0-727.0","rq3ouf4v","1512","945","","","","","","","","","","","null","+","Fixation - long","","null","","","","","","","","","","","","",""
"","html-keyboard-response","411","438670","0.0-728.0","rq3ouf4v","1512","945","","","","","","","","","","","879","If vbt press RIGHT | If ume press LEFT","Inducer instructions",""," ","12","","","","","","","","","","","",""
"","html-keyboard-response","412","439422","0.0-729.0","rq3ouf4v","1512","945","","","","","","","","","","","null","+","Fixation - short","","null","","","","","","","","","","","","",""
"","html-keyboard-response","413","440342","0.0-730.0","rq3ouf4v","1512","945","","","","","","","","","","","918","vbt","Diagnostic trial","","j","12","0","false","false","LEFT","f","0","","LEFT","true","","",""
"","call-function","414","440342","0.0-732.0-0.0","rq3ouf4v","","","","","","","","","","","","","","","","","","","","","","","","","","","","","",""
"","html-keyboard-response","415","440645","0.0-732.0-1.0","rq3ouf4v","1512","945","","","","","","","","","","","null","Wrong","Feedback","","null","","","","","","","","","","","","",""
"","call-function","416","440646","0.0-732.0-2.0","rq3ouf4v","","","","","","","","","","","","","","","","","","","","","","","","","","","","","",""
"","html-keyboard-response","417","441399","0.0-733.0","rq3ouf4v","1512","945","","","","","","","","","","","null","+","Fixation - short","","null","","","","","","","","","","","","",""
"","html-keyboard-response","418","442258","0.0-734.0","rq3ouf4v","1512","945","","","","","","","","","","","858","ume","Diagnostic trial","","f","12","1","false","false","LEFT","f","1","","RIGHT","false","","",""
"","html-keyboard-response","419","443012","0.0-737.0","rq3ouf4v","1512","945","","","","","","","","","","","null","+","Fixation - short","","null","","","","","","","","","","","","",""
"","html-keyboard-response","420","443540","0.0-738.0","rq3ouf4v","1512","945","","","","","","","","","","","525","ume","Diagnostic trial","","f","12","2","false","false","LEFT","f","1","","RIGHT","false","","",""
"","html-keyboard-response","421","444294","0.0-741.0","rq3ouf4v","1512","945","","","","","","","","","","","null","+","Fixation - short","","null","","","","","","","","","","","","",""
"","html-keyboard-response","422","444939","0.0-742.0","rq3ouf4v","1512","945","","","","","","","","","","","644","ume","Diagnostic trial","","j","12","3","false","true","RIGHT","j","1","","RIGHT","true","","",""
"","html-keyboard-response","423","445693","0.0-745.0","rq3ouf4v","1512","945","","","","","","","","","","","null","+","Fixation - short","","null","","","","","","","","","","","","",""
"","html-keyboard-response","424","446337","0.0-746.0","rq3ouf4v","1512","945","","","","","","","","","","","642","vbt","Diagnostic trial","","j","12","4","false","true","RIGHT","j","1","","LEFT","false","","",""
"","html-keyboard-response","425","447089","0.0-749.0","rq3ouf4v","1512","945","","","","","","","","","","","null","+","Fixation - short","","null","","","","","","","","","","","","",""
"","html-keyboard-response","426","447890","0.0-750.0","rq3ouf4v","1512","945","","","","","","","","","","","800","ume","Diagnostic trial","","j","12","5","false","true","RIGHT","j","1","","RIGHT","true","","",""
"","html-keyboard-response","427","448644","0.0-753.0","rq3ouf4v","1512","945","","","","","","","","","","","null","+","Fixation - short","","null","","","","","","","","","","","","",""
"","html-keyboard-response","428","449384","0.0-754.0","rq3ouf4v","1512","945","","","","","","","","","","","739","vbt","Diagnostic trial","","f","12","6","false","false","LEFT","f","1","","LEFT","true","","",""
"","html-keyboard-response","429","450137","0.0-757.0","rq3ouf4v","1512","945","","","","","","","","","","","null","+","Fixation - short","","null","","","","","","","","","","","","",""
"","html-keyboard-response","430","450674","0.0-758.0","rq3ouf4v","1512","945","","","","","","","","","","","535","vbt","Diagnostic trial","","f","12","7","false","false","LEFT","f","1","","LEFT","true","","",""
"","html-keyboard-response","431","451427","0.0-761.0","rq3ouf4v","1512","945","","","","","","","","","","","null","+","Fixation - short","","null","","","","","","","","","","","","",""
"","html-keyboard-response","432","452104","0.0-762.0","rq3ouf4v","1512","945","","","","","","","","","","","676","vbt","Diagnostic trial","","j","12","8","false","true","RIGHT","j","1","","LEFT","false","","",""
"","html-keyboard-response","433","452856","0.0-765.0","rq3ouf4v","1512","945","","","","","","","","","","","null","+","Fixation - short","","null","","","","","","","","","","","","",""
"","html-keyboard-response","434","453921","0.0-766.0","rq3ouf4v","1512","945","","","","","","","","","","","1063","ume","Diagnostic trial","","j","12","9","false","true","RIGHT","j","1","","RIGHT","true","","",""
"","html-keyboard-response","435","454673","0.0-769.0","rq3ouf4v","1512","945","","","","","","","","","","","null","+","Fixation - short","","null","","","","","","","","","","","","",""
"","html-keyboard-response","436","455507","0.0-770.0","rq3ouf4v","1512","945","","","","","","","","","","","831","ume","Diagnostic trial","","f","12","10","false","false","LEFT","f","1","","RIGHT","false","","",""
"","html-keyboard-response","437","456261","0.0-773.0","rq3ouf4v","1512","945","","","","","","","","","","","null","+","Fixation - short","","null","","","","","","","","","","","","",""
"","html-keyboard-response","438","456943","0.0-774.0","rq3ouf4v","1512","945","","","","","","","","","","","680","ume","Diagnostic trial","","j","12","11","false","true","RIGHT","j","1","","RIGHT","true","","",""
"","html-keyboard-response","439","457696","0.0-777.0","rq3ouf4v","1512","945","","","","","","","","","","","null","+","Fixation - short","","null","","","","","","","","","","","","",""
"","html-keyboard-response","440","458315","0.0-778.0","rq3ouf4v","1512","945","","","","","","","","","","","618","ume","Diagnostic trial","","j","12","12","false","true","RIGHT","j","1","","RIGHT","true","","",""
"","html-keyboard-response","441","459067","0.0-781.0","rq3ouf4v","1512","945","","","","","","","","","","","null","+","Fixation - short","","null","","","","","","","","","","","","",""
"","html-keyboard-response","442","459749","0.0-782.0","rq3ouf4v","1512","945","","","","","","","","","","","681","ume","Diagnostic trial","","f","12","13","false","false","LEFT","f","1","","RIGHT","false","","",""
"","html-keyboard-response","443","460502","0.0-785.0","rq3ouf4v","1512","945","","","","","","","","","","","null","+","Fixation - short","","null","","","","","","","","","","","","",""
"","html-keyboard-response","444","461289","0.0-786.0","rq3ouf4v","1512","945","","","","","","","","","","","785","vbt","Diagnostic trial","","f","12","14","false","false","LEFT","f","1","","LEFT","true","","",""
"","html-keyboard-response","445","462041","0.0-789.0","rq3ouf4v","1512","945","","","","","","","","","","","null","+","Fixation - short","","null","","","","","","","","","","","","",""
"","html-keyboard-response","446","463056","0.0-790.0","rq3ouf4v","1512","945","","","","","","","","","","","1014","vbt","Inducer trial","","j","12","","true","","","j","1","RIGHT","","","","",""
"","html-keyboard-response","447","464560","0.0-793.0","rq3ouf4v","1512","945","","","","","","","","","","","null","+","Fixation - long","","null","","","","","","","","","","","","",""
"","html-keyboard-response","448","466942","0.0-794.0","rq3ouf4v","1512","945","","","","","","","","","","","2380","If jil press RIGHT | If ois press LEFT","Inducer instructions",""," ","13","","","","","","","","","","","",""
"","html-keyboard-response","449","467695","0.0-795.0","rq3ouf4v","1512","945","","","","","","","","","","","null","+","Fixation - short","","null","","","","","","","","","","","","",""
"","html-keyboard-response","450","468979","0.0-796.0","rq3ouf4v","1512","945","","","","","","","","","","","1282","ois","Diagnostic trial","","j","13","0","false","true","RIGHT","j","1","","RIGHT","true","","",""
"","html-keyboard-response","451","469731","0.0-799.0","rq3ouf4v","1512","945","","","","","","","","","","","null","+","Fixation - short","","null","","","","","","","","","","","","",""
"","html-keyboard-response","452","470620","0.0-800.0","rq3ouf4v","1512","945","","","","","","","","","","","887","jil","Diagnostic trial","","f","13","1","false","false","LEFT","f","1","","LEFT","true","","",""
"","html-keyboard-response","453","471373","0.0-803.0","rq3ouf4v","1512","945","","","","","","","","","","","null","+","Fixation - short","","null","","","","","","","","","","","","",""
"","html-keyboard-response","454","472382","0.0-804.0","rq3ouf4v","1512","945","","","","","","","","","","","1008","jil","Diagnostic trial","","j","13","2","false","true","RIGHT","j","1","","LEFT","false","","",""
"","html-keyboard-response","455","473135","0.0-807.0","rq3ouf4v","1512","945","","","","","","","","","","","null","+","Fixation - short","","null","","","","","","","","","","","","",""
"","html-keyboard-response","456","474317","0.0-808.0","rq3ouf4v","1512","945","","","","","","","","","","","1181","ois","Diagnostic trial","","f","13","3","false","false","LEFT","f","1","","RIGHT","false","","",""
"","html-keyboard-response","457","475069","0.0-811.0","rq3ouf4v","1512","945","","","","","","","","","","","null","+","Fixation - short","","null","","","","","","","","","","","","",""
"","html-keyboard-response","458","475721","0.0-812.0","rq3ouf4v","1512","945","","","","","","","","","","","651","ois","Diagnostic trial","","j","13","4","false","true","RIGHT","j","1","","RIGHT","true","","",""
"","html-keyboard-response","459","476475","0.0-815.0","rq3ouf4v","1512","945","","","","","","","","","","","null","+","Fixation - short","","null","","","","","","","","","","","","",""
"","html-keyboard-response","460","477359","0.0-816.0","rq3ouf4v","1512","945","","","","","","","","","","","883","jil","Diagnostic trial","","f","13","5","false","false","LEFT","f","1","","LEFT","true","","",""
"","html-keyboard-response","461","478111","0.0-819.0","rq3ouf4v","1512","945","","","","","","","","","","","null","+","Fixation - short","","null","","","","","","","","","","","","",""
"","html-keyboard-response","462","478788","0.0-820.0","rq3ouf4v","1512","945","","","","","","","","","","","676","ois","Diagnostic trial","","j","13","6","false","true","RIGHT","j","1","","RIGHT","true","","",""
"","html-keyboard-response","463","479541","0.0-823.0","rq3ouf4v","1512","945","","","","","","","","","","","null","+","Fixation - short","","null","","","","","","","","","","","","",""
"","html-keyboard-response","464","480628","0.0-824.0","rq3ouf4v","1512","945","","","","","","","","","","","1085","ois","Inducer trial","","j","13","","true","","","f","0","LEFT","","","","",""
"","call-function","465","480629","0.0-826.0-0.0","rq3ouf4v","","","","","","","","","","","","","","","","","","","","","","","","","","","","","",""
"","html-keyboard-response","466","480932","0.0-826.0-1.0","rq3ouf4v","1512","945","","","","","","","","","","","null","Wrong","Feedback","","null","","","","","","","","","","","","",""
"","call-function","467","480933","0.0-826.0-2.0","rq3ouf4v","","","","","","","","","","","","","","","","","","","","","","","","","","","","","",""
"","html-keyboard-response","468","482436","0.0-827.0","rq3ouf4v","1512","945","","","","","","","","","","","null","+","Fixation - long","","null","","","","","","","","","","","","",""
"","html-keyboard-response","469","488108","0.0-828.0","rq3ouf4v","1512","945","","","","","","","","","","","5671","If byy press RIGHT | If psl press LEFT","Inducer instructions",""," ","14","","","","","","","","","","","",""
"","html-keyboard-response","470","488861","0.0-829.0","rq3ouf4v","1512","945","","","","","","","","","","","null","+","Fixation - short","","null","","","","","","","","","","","","",""
"","html-keyboard-response","471","489377","0.0-830.0","rq3ouf4v","1512","945","","","","","","","","","","","515","psl","Diagnostic trial","","j","14","0","false","true","RIGHT","j","1","","RIGHT","true","","",""
"","html-keyboard-response","472","490130","0.0-833.0","rq3ouf4v","1512","945","","","","","","","","","","","null","+","Fixation - short","","null","","","","","","","","","","","","",""
"","html-keyboard-response","473","490798","0.0-834.0","rq3ouf4v","1512","945","","","","","","","","","","","667","byy","Diagnostic trial","","j","14","1","false","true","RIGHT","j","1","","LEFT","false","","",""
"","html-keyboard-response","474","491553","0.0-837.0","rq3ouf4v","1512","945","","","","","","","","","","","null","+","Fixation - short","","null","","","","","","","","","","","","",""
"","html-keyboard-response","475","492063","0.0-838.0","rq3ouf4v","1512","945","","","","","","","","","","","507","psl","Diagnostic trial","","f","14","2","false","false","LEFT","f","1","","RIGHT","false","","",""
"","html-keyboard-response","476","492816","0.0-841.0","rq3ouf4v","1512","945","","","","","","","","","","","null","+","Fixation - short","","null","","","","","","","","","","","","",""
"","html-keyboard-response","477","493936","0.0-842.0","rq3ouf4v","1512","945","","","","","","","","","","","1119","byy","Diagnostic trial","","f","14","3","false","false","LEFT","f","1","","LEFT","true","","",""
"","html-keyboard-response","478","494689","0.0-845.0","rq3ouf4v","1512","945","","","","","","","","","","","null","+","Fixation - short","","null","","","","","","","","","","","","",""
"","html-keyboard-response","479","495163","0.0-846.0","rq3ouf4v","1512","945","","","","","","","","","","","472","psl","Diagnostic trial","","j","14","4","false","true","RIGHT","j","1","","RIGHT","true","","",""
"","html-keyboard-response","480","495916","0.0-849.0","rq3ouf4v","1512","945","","","","","","","","","","","null","+","Fixation - short","","null","","","","","","","","","","","","",""
"","html-keyboard-response","481","497044","0.0-850.0","rq3ouf4v","1512","945","","","","","","","","","","","1127","psl","Diagnostic trial","","f","14","5","false","false","LEFT","f","1","","RIGHT","false","","",""
"","html-keyboard-response","482","497797","0.0-853.0","rq3ouf4v","1512","945","","","","","","","","","","","null","+","Fixation - short","","null","","","","","","","","","","","","",""
"","html-keyboard-response","483","498461","0.0-854.0","rq3ouf4v","1512","945","","","","","","","","","","","663","byy","Diagnostic trial","","f","14","6","false","false","LEFT","f","1","","LEFT","true","","",""
"","html-keyboard-response","484","499213","0.0-857.0","rq3ouf4v","1512","945","","","","","","","","","","","null","+","Fixation - short","","null","","","","","","","","","","","","",""
"","html-keyboard-response","485","499873","0.0-858.0","rq3ouf4v","1512","945","","","","","","","","","","","658","psl","Diagnostic trial","","f","14","7","false","false","LEFT","f","1","","RIGHT","false","","",""
"","html-keyboard-response","486","500627","0.0-861.0","rq3ouf4v","1512","945","","","","","","","","","","","null","+","Fixation - short","","null","","","","","","","","","","","","",""
"","html-keyboard-response","487","501140","0.0-862.0","rq3ouf4v","1512","945","","","","","","","","","","","511","psl","Diagnostic trial","","j","14","8","false","true","RIGHT","j","1","","RIGHT","true","","",""
"","html-keyboard-response","488","501893","0.0-865.0","rq3ouf4v","1512","945","","","","","","","","","","","null","+","Fixation - short","","null","","","","","","","","","","","","",""
"","html-keyboard-response","489","502432","0.0-866.0","rq3ouf4v","1512","945","","","","","","","","","","","536","byy","Diagnostic trial","","j","14","9","false","true","RIGHT","j","1","","LEFT","false","","",""
"","html-keyboard-response","490","503185","0.0-869.0","rq3ouf4v","1512","945","","","","","","","","","","","null","+","Fixation - short","","null","","","","","","","","","","","","",""
"","html-keyboard-response","491","503826","0.0-870.0","rq3ouf4v","1512","945","","","","","","","","","","","640","psl","Diagnostic trial","","j","14","10","false","true","RIGHT","j","1","","RIGHT","true","","",""
"","html-keyboard-response","492","504579","0.0-873.0","rq3ouf4v","1512","945","","","","","","","","","","","null","+","Fixation - short","","null","","","","","","","","","","","","",""
"","html-keyboard-response","493","505243","0.0-874.0","rq3ouf4v","1512","945","","","","","","","","","","","663","psl","Diagnostic trial","","f","14","11","false","false","LEFT","f","1","","RIGHT","false","","",""
"","html-keyboard-response","494","505994","0.0-877.0","rq3ouf4v","1512","945","","","","","","","","","","","null","+","Fixation - short","","null","","","","","","","","","","","","",""
"","html-keyboard-response","495","506967","0.0-878.0","rq3ouf4v","1512","945","","","","","","","","","","","971","byy","Diagnostic trial","","f","14","12","false","false","LEFT","f","1","","LEFT","true","","",""
"","html-keyboard-response","496","507718","0.0-881.0","rq3ouf4v","1512","945","","","","","","","","","","","null","+","Fixation - short","","null","","","","","","","","","","","","",""
"","html-keyboard-response","497","508640","0.0-882.0","rq3ouf4v","1512","945","","","","","","","","","","","921","psl","Diagnostic trial","","f","14","13","false","false","LEFT","f","1","","RIGHT","false","","",""
"","html-keyboard-response","498","509394","0.0-885.0","rq3ouf4v","1512","945","","","","","","","","","","","null","+","Fixation - short","","null","","","","","","","","","","","","",""
"","html-keyboard-response","499","509882","0.0-886.0","rq3ouf4v","1512","945","","","","","","","","","","","487","psl","Diagnostic trial","","f","14","14","false","false","LEFT","f","1","","RIGHT","false","","",""
