"value","trial_type","trial_index","time_elapsed","internal_node_id","id","width","height","webaudio","browser","browser_version","mobile","os","fullscreen","vsync_rate","webcam","microphone","view_history","rt","stimulus","trial_info","success","response","inducer_run","diagnostic_run","inducer_trial","italic","correct_diag_response_side","correct_response_key","correct_response","correct_indu_response_side","correct_inducer_response_side","congruent","accuracy","open_feedback","interactive"
"","call-function","0","2","0.0-0.0","azenm3o6","","","","","","","","","","","","","","","","","","","","","","","","","","","","","",""
"","browser-check","1","351","0.0-1.0","azenm3o6","1243","973","true","chrome","121.0.0","false","Windows 10","true","173.66","false","true","","","","","","","","","","","","","","","","","","",""
"","instructions","2","19946","0.0-2.0","azenm3o6","","","","","","","","","","","","[{""page_index"":0,""viewing_time"":6683},{""page_index"":1,""viewing_time"":9863},{""page_index"":2,""viewing_time"":3049}]","19595","The experiment and consent","The experiment and consent","","","","","","","","","","","","","","",""
"","fullscreen","3","25490","0.0-3.0","azenm3o6","2560","1440","","","","","","","","","","","4529","","Full screen","true","","","","","","","","","","","","","",""
"","instructions","4","48522","0.0-4.0","azenm3o6","2560","1440","","","","","","","","","","[{""page_index"":0,""viewing_time"":14707},{""page_index"":1,""viewing_time"":8325}]","23032","Instructions","Basic overview explanation","","","","","","","","","","","","","","",""
"","html-keyboard-response","5","56955","0.0-5.0","azenm3o6","2560","1440","","","","","","","","","","","6923","If italic press RIGHT | If upright press LEFT","Diagnostic instructions",""," ","","","","","","","","","","","","",""
"","html-keyboard-response","6","57710","0.0-6.0","azenm3o6","2560","1440","","","","","","","","","","","null","+","Fixation - short","","null","","","","","","","","","","","","",""
"","html-keyboard-response","7","58187","0.0-7.0","azenm3o6","2560","1440","","","","","","","","","","","476","gfm","Practice diganostic trial","","j","practice","0","false","1","RIGHT","j","1","","","","","",""
"","html-keyboard-response","8","58951","0.0-10.0","azenm3o6","2560","1440","","","","","","","","","","","null","+","Fixation - short","","null","","","","","","","","","","","","",""
"","html-keyboard-response","9","59539","0.0-11.0","azenm3o6","2560","1440","","","","","","","","","","","587","gfm","Practice diganostic trial","","f","practice","1","false","0","LEFT","f","1","","","","","",""
"","html-keyboard-response","10","60300","0.0-14.0","azenm3o6","2560","1440","","","","","","","","","","","null","+","Fixation - short","","null","","","","","","","","","","","","",""
"","html-keyboard-response","11","61200","0.0-15.0","azenm3o6","2560","1440","","","","","","","","","","","899","ccx","Practice diganostic trial","","j","practice","2","false","1","RIGHT","j","1","","","","","",""
"","html-keyboard-response","12","61965","0.0-18.0","azenm3o6","2560","1440","","","","","","","","","","","null","+","Fixation - short","","null","","","","","","","","","","","","",""
"","html-keyboard-response","13","62522","0.0-19.0","azenm3o6","2560","1440","","","","","","","","","","","557","ccx","Practice diganostic trial","","f","practice","3","false","0","LEFT","f","1","","","","","",""
"","html-keyboard-response","14","63286","0.0-22.0","azenm3o6","2560","1440","","","","","","","","","","","null","+","Fixation - short","","null","","","","","","","","","","","","",""
"","html-keyboard-response","15","64075","0.0-23.0","azenm3o6","2560","1440","","","","","","","","","","","790","gfm","Practice diganostic trial","","f","practice","4","false","0","LEFT","f","1","","","","","",""
"","html-keyboard-response","16","64839","0.0-26.0","azenm3o6","2560","1440","","","","","","","","","","","null","+","Fixation - short","","null","","","","","","","","","","","","",""
"","html-keyboard-response","17","65385","0.0-27.0","azenm3o6","2560","1440","","","","","","","","","","","546","gfm","Practice diganostic trial","","j","practice","5","false","1","RIGHT","j","1","","","","","",""
"","html-keyboard-response","18","66150","0.0-30.0","azenm3o6","2560","1440","","","","","","","","","","","null","+","Fixation - short","","null","","","","","","","","","","","","",""
"","html-keyboard-response","19","66811","0.0-31.0","azenm3o6","2560","1440","","","","","","","","","","","661","ccx","Practice diganostic trial","","j","practice","6","false","1","RIGHT","j","1","","","","","",""
"","html-keyboard-response","20","67574","0.0-34.0","azenm3o6","2560","1440","","","","","","","","","","","null","+","Fixation - short","","null","","","","","","","","","","","","",""
"","html-keyboard-response","21","68096","0.0-35.0","azenm3o6","2560","1440","","","","","","","","","","","521","ccx","Practice diganostic trial","","f","practice","7","false","0","LEFT","f","1","","","","","",""
"","html-keyboard-response","22","68853","0.0-38.0","azenm3o6","2560","1440","","","","","","","","","","","null","+","Fixation - short","","null","","","","","","","","","","","","",""
"","html-keyboard-response","23","69509","0.0-39.0","azenm3o6","2560","1440","","","","","","","","","","","655","gfm","Practice diganostic trial","","j","practice","8","false","1","RIGHT","j","1","","","","","",""
"","html-keyboard-response","24","70270","0.0-42.0","azenm3o6","2560","1440","","","","","","","","","","","null","+","Fixation - short","","null","","","","","","","","","","","","",""
"","html-keyboard-response","25","70981","0.0-43.0","azenm3o6","2560","1440","","","","","","","","","","","710","ccx","Practice diganostic trial","","j","practice","9","false","1","RIGHT","j","1","","","","","",""
"","html-keyboard-response","26","71740","0.0-46.0","azenm3o6","2560","1440","","","","","","","","","","","null","+","Fixation - short","","null","","","","","","","","","","","","",""
"","html-keyboard-response","27","72351","0.0-47.0","azenm3o6","2560","1440","","","","","","","","","","","611","gfm","Practice diganostic trial","","f","practice","10","false","0","LEFT","f","1","","","","","",""
"","html-keyboard-response","28","73116","0.0-50.0","azenm3o6","2560","1440","","","","","","","","","","","null","+","Fixation - short","","null","","","","","","","","","","","","",""
"","html-keyboard-response","29","73685","0.0-51.0","azenm3o6","2560","1440","","","","","","","","","","","569","gfm","Practice diganostic trial","","j","practice","11","false","1","RIGHT","j","1","","","","","",""
"","html-keyboard-response","30","74446","0.0-54.0","azenm3o6","2560","1440","","","","","","","","","","","null","+","Fixation - short","","null","","","","","","","","","","","","",""
"","html-keyboard-response","31","75048","0.0-55.0","azenm3o6","2560","1440","","","","","","","","","","","602","ccx","Practice diganostic trial","","f","practice","12","false","0","LEFT","f","1","","","","","",""
"","html-keyboard-response","32","75812","0.0-58.0","azenm3o6","2560","1440","","","","","","","","","","","null","+","Fixation - short","","null","","","","","","","","","","","","",""
"","html-keyboard-response","33","76381","0.0-59.0","azenm3o6","2560","1440","","","","","","","","","","","569","ccx","Practice diganostic trial","","j","practice","13","false","1","RIGHT","j","1","","","","","",""
"","html-keyboard-response","34","77132","0.0-62.0","azenm3o6","2560","1440","","","","","","","","","","","null","+","Fixation - short","","null","","","","","","","","","","","","",""
"","html-keyboard-response","35","77645","0.0-63.0","azenm3o6","2560","1440","","","","","","","","","","","513","gfm","Practice diganostic trial","","f","practice","14","false","0","LEFT","f","1","","","","","",""
"","html-keyboard-response","36","78403","0.0-66.0","azenm3o6","2560","1440","","","","","","","","","","","null","+","Fixation - short","","null","","","","","","","","","","","","",""
"","html-keyboard-response","37","79036","0.0-67.0","azenm3o6","2560","1440","","","","","","","","","","","633","ccx","Practice diganostic trial","","f","practice","15","false","0","LEFT","f","1","","","","","",""
"","html-keyboard-response","38","79793","0.0-70.0","azenm3o6","2560","1440","","","","","","","","","","","null","+","Fixation - short","","null","","","","","","","","","","","","",""
"","instructions","39","124933","0.0-71.0","azenm3o6","2560","1440","","","","","","","","","","[{""page_index"":0,""viewing_time"":45138}]","45138","Instructions","Final experiment explanation","","","","","","","","","","","","","","",""
"","html-keyboard-response","40","135369","0.0-72.0","azenm3o6","2560","1440","","","","","","","","","","","8925","If epy press RIGHT | If geb press LEFT","Practice inducer instructions",""," ","practice","","","","","","","","","","","",""
"","html-keyboard-response","41","136295","0.0-73.0","azenm3o6","2560","1440","","","","","","","","","","","925","","Practice inducer trial","","f","practice","","true","","","f","1","LEFT","","","","",""
"","html-keyboard-response","42","137056","0.0-76.0","azenm3o6","2560","1440","","","","","","","","","","","null","+","Fixation - short","","null","","","","","","","","","","","","",""
"","html-keyboard-response","43","141487","0.0-77.0","azenm3o6","2560","1440","","","","","","","","","","","4431","If hhd press RIGHT | If anz press LEFT","Practice inducer instructions",""," ","practice","","","","","","","","","","","",""
"","html-keyboard-response","44","142783","0.0-78.0","azenm3o6","2560","1440","","","","","","","","","","","1296","","Practice inducer trial","","f","practice","","true","","","f","1","LEFT","","","","",""
"","html-keyboard-response","45","143549","0.0-81.0","azenm3o6","2560","1440","","","","","","","","","","","null","+","Fixation - short","","null","","","","","","","","","","","","",""
"","html-keyboard-response","46","146149","0.0-82.0","azenm3o6","2560","1440","","","","","","","","","","","2600","If aor press RIGHT | If cnl press LEFT","Practice inducer instructions",""," ","practice","","","","","","","","","","","",""
"","html-keyboard-response","47","147058","0.0-83.0","azenm3o6","2560","1440","","","","","","","","","","","908","","Practice inducer trial","","j","practice","","true","","","j","1","RIGHT","","","","",""
"","html-keyboard-response","48","147819","0.0-86.0","azenm3o6","2560","1440","","","","","","","","","","","null","+","Fixation - short","","null","","","","","","","","","","","","",""
"","html-keyboard-response","49","149871","0.0-87.0","azenm3o6","2560","1440","","","","","","","","","","","2052","If eeu press RIGHT | If oez press LEFT","Practice inducer instructions",""," ","practice","","","","","","","","","","","",""
"","html-keyboard-response","50","151315","0.0-88.0","azenm3o6","2560","1440","","","","","","","","","","","1443","","Practice inducer trial","","j","practice","","true","","","j","1","RIGHT","","","","",""
"","html-keyboard-response","51","152069","0.0-91.0","azenm3o6","2560","1440","","","","","","","","","","","null","+","Fixation - short","","null","","","","","","","","","","","","",""
"","html-keyboard-response","52","153140","0.0-92.0","azenm3o6","2560","1440","","","","","","","","","","","1071","If eht press RIGHT | If iei press LEFT","Practice inducer instructions",""," ","practice","","","","","","","","","","","",""
"","html-keyboard-response","53","153880","0.0-93.0","azenm3o6","2560","1440","","","","","","","","","","","740","","Practice inducer trial","","f","practice","","true","","","f","1","LEFT","","","","",""
"","html-keyboard-response","54","154641","0.0-96.0","azenm3o6","2560","1440","","","","","","","","","","","null","+","Fixation - short","","null","","","","","","","","","","","","",""
"","html-keyboard-response","55","157178","0.0-97.0","azenm3o6","2560","1440","","","","","","","","","","","2537","If cmj press RIGHT | If xlv press LEFT","Practice inducer instructions",""," ","practice","","","","","","","","","","","",""
"","html-keyboard-response","56","158127","0.0-98.0","azenm3o6","2560","1440","","","","","","","","","","","948","","Practice inducer trial","","j","practice","","true","","","j","1","RIGHT","","","","",""
"","html-keyboard-response","57","158890","0.0-101.0","azenm3o6","2560","1440","","","","","","","","","","","null","+","Fixation - short","","null","","","","","","","","","","","","",""
"","html-keyboard-response","58","186186","0.0-102.0","azenm3o6","2560","1440","","","","","","","","","","","27295","End practice","End of practice",""," ","","","","","","","","","","","","",""
"","html-keyboard-response","59","187702","0.0-103.0","azenm3o6","2560","1440","","","","","","","","","","","null","+","Fixation - long","","null","","","","","","","","","","","","",""
"","html-keyboard-response","60","189372","0.0-104.0","azenm3o6","2560","1440","","","","","","","","","","","1669","If nga press RIGHT | If pcm press LEFT","Inducer instructions",""," ","0","","","","","","","","","","","",""
"","html-keyboard-response","61","190127","0.0-105.0","azenm3o6","2560","1440","","","","","","","","","","","null","+","Fixation - short","","null","","","","","","","","","","","","",""
"","html-keyboard-response","62","190902","0.0-106.0","azenm3o6","2560","1440","","","","","","","","","","","774","nga","Diagnostic trial","","j","0","0","false","true","RIGHT","j","1","","LEFT","false","","",""
"","html-keyboard-response","63","191662","0.0-109.0","azenm3o6","2560","1440","","","","","","","","","","","null","+","Fixation - short","","null","","","","","","","","","","","","",""
"","html-keyboard-response","64","192627","0.0-110.0","azenm3o6","2560","1440","","","","","","","","","","","964","pcm","Diagnostic trial","","j","0","1","false","true","RIGHT","j","1","","RIGHT","true","","",""
"","html-keyboard-response","65","193386","0.0-113.0","azenm3o6","2560","1440","","","","","","","","","","","null","+","Fixation - short","","null","","","","","","","","","","","","",""
"","html-keyboard-response","66","194035","0.0-114.0","azenm3o6","2560","1440","","","","","","","","","","","648","pcm","Diagnostic trial","","f","0","2","false","false","LEFT","f","1","","RIGHT","false","","",""
"","html-keyboard-response","67","194791","0.0-117.0","azenm3o6","2560","1440","","","","","","","","","","","null","+","Fixation - short","","null","","","","","","","","","","","","",""
"","html-keyboard-response","68","195440","0.0-118.0","azenm3o6","2560","1440","","","","","","","","","","","648","pcm","Diagnostic trial","","f","0","3","false","false","LEFT","f","1","","RIGHT","false","","",""
"","html-keyboard-response","69","196199","0.0-121.0","azenm3o6","2560","1440","","","","","","","","","","","null","+","Fixation - short","","null","","","","","","","","","","","","",""
"","html-keyboard-response","70","196726","0.0-122.0","azenm3o6","2560","1440","","","","","","","","","","","526","nga","Diagnostic trial","","j","0","4","false","true","RIGHT","j","1","","LEFT","false","","",""
"","html-keyboard-response","71","197485","0.0-125.0","azenm3o6","2560","1440","","","","","","","","","","","null","+","Fixation - short","","null","","","","","","","","","","","","",""
"","html-keyboard-response","72","198192","0.0-126.0","azenm3o6","2560","1440","","","","","","","","","","","706","nga","Inducer trial","","j","0","","true","","","j","1","RIGHT","","","","",""
"","html-keyboard-response","73","199693","0.0-129.0","azenm3o6","2560","1440","","","","","","","","","","","null","+","Fixation - long","","null","","","","","","","","","","","","",""
"","html-keyboard-response","74","204240","0.0-130.0","azenm3o6","2560","1440","","","","","","","","","","","4546","If frn press RIGHT | If vle press LEFT","Inducer instructions",""," ","1","","","","","","","","","","","",""
"","html-keyboard-response","75","204995","0.0-131.0","azenm3o6","2560","1440","","","","","","","","","","","null","+","Fixation - short","","null","","","","","","","","","","","","",""
"","html-keyboard-response","76","205720","0.0-132.0","azenm3o6","2560","1440","","","","","","","","","","","725","vle","Diagnostic trial","","j","1","0","false","true","RIGHT","j","1","","RIGHT","true","","",""
"","html-keyboard-response","77","206475","0.0-135.0","azenm3o6","2560","1440","","","","","","","","","","","null","+","Fixation - short","","null","","","","","","","","","","","","",""
"","html-keyboard-response","78","207283","0.0-136.0","azenm3o6","2560","1440","","","","","","","","","","","807","frn","Diagnostic trial","","f","1","1","false","false","LEFT","f","1","","LEFT","true","","",""
"","html-keyboard-response","79","208043","0.0-139.0","azenm3o6","2560","1440","","","","","","","","","","","null","+","Fixation - short","","null","","","","","","","","","","","","",""
"","html-keyboard-response","80","208670","0.0-140.0","azenm3o6","2560","1440","","","","","","","","","","","627","vle","Diagnostic trial","","j","1","2","false","true","RIGHT","j","1","","RIGHT","true","","",""
"","html-keyboard-response","81","209431","0.0-143.0","azenm3o6","2560","1440","","","","","","","","","","","null","+","Fixation - short","","null","","","","","","","","","","","","",""
"","html-keyboard-response","82","210301","0.0-144.0","azenm3o6","2560","1440","","","","","","","","","","","871","frn","Diagnostic trial","","j","1","3","false","false","LEFT","f","0","","LEFT","true","","",""
"","call-function","83","210302","0.0-146.0-0.0","azenm3o6","","","","","","","","","","","","","","","","","","","","","","","","","","","","","",""
"","html-keyboard-response","84","210615","0.0-146.0-1.0","azenm3o6","2560","1440","","","","","","","","","","","null","Wrong","Feedback","","null","","","","","","","","","","","","",""
"","call-function","85","210615","0.0-146.0-2.0","azenm3o6","","","","","","","","","","","","","","","","","","","","","","","","","","","","","",""
"","html-keyboard-response","86","211371","0.0-147.0","azenm3o6","2560","1440","","","","","","","","","","","null","+","Fixation - short","","null","","","","","","","","","","","","",""
"","html-keyboard-response","87","212486","0.0-148.0","azenm3o6","2560","1440","","","","","","","","","","","1114","frn","Diagnostic trial","","j","1","4","false","true","RIGHT","j","1","","LEFT","false","","",""
"","html-keyboard-response","88","213247","0.0-151.0","azenm3o6","2560","1440","","","","","","","","","","","null","+","Fixation - short","","null","","","","","","","","","","","","",""
"","html-keyboard-response","89","214051","0.0-152.0","azenm3o6","2560","1440","","","","","","","","","","","804","frn","Inducer trial","","f","1","","true","","","j","0","RIGHT","","","","",""
"","call-function","90","214052","0.0-154.0-0.0","azenm3o6","","","","","","","","","","","","","","","","","","","","","","","","","","","","","",""
"","html-keyboard-response","91","214353","0.0-154.0-1.0","azenm3o6","2560","1440","","","","","","","","","","","null","Wrong","Feedback","","null","","","","","","","","","","","","",""
"","call-function","92","214353","0.0-154.0-2.0","azenm3o6","","","","","","","","","","","","","","","","","","","","","","","","","","","","","",""
"","html-keyboard-response","93","215859","0.0-155.0","azenm3o6","2560","1440","","","","","","","","","","","null","+","Fixation - long","","null","","","","","","","","","","","","",""
"","html-keyboard-response","94","218524","0.0-156.0","azenm3o6","2560","1440","","","","","","","","","","","2664","If yrp press RIGHT | If mda press LEFT","Inducer instructions",""," ","2","","","","","","","","","","","",""
"","html-keyboard-response","95","219287","0.0-157.0","azenm3o6","2560","1440","","","","","","","","","","","null","+","Fixation - short","","null","","","","","","","","","","","","",""
"","html-keyboard-response","96","220182","0.0-158.0","azenm3o6","2560","1440","","","","","","","","","","","895","mda","Diagnostic trial","","j","2","0","false","false","LEFT","f","0","","RIGHT","false","","",""
"","call-function","97","220183","0.0-160.0-0.0","azenm3o6","","","","","","","","","","","","","","","","","","","","","","","","","","","","","",""
"","html-keyboard-response","98","220484","0.0-160.0-1.0","azenm3o6","2560","1440","","","","","","","","","","","null","Wrong","Feedback","","null","","","","","","","","","","","","",""
"","call-function","99","220484","0.0-160.0-2.0","azenm3o6","","","","","","","","","","","","","","","","","","","","","","","","","","","","","",""
"","html-keyboard-response","100","221240","0.0-161.0","azenm3o6","2560","1440","","","","","","","","","","","null","+","Fixation - short","","null","","","","","","","","","","","","",""
"","html-keyboard-response","101","222141","0.0-162.0","azenm3o6","2560","1440","","","","","","","","","","","901","yrp","Diagnostic trial","","f","2","1","false","false","LEFT","f","1","","LEFT","true","","",""
"","html-keyboard-response","102","222898","0.0-165.0","azenm3o6","2560","1440","","","","","","","","","","","null","+","Fixation - short","","null","","","","","","","","","","","","",""
"","html-keyboard-response","103","223383","0.0-166.0","azenm3o6","2560","1440","","","","","","","","","","","485","yrp","Diagnostic trial","","f","2","2","false","false","LEFT","f","1","","LEFT","true","","",""
"","html-keyboard-response","104","224149","0.0-169.0","azenm3o6","2560","1440","","","","","","","","","","","null","+","Fixation - short","","null","","","","","","","","","","","","",""
"","html-keyboard-response","105","224833","0.0-170.0","azenm3o6","2560","1440","","","","","","","","","","","684","yrp","Diagnostic trial","","f","2","3","false","false","LEFT","f","1","","LEFT","true","","",""
"","html-keyboard-response","106","225587","0.0-173.0","azenm3o6","2560","1440","","","","","","","","","","","null","+","Fixation - short","","null","","","","","","","","","","","","",""
"","html-keyboard-response","107","226154","0.0-174.0","azenm3o6","2560","1440","","","","","","","","","","","567","yrp","Diagnostic trial","","j","2","4","false","true","RIGHT","j","1","","LEFT","false","","",""
"","html-keyboard-response","108","226918","0.0-177.0","azenm3o6","2560","1440","","","","","","","","","","","null","+","Fixation - short","","null","","","","","","","","","","","","",""
"","html-keyboard-response","109","227772","0.0-178.0","azenm3o6","2560","1440","","","","","","","","","","","853","mda","Diagnostic trial","","j","2","5","false","true","RIGHT","j","1","","RIGHT","true","","",""
"","html-keyboard-response","110","228536","0.0-181.0","azenm3o6","2560","1440","","","","","","","","","","","null","+","Fixation - short","","null","","","","","","","","","","","","",""
"","html-keyboard-response","111","229174","0.0-182.0","azenm3o6","2560","1440","","","","","","","","","","","638","mda","Diagnostic trial","","f","2","6","false","false","LEFT","f","1","","RIGHT","false","","",""
"","html-keyboard-response","112","229928","0.0-185.0","azenm3o6","2560","1440","","","","","","","","","","","null","+","Fixation - short","","null","","","","","","","","","","","","",""
"","html-keyboard-response","113","230715","0.0-186.0","azenm3o6","2560","1440","","","","","","","","","","","787","yrp","Diagnostic trial","","j","2","7","false","true","RIGHT","j","1","","LEFT","false","","",""
"","html-keyboard-response","114","231470","0.0-189.0","azenm3o6","2560","1440","","","","","","","","","","","null","+","Fixation - short","","null","","","","","","","","","","","","",""
"","html-keyboard-response","115","232148","0.0-190.0","azenm3o6","2560","1440","","","","","","","","","","","678","yrp","Diagnostic trial","","f","2","8","false","false","LEFT","f","1","","LEFT","true","","",""
"","html-keyboard-response","116","232913","0.0-193.0","azenm3o6","2560","1440","","","","","","","","","","","null","+","Fixation - short","","null","","","","","","","","","","","","",""
"","html-keyboard-response","117","233603","0.0-194.0","azenm3o6","2560","1440","","","","","","","","","","","690","mda","Inducer trial","","f","2","","true","","","f","1","LEFT","","","","",""
"","html-keyboard-response","118","235107","0.0-197.0","azenm3o6","2560","1440","","","","","","","","","","","null","+","Fixation - long","","null","","","","","","","","","","","","",""
"","html-keyboard-response","119","236986","0.0-198.0","azenm3o6","2560","1440","","","","","","","","","","","1879","If uen press RIGHT | If yna press LEFT","Inducer instructions",""," ","3","","","","","","","","","","","",""
"","html-keyboard-response","120","237750","0.0-199.0","azenm3o6","2560","1440","","","","","","","","","","","null","+","Fixation - short","","null","","","","","","","","","","","","",""
"","html-keyboard-response","121","238201","0.0-200.0","azenm3o6","2560","1440","","","","","","","","","","","451","uen","Diagnostic trial","","j","3","0","false","true","RIGHT","j","1","","LEFT","false","","",""
"","html-keyboard-response","122","238963","0.0-203.0","azenm3o6","2560","1440","","","","","","","","","","","null","+","Fixation - short","","null","","","","","","","","","","","","",""
"","html-keyboard-response","123","239402","0.0-204.0","azenm3o6","2560","1440","","","","","","","","","","","439","uen","Diagnostic trial","","j","3","1","false","true","RIGHT","j","1","","LEFT","false","","",""
"","html-keyboard-response","124","240158","0.0-207.0","azenm3o6","2560","1440","","","","","","","","","","","null","+","Fixation - short","","null","","","","","","","","","","","","",""
"","html-keyboard-response","125","240841","0.0-208.0","azenm3o6","2560","1440","","","","","","","","","","","683","yna","Diagnostic trial","","f","3","2","false","false","LEFT","f","1","","RIGHT","false","","",""
"","html-keyboard-response","126","241604","0.0-211.0","azenm3o6","2560","1440","","","","","","","","","","","null","+","Fixation - short","","null","","","","","","","","","","","","",""
"","html-keyboard-response","127","242035","0.0-212.0","azenm3o6","2560","1440","","","","","","","","","","","431","yna","Diagnostic trial","","f","3","3","false","false","LEFT","f","1","","RIGHT","false","","",""
"","html-keyboard-response","128","242795","0.0-215.0","azenm3o6","2560","1440","","","","","","","","","","","null","+","Fixation - short","","null","","","","","","","","","","","","",""
"","html-keyboard-response","129","243299","0.0-216.0","azenm3o6","2560","1440","","","","","","","","","","","504","uen","Diagnostic trial","","j","3","4","false","true","RIGHT","j","1","","LEFT","false","","",""
"","html-keyboard-response","130","244064","0.0-219.0","azenm3o6","2560","1440","","","","","","","","","","","null","+","Fixation - short","","null","","","","","","","","","","","","",""
"","html-keyboard-response","131","244972","0.0-220.0","azenm3o6","2560","1440","","","","","","","","","","","908","uen","Diagnostic trial","","f","3","5","false","false","LEFT","f","1","","LEFT","true","","",""
"","html-keyboard-response","132","245730","0.0-223.0","azenm3o6","2560","1440","","","","","","","","","","","null","+","Fixation - short","","null","","","","","","","","","","","","",""
"","html-keyboard-response","133","246256","0.0-224.0","azenm3o6","2560","1440","","","","","","","","","","","527","uen","Diagnostic trial","","f","3","6","false","false","LEFT","f","1","","LEFT","true","","",""
"","html-keyboard-response","134","247014","0.0-227.0","azenm3o6","2560","1440","","","","","","","","","","","null","+","Fixation - short","","null","","","","","","","","","","","","",""
"","html-keyboard-response","135","247649","0.0-228.0","azenm3o6","2560","1440","","","","","","","","","","","635","yna","Diagnostic trial","","f","3","7","false","false","LEFT","f","1","","RIGHT","false","","",""
"","html-keyboard-response","136","248406","0.0-231.0","azenm3o6","2560","1440","","","","","","","","","","","null","+","Fixation - short","","null","","","","","","","","","","","","",""
"","html-keyboard-response","137","248940","0.0-232.0","azenm3o6","2560","1440","","","","","","","","","","","534","yna","Diagnostic trial","","j","3","8","false","true","RIGHT","j","1","","RIGHT","true","","",""
"","html-keyboard-response","138","249706","0.0-235.0","azenm3o6","2560","1440","","","","","","","","","","","null","+","Fixation - short","","null","","","","","","","","","","","","",""
"","html-keyboard-response","139","250359","0.0-236.0","azenm3o6","2560","1440","","","","","","","","","","","653","uen","Diagnostic trial","","j","3","9","false","true","RIGHT","j","1","","LEFT","false","","",""
"","html-keyboard-response","140","251112","0.0-239.0","azenm3o6","2560","1440","","","","","","","","","","","null","+","Fixation - short","","null","","","","","","","","","","","","",""
"","html-keyboard-response","141","251750","0.0-240.0","azenm3o6","2560","1440","","","","","","","","","","","638","uen","Diagnostic trial","","f","3","10","false","false","LEFT","f","1","","LEFT","true","","",""
"","html-keyboard-response","142","252514","0.0-243.0","azenm3o6","2560","1440","","","","","","","","","","","null","+","Fixation - short","","null","","","","","","","","","","","","",""
"","html-keyboard-response","143","252939","0.0-244.0","azenm3o6","2560","1440","","","","","","","","","","","426","uen","Diagnostic trial","","f","3","11","false","false","LEFT","f","1","","LEFT","true","","",""
"","html-keyboard-response","144","253702","0.0-247.0","azenm3o6","2560","1440","","","","","","","","","","","null","+","Fixation - short","","null","","","","","","","","","","","","",""
"","html-keyboard-response","145","254295","0.0-248.0","azenm3o6","2560","1440","","","","","","","","","","","593","yna","Diagnostic trial","","j","3","12","false","true","RIGHT","j","1","","RIGHT","true","","",""
"","html-keyboard-response","146","255049","0.0-251.0","azenm3o6","2560","1440","","","","","","","","","","","null","+","Fixation - short","","null","","","","","","","","","","","","",""
"","html-keyboard-response","147","255798","0.0-252.0","azenm3o6","2560","1440","","","","","","","","","","","749","uen","Diagnostic trial","","j","3","13","false","true","RIGHT","j","1","","LEFT","false","","",""
"","html-keyboard-response","148","256553","0.0-255.0","azenm3o6","2560","1440","","","","","","","","","","","null","+","Fixation - short","","null","","","","","","","","","","","","",""
"","html-keyboard-response","149","257062","0.0-256.0","azenm3o6","2560","1440","","","","","","","","","","","509","uen","Diagnostic trial","","j","3","14","false","true","RIGHT","j","1","","LEFT","false","","",""
"","html-keyboard-response","150","257822","0.0-259.0","azenm3o6","2560","1440","","","","","","","","","","","null","+","Fixation - short","","null","","","","","","","","","","","","",""
"","html-keyboard-response","151","258442","0.0-260.0","azenm3o6","2560","1440","","","","","","","","","","","620","uen","Diagnostic trial","","f","3","15","false","false","LEFT","f","1","","LEFT","true","","",""
"","html-keyboard-response","152","259199","0.0-263.0","azenm3o6","2560","1440","","","","","","","","","","","null","+","Fixation - short","","null","","","","","","","","","","","","",""
"","html-keyboard-response","153","260512","0.0-264.0","azenm3o6","2560","1440","","","","","","","","","","","1313","uen","Inducer trial","","j","3","","true","","","j","1","RIGHT","","","","",""
"","html-keyboard-response","154","262024","0.0-267.0","azenm3o6","2560","1440","","","","","","","","","","","null","+","Fixation - long","","null","","","","","","","","","","","","",""
"","html-keyboard-response","155","264392","0.0-268.0","azenm3o6","2560","1440","","","","","","","","","","","2368","If glp press RIGHT | If bwe press LEFT","Inducer instructions",""," ","4","","","","","","","","","","","",""
"","html-keyboard-response","156","265149","0.0-269.0","azenm3o6","2560","1440","","","","","","","","","","","null","+","Fixation - short","","null","","","","","","","","","","","","",""
"","html-keyboard-response","157","265932","0.0-270.0","azenm3o6","2560","1440","","","","","","","","","","","783","bwe","Diagnostic trial","","f","4","0","false","false","LEFT","f","1","","RIGHT","false","","",""
"","html-keyboard-response","158","266688","0.0-273.0","azenm3o6","2560","1440","","","","","","","","","","","null","+","Fixation - short","","null","","","","","","","","","","","","",""
"","html-keyboard-response","159","267123","0.0-274.0","azenm3o6","2560","1440","","","","","","","","","","","436","bwe","Diagnostic trial","","f","4","1","false","false","LEFT","f","1","","RIGHT","false","","",""
"","html-keyboard-response","160","267885","0.0-277.0","azenm3o6","2560","1440","","","","","","","","","","","null","+","Fixation - short","","null","","","","","","","","","","","","",""
"","html-keyboard-response","161","268377","0.0-278.0","azenm3o6","2560","1440","","","","","","","","","","","492","glp","Diagnostic trial","","f","4","2","false","false","LEFT","f","1","","LEFT","true","","",""
"","html-keyboard-response","162","269134","0.0-281.0","azenm3o6","2560","1440","","","","","","","","","","","null","+","Fixation - short","","null","","","","","","","","","","","","",""
"","html-keyboard-response","163","269639","0.0-282.0","azenm3o6","2560","1440","","","","","","","","","","","505","glp","Diagnostic trial","","j","4","3","false","true","RIGHT","j","1","","LEFT","false","","",""
"","html-keyboard-response","164","270397","0.0-285.0","azenm3o6","2560","1440","","","","","","","","","","","null","+","Fixation - short","","null","","","","","","","","","","","","",""
"","html-keyboard-response","165","270906","0.0-286.0","azenm3o6","2560","1440","","","","","","","","","","","509","glp","Diagnostic trial","","f","4","4","false","false","LEFT","f","1","","LEFT","true","","",""
"","html-keyboard-response","166","271661","0.0-289.0","azenm3o6","2560","1440","","","","","","","","","","","null","+","Fixation - short","","null","","","","","","","","","","","","",""
"","html-keyboard-response","167","272108","0.0-290.0","azenm3o6","2560","1440","","","","","","","","","","","447","glp","Diagnostic trial","","f","4","5","false","false","LEFT","f","1","","LEFT","true","","",""
"","html-keyboard-response","168","272864","0.0-293.0","azenm3o6","2560","1440","","","","","","","","","","","null","+","Fixation - short","","null","","","","","","","","","","","","",""
"","html-keyboard-response","169","273360","0.0-294.0","azenm3o6","2560","1440","","","","","","","","","","","496","glp","Diagnostic trial","","j","4","6","false","true","RIGHT","j","1","","LEFT","false","","",""
"","html-keyboard-response","170","274121","0.0-297.0","azenm3o6","2560","1440","","","","","","","","","","","null","+","Fixation - short","","null","","","","","","","","","","","","",""
"","html-keyboard-response","171","274697","0.0-298.0","azenm3o6","2560","1440","","","","","","","","","","","576","bwe","Diagnostic trial","","j","4","7","false","true","RIGHT","j","1","","RIGHT","true","","",""
"","html-keyboard-response","172","275457","0.0-301.0","azenm3o6","2560","1440","","","","","","","","","","","null","+","Fixation - short","","null","","","","","","","","","","","","",""
"","html-keyboard-response","173","275998","0.0-302.0","azenm3o6","2560","1440","","","","","","","","","","","541","glp","Diagnostic trial","","j","4","8","false","true","RIGHT","j","1","","LEFT","false","","",""
"","html-keyboard-response","174","276753","0.0-305.0","azenm3o6","2560","1440","","","","","","","","","","","null","+","Fixation - short","","null","","","","","","","","","","","","",""
"","html-keyboard-response","175","277287","0.0-306.0","azenm3o6","2560","1440","","","","","","","","","","","534","bwe","Diagnostic trial","","f","4","9","false","false","LEFT","f","1","","RIGHT","false","","",""
"","html-keyboard-response","176","278052","0.0-309.0","azenm3o6","2560","1440","","","","","","","","","","","null","+","Fixation - short","","null","","","","","","","","","","","","",""
"","html-keyboard-response","177","278598","0.0-310.0","azenm3o6","2560","1440","","","","","","","","","","","546","bwe","Diagnostic trial","","j","4","10","false","true","RIGHT","j","1","","RIGHT","true","","",""
"","html-keyboard-response","178","279359","0.0-313.0","azenm3o6","2560","1440","","","","","","","","","","","null","+","Fixation - short","","null","","","","","","","","","","","","",""
"","html-keyboard-response","179","279873","0.0-314.0","azenm3o6","2560","1440","","","","","","","","","","","514","bwe","Diagnostic trial","","f","4","11","false","false","LEFT","f","1","","RIGHT","false","","",""
"","html-keyboard-response","180","280637","0.0-317.0","azenm3o6","2560","1440","","","","","","","","","","","null","+","Fixation - short","","null","","","","","","","","","","","","",""
"","html-keyboard-response","181","281112","0.0-318.0","azenm3o6","2560","1440","","","","","","","","","","","475","glp","Diagnostic trial","","j","4","12","false","true","RIGHT","j","1","","LEFT","false","","",""
"","html-keyboard-response","182","281870","0.0-321.0","azenm3o6","2560","1440","","","","","","","","","","","null","+","Fixation - short","","null","","","","","","","","","","","","",""
"","html-keyboard-response","183","282341","0.0-322.0","azenm3o6","2560","1440","","","","","","","","","","","471","bwe","Diagnostic trial","","f","4","13","false","false","LEFT","f","1","","RIGHT","false","","",""
"","html-keyboard-response","184","283106","0.0-325.0","azenm3o6","2560","1440","","","","","","","","","","","null","+","Fixation - short","","null","","","","","","","","","","","","",""
"","html-keyboard-response","185","283926","0.0-326.0","azenm3o6","2560","1440","","","","","","","","","","","820","glp","Inducer trial","","j","4","","true","","","j","1","RIGHT","","","","",""
"","html-keyboard-response","186","285432","0.0-329.0","azenm3o6","2560","1440","","","","","","","","","","","null","+","Fixation - long","","null","","","","","","","","","","","","",""
"","html-keyboard-response","187","287199","0.0-330.0","azenm3o6","2560","1440","","","","","","","","","","","1766","If upf press RIGHT | If rbc press LEFT","Inducer instructions",""," ","5","","","","","","","","","","","",""
"","html-keyboard-response","188","287959","0.0-331.0","azenm3o6","2560","1440","","","","","","","","","","","null","+","Fixation - short","","null","","","","","","","","","","","","",""
"","html-keyboard-response","189","288654","0.0-332.0","azenm3o6","2560","1440","","","","","","","","","","","695","upf","Diagnostic trial","","f","5","0","false","false","LEFT","f","1","","LEFT","true","","",""
"","html-keyboard-response","190","289413","0.0-335.0","azenm3o6","2560","1440","","","","","","","","","","","null","+","Fixation - short","","null","","","","","","","","","","","","",""
"","html-keyboard-response","191","289956","0.0-336.0","azenm3o6","2560","1440","","","","","","","","","","","542","rbc","Diagnostic trial","","j","5","1","false","true","RIGHT","j","1","","RIGHT","true","","",""
"","html-keyboard-response","192","290714","0.0-339.0","azenm3o6","2560","1440","","","","","","","","","","","null","+","Fixation - short","","null","","","","","","","","","","","","",""
"","html-keyboard-response","193","291177","0.0-340.0","azenm3o6","2560","1440","","","","","","","","","","","463","upf","Diagnostic trial","","j","5","2","false","true","RIGHT","j","1","","LEFT","false","","",""
"","html-keyboard-response","194","291935","0.0-343.0","azenm3o6","2560","1440","","","","","","","","","","","null","+","Fixation - short","","null","","","","","","","","","","","","",""
"","html-keyboard-response","195","292401","0.0-344.0","azenm3o6","2560","1440","","","","","","","","","","","465","rbc","Diagnostic trial","","f","5","3","false","false","LEFT","f","1","","RIGHT","false","","",""
"","html-keyboard-response","196","293164","0.0-347.0","azenm3o6","2560","1440","","","","","","","","","","","null","+","Fixation - short","","null","","","","","","","","","","","","",""
"","html-keyboard-response","197","293701","0.0-348.0","azenm3o6","2560","1440","","","","","","","","","","","537","upf","Diagnostic trial","","f","5","4","false","false","LEFT","f","1","","LEFT","true","","",""
"","html-keyboard-response","198","294462","0.0-351.0","azenm3o6","2560","1440","","","","","","","","","","","null","+","Fixation - short","","null","","","","","","","","","","","","",""
"","html-keyboard-response","199","294945","0.0-352.0","azenm3o6","2560","1440","","","","","","","","","","","483","rbc","Diagnostic trial","","f","5","5","false","false","LEFT","f","1","","RIGHT","false","","",""
"","html-keyboard-response","200","295699","0.0-355.0","azenm3o6","2560","1440","","","","","","","","","","","null","+","Fixation - short","","null","","","","","","","","","","","","",""
"","html-keyboard-response","201","296891","0.0-356.0","azenm3o6","2560","1440","","","","","","","","","","","1191","rbc","Inducer trial","","f","5","","true","","","f","1","LEFT","","","","",""
"","html-keyboard-response","202","298394","0.0-359.0","azenm3o6","2560","1440","","","","","","","","","","","null","+","Fixation - long","","null","","","","","","","","","","","","",""
"","html-keyboard-response","203","300815","0.0-360.0","azenm3o6","2560","1440","","","","","","","","","","","2421","If vpu press RIGHT | If yoy press LEFT","Inducer instructions",""," ","6","","","","","","","","","","","",""
"","html-keyboard-response","204","301571","0.0-361.0","azenm3o6","2560","1440","","","","","","","","","","","null","+","Fixation - short","","null","","","","","","","","","","","","",""
"","html-keyboard-response","205","302491","0.0-362.0","azenm3o6","2560","1440","","","","","","","","","","","920","vpu","Diagnostic trial","","j","6","0","false","true","RIGHT","j","1","","LEFT","false","","",""
"","html-keyboard-response","206","303246","0.0-365.0","azenm3o6","2560","1440","","","","","","","","","","","null","+","Fixation - short","","null","","","","","","","","","","","","",""
"","html-keyboard-response","207","303714","0.0-366.0","azenm3o6","2560","1440","","","","","","","","","","","468","vpu","Diagnostic trial","","j","6","1","false","true","RIGHT","j","1","","LEFT","false","","",""
"","html-keyboard-response","208","304478","0.0-369.0","azenm3o6","2560","1440","","","","","","","","","","","null","+","Fixation - short","","null","","","","","","","","","","","","",""
"","html-keyboard-response","209","304951","0.0-370.0","azenm3o6","2560","1440","","","","","","","","","","","472","vpu","Diagnostic trial","","f","6","2","false","false","LEFT","f","1","","LEFT","true","","",""
"","html-keyboard-response","210","305708","0.0-373.0","azenm3o6","2560","1440","","","","","","","","","","","null","+","Fixation - short","","null","","","","","","","","","","","","",""
"","html-keyboard-response","211","306744","0.0-374.0","azenm3o6","2560","1440","","","","","","","","","","","1035","yoy","Diagnostic trial","","f","6","3","false","false","LEFT","f","1","","RIGHT","false","","",""
"","html-keyboard-response","212","307505","0.0-377.0","azenm3o6","2560","1440","","","","","","","","","","","null","+","Fixation - short","","null","","","","","","","","","","","","",""
"","html-keyboard-response","213","307994","0.0-378.0","azenm3o6","2560","1440","","","","","","","","","","","489","yoy","Diagnostic trial","","f","6","4","false","false","LEFT","f","1","","RIGHT","false","","",""
"","html-keyboard-response","214","308752","0.0-381.0","azenm3o6","2560","1440","","","","","","","","","","","null","+","Fixation - short","","null","","","","","","","","","","","","",""
"","html-keyboard-response","215","309216","0.0-382.0","azenm3o6","2560","1440","","","","","","","","","","","463","vpu","Diagnostic trial","","f","6","5","false","false","LEFT","f","1","","LEFT","true","","",""
"","html-keyboard-response","216","309980","0.0-385.0","azenm3o6","2560","1440","","","","","","","","","","","null","+","Fixation - short","","null","","","","","","","","","","","","",""
"","html-keyboard-response","217","310410","0.0-386.0","azenm3o6","2560","1440","","","","","","","","","","","430","yoy","Diagnostic trial","","f","6","6","false","false","LEFT","f","1","","RIGHT","false","","",""
"","html-keyboard-response","218","311174","0.0-389.0","azenm3o6","2560","1440","","","","","","","","","","","null","+","Fixation - short","","null","","","","","","","","","","","","",""
"","html-keyboard-response","219","311779","0.0-390.0","azenm3o6","2560","1440","","","","","","","","","","","605","yoy","Diagnostic trial","","j","6","7","false","true","RIGHT","j","1","","RIGHT","true","","",""
"","html-keyboard-response","220","312540","0.0-393.0","azenm3o6","2560","1440","","","","","","","","","","","null","+","Fixation - short","","null","","","","","","","","","","","","",""
"","html-keyboard-response","221","313110","0.0-394.0","azenm3o6","2560","1440","","","","","","","","","","","569","vpu","Diagnostic trial","","j","6","8","false","true","RIGHT","j","1","","LEFT","false","","",""
"","html-keyboard-response","222","313867","0.0-397.0","azenm3o6","2560","1440","","","","","","","","","","","null","+","Fixation - short","","null","","","","","","","","","","","","",""
"","html-keyboard-response","223","314400","0.0-398.0","azenm3o6","2560","1440","","","","","","","","","","","533","vpu","Diagnostic trial","","f","6","9","false","false","LEFT","f","1","","LEFT","true","","",""
"","html-keyboard-response","224","315162","0.0-401.0","azenm3o6","2560","1440","","","","","","","","","","","null","+","Fixation - short","","null","","","","","","","","","","","","",""
"","html-keyboard-response","225","315764","0.0-402.0","azenm3o6","2560","1440","","","","","","","","","","","602","yoy","Diagnostic trial","","f","6","10","false","false","LEFT","f","1","","RIGHT","false","","",""
"","html-keyboard-response","226","316531","0.0-405.0","azenm3o6","2560","1440","","","","","","","","","","","null","+","Fixation - short","","null","","","","","","","","","","","","",""
"","html-keyboard-response","227","317564","0.0-406.0","azenm3o6","2560","1440","","","","","","","","","","","1033","vpu","Diagnostic trial","","f","6","11","false","false","LEFT","f","1","","LEFT","true","","",""
"","html-keyboard-response","228","318318","0.0-409.0","azenm3o6","2560","1440","","","","","","","","","","","null","+","Fixation - short","","null","","","","","","","","","","","","",""
"","html-keyboard-response","229","318880","0.0-410.0","azenm3o6","2560","1440","","","","","","","","","","","562","vpu","Diagnostic trial","","j","6","12","false","true","RIGHT","j","1","","LEFT","false","","",""
"","html-keyboard-response","230","319639","0.0-413.0","azenm3o6","2560","1440","","","","","","","","","","","null","+","Fixation - short","","null","","","","","","","","","","","","",""
"","html-keyboard-response","231","320242","0.0-414.0","azenm3o6","2560","1440","","","","","","","","","","","602","yoy","Diagnostic trial","","f","6","13","false","false","LEFT","f","1","","RIGHT","false","","",""
"","html-keyboard-response","232","320996","0.0-417.0","azenm3o6","2560","1440","","","","","","","","","","","null","+","Fixation - short","","null","","","","","","","","","","","","",""
"","html-keyboard-response","233","321619","0.0-418.0","azenm3o6","2560","1440","","","","","","","","","","","622","yoy","Diagnostic trial","","f","6","14","false","false","LEFT","f","1","","RIGHT","false","","",""
"","html-keyboard-response","234","322375","0.0-421.0","azenm3o6","2560","1440","","","","","","","","","","","null","+","Fixation - short","","null","","","","","","","","","","","","",""
"","html-keyboard-response","235","322911","0.0-422.0","azenm3o6","2560","1440","","","","","","","","","","","536","yoy","Inducer trial","","f","6","","true","","","f","1","LEFT","","","","",""
"","html-keyboard-response","236","324425","0.0-425.0","azenm3o6","2560","1440","","","","","","","","","","","null","+","Fixation - long","","null","","","","","","","","","","","","",""
"","html-keyboard-response","237","326932","0.0-426.0","azenm3o6","2560","1440","","","","","","","","","","","2507","If jft press RIGHT | If tkb press LEFT","Inducer instructions",""," ","7","","","","","","","","","","","",""
"","html-keyboard-response","238","327688","0.0-427.0","azenm3o6","2560","1440","","","","","","","","","","","null","+","Fixation - short","","null","","","","","","","","","","","","",""
"","html-keyboard-response","239","328380","0.0-428.0","azenm3o6","2560","1440","","","","","","","","","","","692","jft","Diagnostic trial","","f","7","0","false","false","LEFT","f","1","","LEFT","true","","",""
"","html-keyboard-response","240","329136","0.0-431.0","azenm3o6","2560","1440","","","","","","","","","","","null","+","Fixation - short","","null","","","","","","","","","","","","",""
"","html-keyboard-response","241","329614","0.0-432.0","azenm3o6","2560","1440","","","","","","","","","","","478","tkb","Diagnostic trial","","f","7","1","false","false","LEFT","f","1","","RIGHT","false","","",""
"","html-keyboard-response","242","330379","0.0-435.0","azenm3o6","2560","1440","","","","","","","","","","","null","+","Fixation - short","","null","","","","","","","","","","","","",""
"","html-keyboard-response","243","330849","0.0-436.0","azenm3o6","2560","1440","","","","","","","","","","","470","tkb","Diagnostic trial","","f","7","2","false","false","LEFT","f","1","","RIGHT","false","","",""
"","html-keyboard-response","244","331613","0.0-439.0","azenm3o6","2560","1440","","","","","","","","","","","null","+","Fixation - short","","null","","","","","","","","","","","","",""
"","html-keyboard-response","245","332188","0.0-440.0","azenm3o6","2560","1440","","","","","","","","","","","574","tkb","Diagnostic trial","","j","7","3","false","true","RIGHT","j","1","","RIGHT","true","","",""
"","html-keyboard-response","246","332951","0.0-443.0","azenm3o6","2560","1440","","","","","","","","","","","null","+","Fixation - short","","null","","","","","","","","","","","","",""
"","html-keyboard-response","247","333492","0.0-444.0","azenm3o6","2560","1440","","","","","","","","","","","541","jft","Diagnostic trial","","j","7","4","false","true","RIGHT","j","1","","LEFT","false","","",""
"","html-keyboard-response","248","334250","0.0-447.0","azenm3o6","2560","1440","","","","","","","","","","","null","+","Fixation - short","","null","","","","","","","","","","","","",""
"","html-keyboard-response","249","334732","0.0-448.0","azenm3o6","2560","1440","","","","","","","","","","","481","tkb","Diagnostic trial","","j","7","5","false","true","RIGHT","j","1","","RIGHT","true","","",""
"","html-keyboard-response","250","335498","0.0-451.0","azenm3o6","2560","1440","","","","","","","","","","","null","+","Fixation - short","","null","","","","","","","","","","","","",""
"","html-keyboard-response","251","335880","0.0-452.0","azenm3o6","2560","1440","","","","","","","","","","","382","jft","Diagnostic trial","","j","7","6","false","true","RIGHT","j","1","","LEFT","false","","",""
"","html-keyboard-response","252","336634","0.0-455.0","azenm3o6","2560","1440","","","","","","","","","","","null","+","Fixation - short","","null","","","","","","","","","","","","",""
"","html-keyboard-response","253","337095","0.0-456.0","azenm3o6","2560","1440","","","","","","","","","","","460","tkb","Diagnostic trial","","j","7","7","false","true","RIGHT","j","1","","RIGHT","true","","",""
"","html-keyboard-response","254","337849","0.0-459.0","azenm3o6","2560","1440","","","","","","","","","","","null","+","Fixation - short","","null","","","","","","","","","","","","",""
"","html-keyboard-response","255","338494","0.0-460.0","azenm3o6","2560","1440","","","","","","","","","","","644","tkb","Diagnostic trial","","f","7","8","false","false","LEFT","f","1","","RIGHT","false","","",""
"","html-keyboard-response","256","339257","0.0-463.0","azenm3o6","2560","1440","","","","","","","","","","","null","+","Fixation - short","","null","","","","","","","","","","","","",""
"","html-keyboard-response","257","339907","0.0-464.0","azenm3o6","2560","1440","","","","","","","","","","","650","tkb","Diagnostic trial","","j","7","9","false","true","RIGHT","j","1","","RIGHT","true","","",""
"","html-keyboard-response","258","340670","0.0-467.0","azenm3o6","2560","1440","","","","","","","","","","","null","+","Fixation - short","","null","","","","","","","","","","","","",""
"","html-keyboard-response","259","341155","0.0-468.0","azenm3o6","2560","1440","","","","","","","","","","","484","tkb","Diagnostic trial","","f","7","10","false","false","LEFT","f","1","","RIGHT","false","","",""
"","html-keyboard-response","260","341919","0.0-471.0","azenm3o6","2560","1440","","","","","","","","","","","null","+","Fixation - short","","null","","","","","","","","","","","","",""
"","html-keyboard-response","261","342446","0.0-472.0","azenm3o6","2560","1440","","","","","","","","","","","527","jft","Diagnostic trial","","j","7","11","false","true","RIGHT","j","1","","LEFT","false","","",""
"","html-keyboard-response","262","343202","0.0-475.0","azenm3o6","2560","1440","","","","","","","","","","","null","+","Fixation - short","","null","","","","","","","","","","","","",""
"","html-keyboard-response","263","343778","0.0-476.0","azenm3o6","2560","1440","","","","","","","","","","","575","tkb","Diagnostic trial","","j","7","12","false","true","RIGHT","j","1","","RIGHT","true","","",""
"","html-keyboard-response","264","344531","0.0-479.0","azenm3o6","2560","1440","","","","","","","","","","","null","+","Fixation - short","","null","","","","","","","","","","","","",""
"","html-keyboard-response","265","345423","0.0-480.0","azenm3o6","2560","1440","","","","","","","","","","","891","tkb","Inducer trial","","f","7","","true","","","f","1","LEFT","","","","",""
"","html-keyboard-response","266","346936","0.0-483.0","azenm3o6","2560","1440","","","","","","","","","","","null","+","Fixation - long","","null","","","","","","","","","","","","",""
"","html-keyboard-response","267","348759","0.0-484.0","azenm3o6","2560","1440","","","","","","","","","","","1823","If dij press RIGHT | If hfs press LEFT","Inducer instructions",""," ","8","","","","","","","","","","","",""
"","html-keyboard-response","268","349513","0.0-485.0","azenm3o6","2560","1440","","","","","","","","","","","null","+","Fixation - short","","null","","","","","","","","","","","","",""
"","html-keyboard-response","269","350317","0.0-486.0","azenm3o6","2560","1440","","","","","","","","","","","804","hfs","Diagnostic trial","","j","8","0","false","true","RIGHT","j","1","","RIGHT","true","","",""
"","html-keyboard-response","270","351082","0.0-489.0","azenm3o6","2560","1440","","","","","","","","","","","null","+","Fixation - short","","null","","","","","","","","","","","","",""
"","html-keyboard-response","271","351541","0.0-490.0","azenm3o6","2560","1440","","","","","","","","","","","459","hfs","Diagnostic trial","","j","8","1","false","true","RIGHT","j","1","","RIGHT","true","","",""
"","html-keyboard-response","272","352293","0.0-493.0","azenm3o6","2560","1440","","","","","","","","","","","null","+","Fixation - short","","null","","","","","","","","","","","","",""
"","html-keyboard-response","273","352794","0.0-494.0","azenm3o6","2560","1440","","","","","","","","","","","501","dij","Diagnostic trial","","j","8","2","false","true","RIGHT","j","1","","LEFT","false","","",""
"","html-keyboard-response","274","353552","0.0-497.0","azenm3o6","2560","1440","","","","","","","","","","","null","+","Fixation - short","","null","","","","","","","","","","","","",""
"","html-keyboard-response","275","353996","0.0-498.0","azenm3o6","2560","1440","","","","","","","","","","","444","dij","Diagnostic trial","","j","8","3","false","true","RIGHT","j","1","","LEFT","false","","",""
"","html-keyboard-response","276","354747","0.0-501.0","azenm3o6","2560","1440","","","","","","","","","","","null","+","Fixation - short","","null","","","","","","","","","","","","",""
"","html-keyboard-response","277","355235","0.0-502.0","azenm3o6","2560","1440","","","","","","","","","","","488","hfs","Diagnostic trial","","f","8","4","false","false","LEFT","f","1","","RIGHT","false","","",""
"","html-keyboard-response","278","355987","0.0-505.0","azenm3o6","2560","1440","","","","","","","","","","","null","+","Fixation - short","","null","","","","","","","","","","","","",""
"","html-keyboard-response","279","356474","0.0-506.0","azenm3o6","2560","1440","","","","","","","","","","","487","dij","Diagnostic trial","","j","8","5","false","true","RIGHT","j","1","","LEFT","false","","",""
"","html-keyboard-response","280","357226","0.0-509.0","azenm3o6","2560","1440","","","","","","","","","","","null","+","Fixation - short","","null","","","","","","","","","","","","",""
"","html-keyboard-response","281","357729","0.0-510.0","azenm3o6","2560","1440","","","","","","","","","","","503","hfs","Diagnostic trial","","j","8","6","false","true","RIGHT","j","1","","RIGHT","true","","",""
"","html-keyboard-response","282","358495","0.0-513.0","azenm3o6","2560","1440","","","","","","","","","","","null","+","Fixation - short","","null","","","","","","","","","","","","",""
"","html-keyboard-response","283","358973","0.0-514.0","azenm3o6","2560","1440","","","","","","","","","","","477","hfs","Diagnostic trial","","f","8","7","false","false","LEFT","f","1","","RIGHT","false","","",""
"","html-keyboard-response","284","359732","0.0-517.0","azenm3o6","2560","1440","","","","","","","","","","","null","+","Fixation - short","","null","","","","","","","","","","","","",""
"","html-keyboard-response","285","360200","0.0-518.0","azenm3o6","2560","1440","","","","","","","","","","","468","hfs","Diagnostic trial","","f","8","8","false","false","LEFT","f","1","","RIGHT","false","","",""
"","html-keyboard-response","286","360955","0.0-521.0","azenm3o6","2560","1440","","","","","","","","","","","null","+","Fixation - short","","null","","","","","","","","","","","","",""
"","html-keyboard-response","287","361468","0.0-522.0","azenm3o6","2560","1440","","","","","","","","","","","513","hfs","Diagnostic trial","","f","8","9","false","true","RIGHT","j","0","","RIGHT","true","","",""
"","call-function","288","361469","0.0-524.0-0.0","azenm3o6","","","","","","","","","","","","","","","","","","","","","","","","","","","","","",""
"","html-keyboard-response","289","361771","0.0-524.0-1.0","azenm3o6","2560","1440","","","","","","","","","","","null","Wrong","Feedback","","null","","","","","","","","","","","","",""
"","call-function","290","361771","0.0-524.0-2.0","azenm3o6","","","","","","","","","","","","","","","","","","","","","","","","","","","","","",""
"","html-keyboard-response","291","362526","0.0-525.0","azenm3o6","2560","1440","","","","","","","","","","","null","+","Fixation - short","","null","","","","","","","","","","","","",""
"","html-keyboard-response","292","363018","0.0-526.0","azenm3o6","2560","1440","","","","","","","","","","","492","hfs","Diagnostic trial","","j","8","10","false","true","RIGHT","j","1","","RIGHT","true","","",""
"","html-keyboard-response","293","363783","0.0-529.0","azenm3o6","2560","1440","","","","","","","","","","","null","+","Fixation - short","","null","","","","","","","","","","","","",""
"","html-keyboard-response","294","364318","0.0-530.0","azenm3o6","2560","1440","","","","","","","","","","","535","hfs","Diagnostic trial","","f","8","11","false","false","LEFT","f","1","","RIGHT","false","","",""
"","html-keyboard-response","295","365073","0.0-533.0","azenm3o6","2560","1440","","","","","","","","","","","null","+","Fixation - short","","null","","","","","","","","","","","","",""
"","html-keyboard-response","296","365559","0.0-534.0","azenm3o6","2560","1440","","","","","","","","","","","486","hfs","Diagnostic trial","","f","8","12","false","false","LEFT","f","1","","RIGHT","false","","",""
"","html-keyboard-response","297","366315","0.0-537.0","azenm3o6","2560","1440","","","","","","","","","","","null","+","Fixation - short","","null","","","","","","","","","","","","",""
"","html-keyboard-response","298","366865","0.0-538.0","azenm3o6","2560","1440","","","","","","","","","","","550","dij","Diagnostic trial","","f","8","13","false","false","LEFT","f","1","","LEFT","true","","",""
"","html-keyboard-response","299","367631","0.0-541.0","azenm3o6","2560","1440","","","","","","","","","","","null","+","Fixation - short","","null","","","","","","","","","","","","",""
"","html-keyboard-response","300","368109","0.0-542.0","azenm3o6","2560","1440","","","","","","","","","","","478","hfs","Diagnostic trial","","j","8","14","false","true","RIGHT","j","1","","RIGHT","true","","",""
"","html-keyboard-response","301","368861","0.0-545.0","azenm3o6","2560","1440","","","","","","","","","","","null","+","Fixation - short","","null","","","","","","","","","","","","",""
"","html-keyboard-response","302","369393","0.0-546.0","azenm3o6","2560","1440","","","","","","","","","","","531","dij","Diagnostic trial","","j","8","15","false","true","RIGHT","j","1","","LEFT","false","","",""
"","html-keyboard-response","303","370157","0.0-549.0","azenm3o6","2560","1440","","","","","","","","","","","null","+","Fixation - short","","null","","","","","","","","","","","","",""
"","html-keyboard-response","304","370717","0.0-550.0","azenm3o6","2560","1440","","","","","","","","","","","559","dij","Inducer trial","","j","8","","true","","","j","1","RIGHT","","","","",""
"","html-keyboard-response","305","372222","0.0-553.0","azenm3o6","2560","1440","","","","","","","","","","","null","+","Fixation - long","","null","","","","","","","","","","","","",""
"","html-keyboard-response","306","374042","0.0-554.0","azenm3o6","2560","1440","","","","","","","","","","","1820","If dgv press RIGHT | If vib press LEFT","Inducer instructions",""," ","9","","","","","","","","","","","",""
"","html-keyboard-response","307","374795","0.0-555.0","azenm3o6","2560","1440","","","","","","","","","","","null","+","Fixation - short","","null","","","","","","","","","","","","",""
"","html-keyboard-response","308","375379","0.0-556.0","azenm3o6","2560","1440","","","","","","","","","","","584","vib","Diagnostic trial","","f","9","0","false","false","LEFT","f","1","","RIGHT","false","","",""
"","html-keyboard-response","309","376146","0.0-559.0","azenm3o6","2560","1440","","","","","","","","","","","null","+","Fixation - short","","null","","","","","","","","","","","","",""
"","html-keyboard-response","310","376582","0.0-560.0","azenm3o6","2560","1440","","","","","","","","","","","436","vib","Diagnostic trial","","f","9","1","false","false","LEFT","f","1","","RIGHT","false","","",""
"","html-keyboard-response","311","377340","0.0-563.0","azenm3o6","2560","1440","","","","","","","","","","","null","+","Fixation - short","","null","","","","","","","","","","","","",""
"","html-keyboard-response","312","377786","0.0-564.0","azenm3o6","2560","1440","","","","","","","","","","","445","dgv","Diagnostic trial","","f","9","2","false","false","LEFT","f","1","","LEFT","true","","",""
"","html-keyboard-response","313","378543","0.0-567.0","azenm3o6","2560","1440","","","","","","","","","","","null","+","Fixation - short","","null","","","","","","","","","","","","",""
"","html-keyboard-response","314","378955","0.0-568.0","azenm3o6","2560","1440","","","","","","","","","","","412","dgv","Diagnostic trial","","j","9","3","false","true","RIGHT","j","1","","LEFT","false","","",""
"","html-keyboard-response","315","379720","0.0-571.0","azenm3o6","2560","1440","","","","","","","","","","","null","+","Fixation - short","","null","","","","","","","","","","","","",""
"","html-keyboard-response","316","380152","0.0-572.0","azenm3o6","2560","1440","","","","","","","","","","","431","vib","Diagnostic trial","","j","9","4","false","true","RIGHT","j","1","","RIGHT","true","","",""
"","html-keyboard-response","317","380906","0.0-575.0","azenm3o6","2560","1440","","","","","","","","","","","null","+","Fixation - short","","null","","","","","","","","","","","","",""
"","html-keyboard-response","318","381530","0.0-576.0","azenm3o6","2560","1440","","","","","","","","","","","624","vib","Diagnostic trial","","f","9","5","false","false","LEFT","f","1","","RIGHT","false","","",""
"","html-keyboard-response","319","382289","0.0-579.0","azenm3o6","2560","1440","","","","","","","","","","","null","+","Fixation - short","","null","","","","","","","","","","","","",""
"","html-keyboard-response","320","382735","0.0-580.0","azenm3o6","2560","1440","","","","","","","","","","","446","vib","Diagnostic trial","","f","9","6","false","false","LEFT","f","1","","RIGHT","false","","",""
"","html-keyboard-response","321","383491","0.0-583.0","azenm3o6","2560","1440","","","","","","","","","","","null","+","Fixation - short","","null","","","","","","","","","","","","",""
"","html-keyboard-response","322","383998","0.0-584.0","azenm3o6","2560","1440","","","","","","","","","","","506","dgv","Diagnostic trial","","j","9","7","false","true","RIGHT","j","1","","LEFT","false","","",""
"","html-keyboard-response","323","384763","0.0-587.0","azenm3o6","2560","1440","","","","","","","","","","","null","+","Fixation - short","","null","","","","","","","","","","","","",""
"","html-keyboard-response","324","385245","0.0-588.0","azenm3o6","2560","1440","","","","","","","","","","","482","dgv","Diagnostic trial","","f","9","8","false","false","LEFT","f","1","","LEFT","true","","",""
"","html-keyboard-response","325","386007","0.0-591.0","azenm3o6","2560","1440","","","","","","","","","","","null","+","Fixation - short","","null","","","","","","","","","","","","",""
"","html-keyboard-response","326","386507","0.0-592.0","azenm3o6","2560","1440","","","","","","","","","","","500","vib","Diagnostic trial","","j","9","9","false","true","RIGHT","j","1","","RIGHT","true","","",""
"","html-keyboard-response","327","387263","0.0-595.0","azenm3o6","2560","1440","","","","","","","","","","","null","+","Fixation - short","","null","","","","","","","","","","","","",""
"","html-keyboard-response","328","387735","0.0-596.0","azenm3o6","2560","1440","","","","","","","","","","","472","dgv","Diagnostic trial","","f","9","10","false","false","LEFT","f","1","","LEFT","true","","",""
"","html-keyboard-response","329","388500","0.0-599.0","azenm3o6","2560","1440","","","","","","","","","","","null","+","Fixation - short","","null","","","","","","","","","","","","",""
"","html-keyboard-response","330","389620","0.0-600.0","azenm3o6","2560","1440","","","","","","","","","","","1120","dgv","Inducer trial","","j","9","","true","","","j","1","RIGHT","","","","",""
"","html-keyboard-response","331","391124","0.0-603.0","azenm3o6","2560","1440","","","","","","","","","","","null","+","Fixation - long","","null","","","","","","","","","","","","",""
"","html-keyboard-response","332","393309","0.0-604.0","azenm3o6","2560","1440","","","","","","","","","","","2185","If cta press RIGHT | If amb press LEFT","Inducer instructions",""," ","10","","","","","","","","","","","",""
"","html-keyboard-response","333","394063","0.0-605.0","azenm3o6","2560","1440","","","","","","","","","","","null","+","Fixation - short","","null","","","","","","","","","","","","",""
"","html-keyboard-response","334","394596","0.0-606.0","azenm3o6","2560","1440","","","","","","","","","","","532","amb","Diagnostic trial","","j","10","0","false","true","RIGHT","j","1","","RIGHT","true","","",""
"","html-keyboard-response","335","395350","0.0-609.0","azenm3o6","2560","1440","","","","","","","","","","","null","+","Fixation - short","","null","","","","","","","","","","","","",""
"","html-keyboard-response","336","395865","0.0-610.0","azenm3o6","2560","1440","","","","","","","","","","","514","amb","Diagnostic trial","","j","10","1","false","true","RIGHT","j","1","","RIGHT","true","","",""
"","html-keyboard-response","337","396621","0.0-613.0","azenm3o6","2560","1440","","","","","","","","","","","null","+","Fixation - short","","null","","","","","","","","","","","","",""
"","html-keyboard-response","338","397100","0.0-614.0","azenm3o6","2560","1440","","","","","","","","","","","479","amb","Diagnostic trial","","f","10","2","false","false","LEFT","f","1","","RIGHT","false","","",""
"","html-keyboard-response","339","397854","0.0-617.0","azenm3o6","2560","1440","","","","","","","","","","","null","+","Fixation - short","","null","","","","","","","","","","","","",""
"","html-keyboard-response","340","398309","0.0-618.0","azenm3o6","2560","1440","","","","","","","","","","","455","amb","Diagnostic trial","","f","10","3","false","false","LEFT","f","1","","RIGHT","false","","",""
"","html-keyboard-response","341","399075","0.0-621.0","azenm3o6","2560","1440","","","","","","","","","","","null","+","Fixation - short","","null","","","","","","","","","","","","",""
"","html-keyboard-response","342","399524","0.0-622.0","azenm3o6","2560","1440","","","","","","","","","","","449","cta","Diagnostic trial","","j","10","4","false","true","RIGHT","j","1","","LEFT","false","","",""
"","html-keyboard-response","343","400277","0.0-625.0","azenm3o6","2560","1440","","","","","","","","","","","null","+","Fixation - short","","null","","","","","","","","","","","","",""
"","html-keyboard-response","344","400695","0.0-626.0","azenm3o6","2560","1440","","","","","","","","","","","418","amb","Diagnostic trial","","f","10","5","false","false","LEFT","f","1","","RIGHT","false","","",""
"","html-keyboard-response","345","401451","0.0-629.0","azenm3o6","2560","1440","","","","","","","","","","","null","+","Fixation - short","","null","","","","","","","","","","","","",""
"","html-keyboard-response","346","402505","0.0-630.0","azenm3o6","2560","1440","","","","","","","","","","","1054","cta","Inducer trial","","j","10","","true","","","j","1","RIGHT","","","","",""
"","html-keyboard-response","347","404013","0.0-633.0","azenm3o6","2560","1440","","","","","","","","","","","null","+","Fixation - long","","null","","","","","","","","","","","","",""
"","html-keyboard-response","348","406216","0.0-634.0","azenm3o6","2560","1440","","","","","","","","","","","2204","If pbz press RIGHT | If bsh press LEFT","Inducer instructions",""," ","11","","","","","","","","","","","",""
"","html-keyboard-response","349","406977","0.0-635.0","azenm3o6","2560","1440","","","","","","","","","","","null","+","Fixation - short","","null","","","","","","","","","","","","",""
"","html-keyboard-response","350","407515","0.0-636.0","azenm3o6","2560","1440","","","","","","","","","","","537","pbz","Diagnostic trial","","j","11","0","false","true","RIGHT","j","1","","LEFT","false","","",""
"","html-keyboard-response","351","408269","0.0-639.0","azenm3o6","2560","1440","","","","","","","","","","","null","+","Fixation - short","","null","","","","","","","","","","","","",""
"","html-keyboard-response","352","408847","0.0-640.0","azenm3o6","2560","1440","","","","","","","","","","","578","bsh","Diagnostic trial","","j","11","1","false","true","RIGHT","j","1","","RIGHT","true","","",""
"","html-keyboard-response","353","409613","0.0-643.0","azenm3o6","2560","1440","","","","","","","","","","","null","+","Fixation - short","","null","","","","","","","","","","","","",""
"","html-keyboard-response","354","410078","0.0-644.0","azenm3o6","2560","1440","","","","","","","","","","","464","bsh","Diagnostic trial","","j","11","2","false","true","RIGHT","j","1","","RIGHT","true","","",""
"","html-keyboard-response","355","410834","0.0-647.0","azenm3o6","2560","1440","","","","","","","","","","","null","+","Fixation - short","","null","","","","","","","","","","","","",""
"","html-keyboard-response","356","411377","0.0-648.0","azenm3o6","2560","1440","","","","","","","","","","","542","bsh","Diagnostic trial","","j","11","3","false","true","RIGHT","j","1","","RIGHT","true","","",""
"","html-keyboard-response","357","412131","0.0-651.0","azenm3o6","2560","1440","","","","","","","","","","","null","+","Fixation - short","","null","","","","","","","","","","","","",""
"","html-keyboard-response","358","412599","0.0-652.0","azenm3o6","2560","1440","","","","","","","","","","","468","bsh","Diagnostic trial","","j","11","4","false","true","RIGHT","j","1","","RIGHT","true","","",""
"","html-keyboard-response","359","413351","0.0-655.0","azenm3o6","2560","1440","","","","","","","","","","","null","+","Fixation - short","","null","","","","","","","","","","","","",""
"","html-keyboard-response","360","413920","0.0-656.0","azenm3o6","2560","1440","","","","","","","","","","","568","bsh","Diagnostic trial","","f","11","5","false","false","LEFT","f","1","","RIGHT","false","","",""
"","html-keyboard-response","361","414671","0.0-659.0","azenm3o6","2560","1440","","","","","","","","","","","null","+","Fixation - short","","null","","","","","","","","","","","","",""
"","html-keyboard-response","362","415273","0.0-660.0","azenm3o6","2560","1440","","","","","","","","","","","602","bsh","Diagnostic trial","","j","11","6","false","true","RIGHT","j","1","","RIGHT","true","","",""
"","html-keyboard-response","363","416028","0.0-663.0","azenm3o6","2560","1440","","","","","","","","","","","null","+","Fixation - short","","null","","","","","","","","","","","","",""
"","html-keyboard-response","364","416656","0.0-664.0","azenm3o6","2560","1440","","","","","","","","","","","628","bsh","Diagnostic trial","","j","11","7","false","true","RIGHT","j","1","","RIGHT","true","","",""
"","html-keyboard-response","365","417408","0.0-667.0","azenm3o6","2560","1440","","","","","","","","","","","null","+","Fixation - short","","null","","","","","","","","","","","","",""
"","html-keyboard-response","366","418082","0.0-668.0","azenm3o6","2560","1440","","","","","","","","","","","674","pbz","Diagnostic trial","","j","11","8","false","true","RIGHT","j","1","","LEFT","false","","",""
"","html-keyboard-response","367","418846","0.0-671.0","azenm3o6","2560","1440","","","","","","","","","","","null","+","Fixation - short","","null","","","","","","","","","","","","",""
"","html-keyboard-response","368","419329","0.0-672.0","azenm3o6","2560","1440","","","","","","","","","","","483","bsh","Diagnostic trial","","j","11","9","false","true","RIGHT","j","1","","RIGHT","true","","",""
"","html-keyboard-response","369","420092","0.0-675.0","azenm3o6","2560","1440","","","","","","","","","","","null","+","Fixation - short","","null","","","","","","","","","","","","",""
"","html-keyboard-response","370","420757","0.0-676.0","azenm3o6","2560","1440","","","","","","","","","","","665","bsh","Diagnostic trial","","f","11","10","false","false","LEFT","f","1","","RIGHT","false","","",""
"","html-keyboard-response","371","421521","0.0-679.0","azenm3o6","2560","1440","","","","","","","","","","","null","+","Fixation - short","","null","","","","","","","","","","","","",""
"","html-keyboard-response","372","422788","0.0-680.0","azenm3o6","2560","1440","","","","","","","","","","","1266","bsh","Inducer trial","","f","11","","true","","","f","1","LEFT","","","","",""
"","html-keyboard-response","373","424290","0.0-683.0","azenm3o6","2560","1440","","","","","","","","","","","null","+","Fixation - long","","null","","","","","","","","","","","","",""
"","html-keyboard-response","374","426812","0.0-684.0","azenm3o6","2560","1440","","","","","","","","","","","2521","If ivr press RIGHT | If quy press LEFT","Inducer instructions",""," ","12","","","","","","","","","","","",""
"","html-keyboard-response","375","427564","0.0-685.0","azenm3o6","2560","1440","","","","","","","","","","","null","+","Fixation - short","","null","","","","","","","","","","","","",""
"","html-keyboard-response","376","428232","0.0-686.0","azenm3o6","2560","1440","","","","","","","","","","","668","quy","Diagnostic trial","","f","12","0","false","false","LEFT","f","1","","RIGHT","false","","",""
"","html-keyboard-response","377","428987","0.0-689.0","azenm3o6","2560","1440","","","","","","","","","","","null","+","Fixation - short","","null","","","","","","","","","","","","",""
"","html-keyboard-response","378","429414","0.0-690.0","azenm3o6","2560","1440","","","","","","","","","","","427","quy","Diagnostic trial","","f","12","1","false","false","LEFT","f","1","","RIGHT","false","","",""
"","html-keyboard-response","379","430178","0.0-693.0","azenm3o6","2560","1440","","","","","","","","","","","null","+","Fixation - short","","null","","","","","","","","","","","","",""
"","html-keyboard-response","380","430688","0.0-694.0","azenm3o6","2560","1440","","","","","","","","","","","509","quy","Diagnostic trial","","j","12","2","false","true","RIGHT","j","1","","RIGHT","true","","",""
"","html-keyboard-response","381","431441","0.0-697.0","azenm3o6","2560","1440","","","","","","","","","","","null","+","Fixation - short","","null","","","","","","","","","","","","",""
"","html-keyboard-response","382","431934","0.0-698.0","azenm3o6","2560","1440","","","","","","","","","","","493","ivr","Diagnostic trial","","j","12","3","false","true","RIGHT","j","1","","LEFT","false","","",""
"","html-keyboard-response","383","432694","0.0-701.0","azenm3o6","2560","1440","","","","","","","","","","","null","+","Fixation - short","","null","","","","","","","","","","","","",""
"","html-keyboard-response","384","433141","0.0-702.0","azenm3o6","2560","1440","","","","","","","","","","","446","quy","Diagnostic trial","","j","12","4","false","true","RIGHT","j","1","","RIGHT","true","","",""
"","html-keyboard-response","385","433896","0.0-705.0","azenm3o6","2560","1440","","","","","","","","","","","null","+","Fixation - short","","null","","","","","","","","","","","","",""
"","html-keyboard-response","386","434313","0.0-706.0","azenm3o6","2560","1440","","","","","","","","","","","416","ivr","Diagnostic trial","","j","12","5","false","true","RIGHT","j","1","","LEFT","false","","",""
"","html-keyboard-response","387","435077","0.0-709.0","azenm3o6","2560","1440","","","","","","","","","","","null","+","Fixation - short","","null","","","","","","","","","","","","",""
"","html-keyboard-response","388","435593","0.0-710.0","azenm3o6","2560","1440","","","","","","","","","","","516","quy","Diagnostic trial","","f","12","6","false","false","LEFT","f","1","","RIGHT","false","","",""
"","html-keyboard-response","389","436355","0.0-713.0","azenm3o6","2560","1440","","","","","","","","","","","null","+","Fixation - short","","null","","","","","","","","","","","","",""
"","html-keyboard-response","390","437267","0.0-714.0","azenm3o6","2560","1440","","","","","","","","","","","912","ivr","Diagnostic trial","","j","12","7","false","false","LEFT","f","0","","LEFT","true","","",""
"","call-function","391","437267","0.0-716.0-0.0","azenm3o6","","","","","","","","","","","","","","","","","","","","","","","","","","","","","",""
"","html-keyboard-response","392","437569","0.0-716.0-1.0","azenm3o6","2560","1440","","","","","","","","","","","null","Wrong","Feedback","","null","","","","","","","","","","","","",""
"","call-function","393","437569","0.0-716.0-2.0","azenm3o6","","","","","","","","","","","","","","","","","","","","","","","","","","","","","",""
"","html-keyboard-response","394","438323","0.0-717.0","azenm3o6","2560","1440","","","","","","","","","","","null","+","Fixation - short","","null","","","","","","","","","","","","",""
"","html-keyboard-response","395","439022","0.0-718.0","azenm3o6","2560","1440","","","","","","","","","","","699","quy","Diagnostic trial","","j","12","8","false","true","RIGHT","j","1","","RIGHT","true","","",""
"","html-keyboard-response","396","439779","0.0-721.0","azenm3o6","2560","1440","","","","","","","","","","","null","+","Fixation - short","","null","","","","","","","","","","","","",""
"","html-keyboard-response","397","440284","0.0-722.0","azenm3o6","2560","1440","","","","","","","","","","","505","quy","Diagnostic trial","","j","12","9","false","true","RIGHT","j","1","","RIGHT","true","","",""
"","html-keyboard-response","398","441042","0.0-725.0","azenm3o6","2560","1440","","","","","","","","","","","null","+","Fixation - short","","null","","","","","","","","","","","","",""
"","html-keyboard-response","399","441550","0.0-726.0","azenm3o6","2560","1440","","","","","","","","","","","507","quy","Diagnostic trial","","f","12","10","false","false","LEFT","f","1","","RIGHT","false","","",""
"","html-keyboard-response","400","442316","0.0-729.0","azenm3o6","2560","1440","","","","","","","","","","","null","+","Fixation - short","","null","","","","","","","","","","","","",""
"","html-keyboard-response","401","443213","0.0-730.0","azenm3o6","2560","1440","","","","","","","","","","","896","quy","Inducer trial","","f","12","","true","","","f","1","LEFT","","","","",""
"","html-keyboard-response","402","444728","0.0-733.0","azenm3o6","2560","1440","","","","","","","","","","","null","+","Fixation - long","","null","","","","","","","","","","","","",""
"","html-keyboard-response","403","447216","0.0-734.0","azenm3o6","2560","1440","","","","","","","","","","","2488","If gso press RIGHT | If lct press LEFT","Inducer instructions",""," ","13","","","","","","","","","","","",""
"","html-keyboard-response","404","447972","0.0-735.0","azenm3o6","2560","1440","","","","","","","","","","","null","+","Fixation - short","","null","","","","","","","","","","","","",""
"","html-keyboard-response","405","448640","0.0-736.0","azenm3o6","2560","1440","","","","","","","","","","","667","gso","Diagnostic trial","","f","13","0","false","false","LEFT","f","1","","LEFT","true","","",""
"","html-keyboard-response","406","449394","0.0-739.0","azenm3o6","2560","1440","","","","","","","","","","","null","+","Fixation - short","","null","","","","","","","","","","","","",""
"","html-keyboard-response","407","449808","0.0-740.0","azenm3o6","2560","1440","","","","","","","","","","","413","lct","Diagnostic trial","","j","13","1","false","true","RIGHT","j","1","","RIGHT","true","","",""
"","html-keyboard-response","408","450574","0.0-743.0","azenm3o6","2560","1440","","","","","","","","","","","null","+","Fixation - short","","null","","","","","","","","","","","","",""
"","html-keyboard-response","409","451349","0.0-744.0","azenm3o6","2560","1440","","","","","","","","","","","775","gso","Diagnostic trial","","f","13","2","false","false","LEFT","f","1","","LEFT","true","","",""
"","html-keyboard-response","410","452114","0.0-747.0","azenm3o6","2560","1440","","","","","","","","","","","null","+","Fixation - short","","null","","","","","","","","","","","","",""
"","html-keyboard-response","411","452572","0.0-748.0","azenm3o6","2560","1440","","","","","","","","","","","457","gso","Diagnostic trial","","f","13","3","false","false","LEFT","f","1","","LEFT","true","","",""
"","html-keyboard-response","412","453329","0.0-751.0","azenm3o6","2560","1440","","","","","","","","","","","null","+","Fixation - short","","null","","","","","","","","","","","","",""
"","html-keyboard-response","413","454049","0.0-752.0","azenm3o6","2560","1440","","","","","","","","","","","719","lct","Diagnostic trial","","f","13","4","false","false","LEFT","f","1","","RIGHT","false","","",""
"","html-keyboard-response","414","454812","0.0-755.0","azenm3o6","2560","1440","","","","","","","","","","","null","+","Fixation - short","","null","","","","","","","","","","","","",""
"","html-keyboard-response","415","455418","0.0-756.0","azenm3o6","2560","1440","","","","","","","","","","","605","lct","Diagnostic trial","","j","13","5","false","true","RIGHT","j","1","","RIGHT","true","","",""
"","html-keyboard-response","416","456169","0.0-759.0","azenm3o6","2560","1440","","","","","","","","","","","null","+","Fixation - short","","null","","","","","","","","","","","","",""
"","html-keyboard-response","417","456709","0.0-760.0","azenm3o6","2560","1440","","","","","","","","","","","539","lct","Diagnostic trial","","j","13","6","false","true","RIGHT","j","1","","RIGHT","true","","",""
"","html-keyboard-response","418","457470","0.0-763.0","azenm3o6","2560","1440","","","","","","","","","","","null","+","Fixation - short","","null","","","","","","","","","","","","",""
"","html-keyboard-response","419","458098","0.0-764.0","azenm3o6","2560","1440","","","","","","","","","","","628","lct","Diagnostic trial","","f","13","7","false","false","LEFT","f","1","","RIGHT","false","","",""
"","html-keyboard-response","420","458851","0.0-767.0","azenm3o6","2560","1440","","","","","","","","","","","null","+","Fixation - short","","null","","","","","","","","","","","","",""
"","html-keyboard-response","421","459680","0.0-768.0","azenm3o6","2560","1440","","","","","","","","","","","828","lct","Inducer trial","","f","13","","true","","","f","1","LEFT","","","","",""
"","html-keyboard-response","422","461194","0.0-771.0","azenm3o6","2560","1440","","","","","","","","","","","null","+","Fixation - long","","null","","","","","","","","","","","","",""
"","html-keyboard-response","423","462794","0.0-772.0","azenm3o6","2560","1440","","","","","","","","","","","1600","If guf press RIGHT | If crf press LEFT","Inducer instructions",""," ","14","","","","","","","","","","","",""
"","html-keyboard-response","424","463558","0.0-773.0","azenm3o6","2560","1440","","","","","","","","","","","null","+","Fixation - short","","null","","","","","","","","","","","","",""
"","html-keyboard-response","425","464169","0.0-774.0","azenm3o6","2560","1440","","","","","","","","","","","612","guf","Diagnostic trial","","f","14","0","false","false","LEFT","f","1","","LEFT","true","","",""
"","html-keyboard-response","426","464923","0.0-777.0","azenm3o6","2560","1440","","","","","","","","","","","null","+","Fixation - short","","null","","","","","","","","","","","","",""
"","html-keyboard-response","427","465327","0.0-778.0","azenm3o6","2560","1440","","","","","","","","","","","403","guf","Diagnostic trial","","f","14","1","false","false","LEFT","f","1","","LEFT","true","","",""
"","html-keyboard-response","428","466079","0.0-781.0","azenm3o6","2560","1440","","","","","","","","","","","null","+","Fixation - short","","null","","","","","","","","","","","","",""
"","html-keyboard-response","429","466928","0.0-782.0","azenm3o6","2560","1440","","","","","","","","","","","848","crf","Diagnostic trial","","f","14","2","false","false","LEFT","f","1","","RIGHT","false","","",""
"","html-keyboard-response","430","467691","0.0-785.0","azenm3o6","2560","1440","","","","","","","","","","","null","+","Fixation - short","","null","","","","","","","","","","","","",""
"","html-keyboard-response","431","468188","0.0-786.0","azenm3o6","2560","1440","","","","","","","","","","","498","guf","Diagnostic trial","","j","14","3","false","true","RIGHT","j","1","","LEFT","false","","",""
"","html-keyboard-response","432","468942","0.0-789.0","azenm3o6","2560","1440","","","","","","","","","","","null","+","Fixation - short","","null","","","","","","","","","","","","",""
"","html-keyboard-response","433","469625","0.0-790.0","azenm3o6","2560","1440","","","","","","","","","","","683","guf","Diagnostic trial","","j","14","4","false","true","RIGHT","j","1","","LEFT","false","","",""
"","html-keyboard-response","434","470390","0.0-793.0","azenm3o6","2560","1440","","","","","","","","","","","null","+","Fixation - short","","null","","","","","","","","","","","","",""
"","html-keyboard-response","435","471056","0.0-794.0","azenm3o6","2560","1440","","","","","","","","","","","665","guf","Diagnostic trial","","j","14","5","false","true","RIGHT","j","1","","LEFT","false","","",""
"","html-keyboard-response","436","471819","0.0-797.0","azenm3o6","2560","1440","","","","","","","","","","","null","+","Fixation - short","","null","","","","","","","","","","","","",""
"","html-keyboard-response","437","472349","0.0-798.0","azenm3o6","2560","1440","","","","","","","","","","","531","guf","Diagnostic trial","","j","14","6","false","true","RIGHT","j","1","","LEFT","false","","",""
"","html-keyboard-response","438","473109","0.0-801.0","azenm3o6","2560","1440","","","","","","","","","","","null","+","Fixation - short","","null","","","","","","","","","","","","",""
"","html-keyboard-response","439","473693","0.0-802.0","azenm3o6","2560","1440","","","","","","","","","","","584","crf","Diagnostic trial","","j","14","7","false","true","RIGHT","j","1","","RIGHT","true","","",""
"","html-keyboard-response","440","474456","0.0-805.0","azenm3o6","2560","1440","","","","","","","","","","","null","+","Fixation - short","","null","","","","","","","","","","","","",""
"","html-keyboard-response","441","474911","0.0-806.0","azenm3o6","2560","1440","","","","","","","","","","","455","guf","Diagnostic trial","","j","14","8","false","true","RIGHT","j","1","","LEFT","false","","",""
"","html-keyboard-response","442","475667","0.0-809.0","azenm3o6","2560","1440","","","","","","","","","","","null","+","Fixation - short","","null","","","","","","","","","","","","",""
"","html-keyboard-response","443","476200","0.0-810.0","azenm3o6","2560","1440","","","","","","","","","","","533","guf","Diagnostic trial","","f","14","9","false","false","LEFT","f","1","","LEFT","true","","",""
"","html-keyboard-response","444","476964","0.0-813.0","azenm3o6","2560","1440","","","","","","","","","","","null","+","Fixation - short","","null","","","","","","","","","","","","",""
"","html-keyboard-response","445","477844","0.0-814.0","azenm3o6","2560","1440","","","","","","","","","","","881","crf","Diagnostic trial","","j","14","10","false","true","RIGHT","j","1","","RIGHT","true","","",""
"","html-keyboard-response","446","478606","0.0-817.0","azenm3o6","2560","1440","","","","","","","","","","","null","+","Fixation - short","","null","","","","","","","","","","","","",""
"","html-keyboard-response","447","479102","0.0-818.0","azenm3o6","2560","1440","","","","","","","","","","","496","guf","Diagnostic trial","","f","14","11","false","false","LEFT","f","1","","LEFT","true","","",""
"","html-keyboard-response","448","479869","0.0-821.0","azenm3o6","2560","1440","","","","","","","","","","","null","+","Fixation - short","","null","","","","","","","","","","","","",""
"","html-keyboard-response","449","480395","0.0-822.0","azenm3o6","2560","1440","","","","","","","","","","","527","crf","Diagnostic trial","","j","14","12","false","true","RIGHT","j","1","","RIGHT","true","","",""
"","html-keyboard-response","450","481149","0.0-825.0","azenm3o6","2560","1440","","","","","","","","","","","null","+","Fixation - short","","null","","","","","","","","","","","","",""
"","html-keyboard-response","451","482202","0.0-826.0","azenm3o6","2560","1440","","","","","","","","","","","1053","guf","Inducer trial","","j","14","","true","","","j","1","RIGHT","","","","",""
"","html-keyboard-response","452","483710","0.0-829.0","azenm3o6","2560","1440","","","","","","","","","","","null","+","Fixation - long","","null","","","","","","","","","","","","",""
"","html-keyboard-response","453","485456","0.0-830.0","azenm3o6","2560","1440","","","","","","","","","","","1747","If prg press RIGHT | If jcr press LEFT","Inducer instructions",""," ","15","","","","","","","","","","","",""
"","html-keyboard-response","454","486218","0.0-831.0","azenm3o6","2560","1440","","","","","","","","","","","null","+","Fixation - short","","null","","","","","","","","","","","","",""
"","html-keyboard-response","455","486740","0.0-832.0","azenm3o6","2560","1440","","","","","","","","","","","522","prg","Diagnostic trial","","f","15","0","false","false","LEFT","f","1","","LEFT","true","","",""
"","html-keyboard-response","456","487495","0.0-835.0","azenm3o6","2560","1440","","","","","","","","","","","null","+","Fixation - short","","null","","","","","","","","","","","","",""
"","html-keyboard-response","457","487927","0.0-836.0","azenm3o6","2560","1440","","","","","","","","","","","432","prg","Diagnostic trial","","j","15","1","false","true","RIGHT","j","1","","LEFT","false","","",""
"","html-keyboard-response","458","488686","0.0-839.0","azenm3o6","2560","1440","","","","","","","","","","","null","+","Fixation - short","","null","","","","","","","","","","","","",""
"","html-keyboard-response","459","489115","0.0-840.0","azenm3o6","2560","1440","","","","","","","","","","","429","prg","Diagnostic trial","","j","15","2","false","true","RIGHT","j","1","","LEFT","false","","",""
"","html-keyboard-response","460","489875","0.0-843.0","azenm3o6","2560","1440","","","","","","","","","","","null","+","Fixation - short","","null","","","","","","","","","","","","",""
"","html-keyboard-response","461","490290","0.0-844.0","azenm3o6","2560","1440","","","","","","","","","","","415","prg","Diagnostic trial","","j","15","3","false","true","RIGHT","j","1","","LEFT","false","","",""
"","html-keyboard-response","462","491043","0.0-847.0","azenm3o6","2560","1440","","","","","","","","","","","null","+","Fixation - short","","null","","","","","","","","","","","","",""
"","html-keyboard-response","463","491803","0.0-848.0","azenm3o6","2560","1440","","","","","","","","","","","760","prg","Inducer trial","","j","15","","true","","","j","1","RIGHT","","","","",""
"","html-keyboard-response","464","493318","0.0-851.0","azenm3o6","2560","1440","","","","","","","","","","","null","+","Fixation - long","","null","","","","","","","","","","","","",""
"","html-keyboard-response","465","495110","0.0-852.0","azenm3o6","2560","1440","","","","","","","","","","","1792","If mts press RIGHT | If ttm press LEFT","Inducer instructions",""," ","16","","","","","","","","","","","",""
"","html-keyboard-response","466","495866","0.0-853.0","azenm3o6","2560","1440","","","","","","","","","","","null","+","Fixation - short","","null","","","","","","","","","","","","",""
"","html-keyboard-response","467","496523","0.0-854.0","azenm3o6","2560","1440","","","","","","","","","","","657","ttm","Diagnostic trial","","f","16","0","false","false","LEFT","f","1","","RIGHT","false","","",""
"","html-keyboard-response","468","497276","0.0-857.0","azenm3o6","2560","1440","","","","","","","","","","","null","+","Fixation - short","","null","","","","","","","","","","","","",""
"","html-keyboard-response","469","497915","0.0-858.0","azenm3o6","2560","1440","","","","","","","","","","","639","ttm","Diagnostic trial","","j","16","1","false","true","RIGHT","j","1","","RIGHT","true","","",""
"","html-keyboard-response","470","498679","0.0-861.0","azenm3o6","2560","1440","","","","","","","","","","","null","+","Fixation - short","","null","","","","","","","","","","","","",""
"","html-keyboard-response","471","499240","0.0-862.0","azenm3o6","2560","1440","","","","","","","","","","","560","mts","Diagnostic trial","","f","16","2","false","false","LEFT","f","1","","LEFT","true","","",""
"","html-keyboard-response","472","500004","0.0-865.0","azenm3o6","2560","1440","","","","","","","","","","","null","+","Fixation - short","","null","","","","","","","","","","","","",""
"","html-keyboard-response","473","500695","0.0-866.0","azenm3o6","2560","1440","","","","","","","","","","","690","ttm","Diagnostic trial","","f","16","3","false","false","LEFT","f","1","","RIGHT","false","","",""
"","html-keyboard-response","474","501456","0.0-869.0","azenm3o6","2560","1440","","","","","","","","","","","null","+","Fixation - short","","null","","","","","","","","","","","","",""
"","html-keyboard-response","475","501982","0.0-870.0","azenm3o6","2560","1440","","","","","","","","","","","525","ttm","Diagnostic trial","","f","16","4","false","false","LEFT","f","1","","RIGHT","false","","",""
"","html-keyboard-response","476","502733","0.0-873.0","azenm3o6","2560","1440","","","","","","","","","","","null","+","Fixation - short","","null","","","","","","","","","","","","",""
"","html-keyboard-response","477","503203","0.0-874.0","azenm3o6","2560","1440","","","","","","","","","","","470","ttm","Diagnostic trial","","f","16","5","false","false","LEFT","f","1","","RIGHT","false","","",""
"","html-keyboard-response","478","503953","0.0-877.0","azenm3o6","2560","1440","","","","","","","","","","","null","+","Fixation - short","","null","","","","","","","","","","","","",""
"","html-keyboard-response","479","505079","0.0-878.0","azenm3o6","2560","1440","","","","","","","","","","","1125","ttm","Inducer trial","","f","16","","true","","","f","1","LEFT","","","","",""
"","html-keyboard-response","480","506593","0.0-881.0","azenm3o6","2560","1440","","","","","","","","","","","null","+","Fixation - long","","null","","","","","","","","","","","","",""
"","html-keyboard-response","481","508354","0.0-882.0","azenm3o6","2560","1440","","","","","","","","","","","1760","If bms press RIGHT | If ori press LEFT","Inducer instructions",""," ","17","","","","","","","","","","","",""
"","html-keyboard-response","482","509114","0.0-883.0","azenm3o6","2560","1440","","","","","","","","","","","null","+","Fixation - short","","null","","","","","","","","","","","","",""
"","html-keyboard-response","483","509731","0.0-884.0","azenm3o6","2560","1440","","","","","","","","","","","617","ori","Diagnostic trial","","f","17","0","false","false","LEFT","f","1","","RIGHT","false","","",""
"","html-keyboard-response","484","510485","0.0-887.0","azenm3o6","2560","1440","","","","","","","","","","","null","+","Fixation - short","","null","","","","","","","","","","","","",""
"","html-keyboard-response","485","510949","0.0-888.0","azenm3o6","2560","1440","","","","","","","","","","","463","bms","Diagnostic trial","","j","17","1","false","true","RIGHT","j","1","","LEFT","false","","",""
"","html-keyboard-response","486","511710","0.0-891.0","azenm3o6","2560","1440","","","","","","","","","","","null","+","Fixation - short","","null","","","","","","","","","","","","",""
"","html-keyboard-response","487","512269","0.0-892.0","azenm3o6","2560","1440","","","","","","","","","","","559","ori","Diagnostic trial","","f","17","2","false","false","LEFT","f","1","","RIGHT","false","","",""
"","html-keyboard-response","488","513022","0.0-895.0","azenm3o6","2560","1440","","","","","","","","","","","null","+","Fixation - short","","null","","","","","","","","","","","","",""
"","html-keyboard-response","489","513508","0.0-896.0","azenm3o6","2560","1440","","","","","","","","","","","485","bms","Diagnostic trial","","j","17","3","false","true","RIGHT","j","1","","LEFT","false","","",""
"","html-keyboard-response","490","514271","0.0-899.0","azenm3o6","2560","1440","","","","","","","","","","","null","+","Fixation - short","","null","","","","","","","","","","","","",""
"","html-keyboard-response","491","514770","0.0-900.0","azenm3o6","2560","1440","","","","","","","","","","","498","bms","Diagnostic trial","","f","17","4","false","false","LEFT","f","1","","LEFT","true","","",""
"","html-keyboard-response","492","515527","0.0-903.0","azenm3o6","2560","1440","","","","","","","","","","","null","+","Fixation - short","","null","","","","","","","","","","","","",""
"","html-keyboard-response","493","516090","0.0-904.0","azenm3o6","2560","1440","","","","","","","","","","","563","ori","Diagnostic trial","","f","17","5","false","false","LEFT","f","1","","RIGHT","false","","",""
"","html-keyboard-response","494","516844","0.0-907.0","azenm3o6","2560","1440","","","","","","","","","","","null","+","Fixation - short","","null","","","","","","","","","","","","",""
