"value","trial_type","trial_index","time_elapsed","internal_node_id","id","width","height","webaudio","browser","browser_version","mobile","os","fullscreen","vsync_rate","webcam","microphone","view_history","rt","stimulus","trial_info","success","response","inducer_run","diagnostic_run","inducer_trial","italic","correct_diag_response_side","correct_response_key","correct_response","correct_indu_response_side","correct_inducer_response_side","congruent","accuracy","open_feedback","interactive"
"","call-function","0","2","0.0-0.0","0yoaazzx","","","","","","","","","","","","","","","","","","","","","","","","","","","","","",""
"","browser-check","1","995","0.0-1.0","0yoaazzx","935","510","true","chrome","121.0.0","false","Windows 10","true","60.78","true","true","","","","","","","","","","","","","","","","","","",""
"","instructions","2","88747","0.0-2.0","0yoaazzx","","","","","","","","","","","","[{""page_index"":0,""viewing_time"":35152},{""page_index"":1,""viewing_time"":30273},{""page_index"":2,""viewing_time"":22325}]","87751","The experiment and consent","The experiment and consent","","","","","","","","","","","","","","",""
"","fullscreen","3","122960","0.0-3.0","0yoaazzx","1366","768","","","","","","","","","","","33207","","Full screen","true","","","","","","","","","","","","","",""
"","instructions","4","199160","0.0-4.0","0yoaazzx","1366","768","","","","","","","","","","[{""page_index"":0,""viewing_time"":59551},{""page_index"":1,""viewing_time"":16649}]","76200","Instructions","Basic overview explanation","","","","","","","","","","","","","","",""
"","html-keyboard-response","5","220675","0.0-5.0","0yoaazzx","935","510","","","","","","","","","","","null","If italic press LEFT | If upright press RIGHT","Diagnostic instructions","","null","","","","","","","","","","","","",""
"","html-keyboard-response","6","221439","0.0-6.0","0yoaazzx","935","510","","","","","","","","","","","null","+","Fixation - short","","null","","","","","","","","","","","","",""
"","html-keyboard-response","7","222986","0.0-7.0","0yoaazzx","935","510","","","","","","","","","","","1547","hhd","Practice diganostic trial","","j","practice","0","false","0","RIGHT","j","1","","","","","",""
"","html-keyboard-response","8","223748","0.0-10.0","0yoaazzx","935","510","","","","","","","","","","","null","+","Fixation - short","","null","","","","","","","","","","","","",""
"","html-keyboard-response","9","224897","0.0-11.0","0yoaazzx","935","510","","","","","","","","","","","1149","hhd","Practice diganostic trial","","f","practice","1","false","1","LEFT","f","1","","","","","",""
"","html-keyboard-response","10","225670","0.0-14.0","0yoaazzx","935","510","","","","","","","","","","","null","+","Fixation - short","","null","","","","","","","","","","","","",""
"","html-keyboard-response","11","226333","0.0-15.0","0yoaazzx","935","510","","","","","","","","","","","662","hhd","Practice diganostic trial","","j","practice","2","false","0","RIGHT","j","1","","","","","",""
"","html-keyboard-response","12","227086","0.0-18.0","0yoaazzx","935","510","","","","","","","","","","","null","+","Fixation - short","","null","","","","","","","","","","","","",""
"","html-keyboard-response","13","227957","0.0-19.0","0yoaazzx","935","510","","","","","","","","","","","871","amb","Practice diganostic trial","","j","practice","3","false","0","RIGHT","j","1","","","","","",""
"","html-keyboard-response","14","228712","0.0-22.0","0yoaazzx","935","510","","","","","","","","","","","null","+","Fixation - short","","null","","","","","","","","","","","","",""
"","html-keyboard-response","15","229275","0.0-23.0","0yoaazzx","935","510","","","","","","","","","","","563","amb","Practice diganostic trial","","j","practice","4","false","0","RIGHT","j","1","","","","","",""
"","html-keyboard-response","16","230035","0.0-26.0","0yoaazzx","935","510","","","","","","","","","","","null","+","Fixation - short","","null","","","","","","","","","","","","",""
"","html-keyboard-response","17","231124","0.0-27.0","0yoaazzx","935","510","","","","","","","","","","","1089","amb","Practice diganostic trial","","j","practice","5","false","1","LEFT","f","0","","","","","",""
"","call-function","18","231124","0.0-29.0-0.0","0yoaazzx","","","","","","","","","","","","","","","","","","","","","","","","","","","","","",""
"","html-keyboard-response","19","231429","0.0-29.0-1.0","0yoaazzx","935","510","","","","","","","","","","","null","Wrong","Feedback","","null","","","","","","","","","","","","",""
"","call-function","20","231430","0.0-29.0-2.0","0yoaazzx","","","","","","","","","","","","","","","","","","","","","","","","","","","","","",""
"","html-keyboard-response","21","232196","0.0-30.0","0yoaazzx","935","510","","","","","","","","","","","null","+","Fixation - short","","null","","","","","","","","","","","","",""
"","html-keyboard-response","22","232825","0.0-31.0","0yoaazzx","935","510","","","","","","","","","","","629","hhd","Practice diganostic trial","","f","practice","6","false","1","LEFT","f","1","","","","","",""
"","html-keyboard-response","23","233588","0.0-34.0","0yoaazzx","935","510","","","","","","","","","","","null","+","Fixation - short","","null","","","","","","","","","","","","",""
"","html-keyboard-response","24","234267","0.0-35.0","0yoaazzx","935","510","","","","","","","","","","","678","amb","Practice diganostic trial","","f","practice","7","false","0","RIGHT","j","0","","","","","",""
"","call-function","25","234267","0.0-37.0-0.0","0yoaazzx","","","","","","","","","","","","","","","","","","","","","","","","","","","","","",""
"","html-keyboard-response","26","234572","0.0-37.0-1.0","0yoaazzx","935","510","","","","","","","","","","","null","Wrong","Feedback","","null","","","","","","","","","","","","",""
"","call-function","27","234572","0.0-37.0-2.0","0yoaazzx","","","","","","","","","","","","","","","","","","","","","","","","","","","","","",""
"","html-keyboard-response","28","235335","0.0-38.0","0yoaazzx","935","510","","","","","","","","","","","null","+","Fixation - short","","null","","","","","","","","","","","","",""
"","html-keyboard-response","29","236086","0.0-39.0","0yoaazzx","935","510","","","","","","","","","","","751","amb","Practice diganostic trial","","f","practice","8","false","1","LEFT","f","1","","","","","",""
"","html-keyboard-response","30","236852","0.0-42.0","0yoaazzx","935","510","","","","","","","","","","","null","+","Fixation - short","","null","","","","","","","","","","","","",""
"","html-keyboard-response","31","237684","0.0-43.0","0yoaazzx","935","510","","","","","","","","","","","832","hhd","Practice diganostic trial","","f","practice","9","false","1","LEFT","f","1","","","","","",""
"","html-keyboard-response","32","238440","0.0-46.0","0yoaazzx","935","510","","","","","","","","","","","null","+","Fixation - short","","null","","","","","","","","","","","","",""
"","html-keyboard-response","33","239033","0.0-47.0","0yoaazzx","935","510","","","","","","","","","","","592","amb","Practice diganostic trial","","f","practice","10","false","1","LEFT","f","1","","","","","",""
"","html-keyboard-response","34","239789","0.0-50.0","0yoaazzx","935","510","","","","","","","","","","","null","+","Fixation - short","","null","","","","","","","","","","","","",""
"","html-keyboard-response","35","240398","0.0-51.0","0yoaazzx","935","510","","","","","","","","","","","609","hhd","Practice diganostic trial","","f","practice","11","false","1","LEFT","f","1","","","","","",""
"","html-keyboard-response","36","241164","0.0-54.0","0yoaazzx","935","510","","","","","","","","","","","null","+","Fixation - short","","null","","","","","","","","","","","","",""
"","html-keyboard-response","37","242054","0.0-55.0","0yoaazzx","935","510","","","","","","","","","","","889","amb","Practice diganostic trial","","j","practice","12","false","0","RIGHT","j","1","","","","","",""
"","html-keyboard-response","38","242814","0.0-58.0","0yoaazzx","935","510","","","","","","","","","","","null","+","Fixation - short","","null","","","","","","","","","","","","",""
"","html-keyboard-response","39","243380","0.0-59.0","0yoaazzx","935","510","","","","","","","","","","","566","hhd","Practice diganostic trial","","f","practice","13","false","1","LEFT","f","1","","","","","",""
"","html-keyboard-response","40","244138","0.0-62.0","0yoaazzx","935","510","","","","","","","","","","","null","+","Fixation - short","","null","","","","","","","","","","","","",""
"","html-keyboard-response","41","244819","0.0-63.0","0yoaazzx","935","510","","","","","","","","","","","681","hhd","Practice diganostic trial","","j","practice","14","false","0","RIGHT","j","1","","","","","",""
"","html-keyboard-response","42","245583","0.0-66.0","0yoaazzx","935","510","","","","","","","","","","","null","+","Fixation - short","","null","","","","","","","","","","","","",""
"","html-keyboard-response","43","246396","0.0-67.0","0yoaazzx","935","510","","","","","","","","","","","813","hhd","Practice diganostic trial","","j","practice","15","false","0","RIGHT","j","1","","","","","",""
"","html-keyboard-response","44","247153","0.0-70.0","0yoaazzx","935","510","","","","","","","","","","","null","+","Fixation - short","","null","","","","","","","","","","","","",""
"","instructions","45","278180","0.0-71.0","0yoaazzx","935","510","","","","","","","","","","[{""page_index"":0,""viewing_time"":31027}]","31027","Instructions","Final experiment explanation","","","","","","","","","","","","","","",""
"","html-keyboard-response","46","299704","0.0-72.0","0yoaazzx","935","510","","","","","","","","","","","null","If cmj press LEFT | If lct press RIGHT","Practice inducer instructions","","null","practice","","","","","","","","","","","",""
"","html-keyboard-response","47","301110","0.0-73.0","0yoaazzx","935","510","","","","","","","","","","","1405","","Practice inducer trial","","j","practice","","true","","","j","1","RIGHT","","","","",""
"","html-keyboard-response","48","301868","0.0-76.0","0yoaazzx","935","510","","","","","","","","","","","null","+","Fixation - short","","null","","","","","","","","","","","","",""
"","html-keyboard-response","49","308966","0.0-77.0","0yoaazzx","935","510","","","","","","","","","","","7098","If jil press LEFT | If nga press RIGHT","Practice inducer instructions",""," ","practice","","","","","","","","","","","",""
"","html-keyboard-response","50","310055","0.0-78.0","0yoaazzx","935","510","","","","","","","","","","","1088","","Practice inducer trial","","f","practice","","true","","","f","1","LEFT","","","","",""
"","html-keyboard-response","51","310818","0.0-81.0","0yoaazzx","935","510","","","","","","","","","","","null","+","Fixation - short","","null","","","","","","","","","","","","",""
"","html-keyboard-response","52","317656","0.0-82.0","0yoaazzx","935","510","","","","","","","","","","","6837","If ori press LEFT | If pcm press RIGHT","Practice inducer instructions",""," ","practice","","","","","","","","","","","",""
"","html-keyboard-response","53","318726","0.0-83.0","0yoaazzx","935","510","","","","","","","","","","","1069","","Practice inducer trial","","j","practice","","true","","","j","1","RIGHT","","","","",""
"","html-keyboard-response","54","319480","0.0-86.0","0yoaazzx","935","510","","","","","","","","","","","null","+","Fixation - short","","null","","","","","","","","","","","","",""
"","html-keyboard-response","55","325097","0.0-87.0","0yoaazzx","935","510","","","","","","","","","","","5616","If asn press LEFT | If ccx press RIGHT","Practice inducer instructions",""," ","practice","","","","","","","","","","","",""
"","html-keyboard-response","56","326188","0.0-88.0","0yoaazzx","935","510","","","","","","","","","","","1091","","Practice inducer trial","","f","practice","","true","","","f","1","LEFT","","","","",""
"","html-keyboard-response","57","326946","0.0-91.0","0yoaazzx","935","510","","","","","","","","","","","null","+","Fixation - short","","null","","","","","","","","","","","","",""
"","html-keyboard-response","58","332956","0.0-92.0","0yoaazzx","935","510","","","","","","","","","","","6010","If ufc press LEFT | If mvv press RIGHT","Practice inducer instructions",""," ","practice","","","","","","","","","","","",""
"","html-keyboard-response","59","333693","0.0-93.0","0yoaazzx","935","510","","","","","","","","","","","736","","Practice inducer trial","","j","practice","","true","","","j","1","RIGHT","","","","",""
"","html-keyboard-response","60","334445","0.0-96.0","0yoaazzx","935","510","","","","","","","","","","","null","+","Fixation - short","","null","","","","","","","","","","","","",""
"","html-keyboard-response","61","337326","0.0-97.0","0yoaazzx","935","510","","","","","","","","","","","2880","If bwe press LEFT | If otr press RIGHT","Practice inducer instructions",""," ","practice","","","","","","","","","","","",""
"","html-keyboard-response","62","338037","0.0-98.0","0yoaazzx","935","510","","","","","","","","","","","711","","Practice inducer trial","","f","practice","","true","","","f","1","LEFT","","","","",""
"","html-keyboard-response","63","338788","0.0-101.0","0yoaazzx","935","510","","","","","","","","","","","null","+","Fixation - short","","null","","","","","","","","","","","","",""
"","html-keyboard-response","64","427166","0.0-102.0","0yoaazzx","935","510","","","","","","","","","","","88378","End practice","End of practice",""," ","","","","","","","","","","","","",""
"","html-keyboard-response","65","428677","0.0-103.0","0yoaazzx","935","510","","","","","","","","","","","null","+","Fixation - long","","null","","","","","","","","","","","","",""
"","html-keyboard-response","66","433075","0.0-104.0","0yoaazzx","935","510","","","","","","","","","","","4395","If xlv press LEFT | If hrc press RIGHT","Inducer instructions",""," ","0","","","","","","","","","","","",""
"","html-keyboard-response","67","433839","0.0-105.0","0yoaazzx","935","510","","","","","","","","","","","null","+","Fixation - short","","null","","","","","","","","","","","","",""
"","html-keyboard-response","68","435049","0.0-106.0","0yoaazzx","935","510","","","","","","","","","","","1210","xlv","Diagnostic trial","","f","0","0","false","false","RIGHT","j","0","","LEFT","false","","",""
"","call-function","69","435050","0.0-108.0-0.0","0yoaazzx","","","","","","","","","","","","","","","","","","","","","","","","","","","","","",""
"","html-keyboard-response","70","435359","0.0-108.0-1.0","0yoaazzx","935","510","","","","","","","","","","","null","Wrong","Feedback","","null","","","","","","","","","","","","",""
"","call-function","71","435360","0.0-108.0-2.0","0yoaazzx","","","","","","","","","","","","","","","","","","","","","","","","","","","","","",""
"","html-keyboard-response","72","436113","0.0-109.0","0yoaazzx","935","510","","","","","","","","","","","null","+","Fixation - short","","null","","","","","","","","","","","","",""
"","html-keyboard-response","73","436956","0.0-110.0","0yoaazzx","935","510","","","","","","","","","","","843","hrc","Diagnostic trial","","j","0","1","false","false","RIGHT","j","1","","RIGHT","true","","",""
"","html-keyboard-response","74","437714","0.0-113.0","0yoaazzx","935","510","","","","","","","","","","","null","+","Fixation - short","","null","","","","","","","","","","","","",""
"","html-keyboard-response","75","438887","0.0-114.0","0yoaazzx","935","510","","","","","","","","","","","1172","xlv","Diagnostic trial","","f","0","2","false","true","LEFT","f","1","","LEFT","true","","",""
"","html-keyboard-response","76","439665","0.0-117.0","0yoaazzx","935","510","","","","","","","","","","","null","+","Fixation - short","","null","","","","","","","","","","","","",""
"","html-keyboard-response","77","440501","0.0-118.0","0yoaazzx","935","510","","","","","","","","","","","836","xlv","Diagnostic trial","","f","0","3","false","false","RIGHT","j","0","","LEFT","false","","",""
"","call-function","78","440501","0.0-120.0-0.0","0yoaazzx","","","","","","","","","","","","","","","","","","","","","","","","","","","","","",""
"","html-keyboard-response","79","440805","0.0-120.0-1.0","0yoaazzx","935","510","","","","","","","","","","","null","Wrong","Feedback","","null","","","","","","","","","","","","",""
"","call-function","80","440806","0.0-120.0-2.0","0yoaazzx","","","","","","","","","","","","","","","","","","","","","","","","","","","","","",""
"","html-keyboard-response","81","441571","0.0-121.0","0yoaazzx","935","510","","","","","","","","","","","null","+","Fixation - short","","null","","","","","","","","","","","","",""
"","html-keyboard-response","82","442148","0.0-122.0","0yoaazzx","935","510","","","","","","","","","","","576","hrc","Diagnostic trial","","j","0","4","false","true","LEFT","f","0","","RIGHT","false","","",""
"","call-function","83","442148","0.0-124.0-0.0","0yoaazzx","","","","","","","","","","","","","","","","","","","","","","","","","","","","","",""
"","html-keyboard-response","84","442451","0.0-124.0-1.0","0yoaazzx","935","510","","","","","","","","","","","null","Wrong","Feedback","","null","","","","","","","","","","","","",""
"","call-function","85","442451","0.0-124.0-2.0","0yoaazzx","","","","","","","","","","","","","","","","","","","","","","","","","","","","","",""
"","html-keyboard-response","86","443203","0.0-125.0","0yoaazzx","935","510","","","","","","","","","","","null","+","Fixation - short","","null","","","","","","","","","","","","",""
"","html-keyboard-response","87","443845","0.0-126.0","0yoaazzx","935","510","","","","","","","","","","","641","hrc","Diagnostic trial","","f","0","5","false","false","RIGHT","j","0","","RIGHT","true","","",""
"","call-function","88","443846","0.0-128.0-0.0","0yoaazzx","","","","","","","","","","","","","","","","","","","","","","","","","","","","","",""
"","html-keyboard-response","89","444159","0.0-128.0-1.0","0yoaazzx","935","510","","","","","","","","","","","null","Wrong","Feedback","","null","","","","","","","","","","","","",""
"","call-function","90","444160","0.0-128.0-2.0","0yoaazzx","","","","","","","","","","","","","","","","","","","","","","","","","","","","","",""
"","html-keyboard-response","91","444912","0.0-129.0","0yoaazzx","935","510","","","","","","","","","","","null","+","Fixation - short","","null","","","","","","","","","","","","",""
"","html-keyboard-response","92","445578","0.0-130.0","0yoaazzx","935","510","","","","","","","","","","","665","xlv","Diagnostic trial","","j","0","6","false","false","RIGHT","j","1","","LEFT","false","","",""
"","html-keyboard-response","93","446335","0.0-133.0","0yoaazzx","935","510","","","","","","","","","","","null","+","Fixation - short","","null","","","","","","","","","","","","",""
"","html-keyboard-response","94","446968","0.0-134.0","0yoaazzx","935","510","","","","","","","","","","","633","hrc","Diagnostic trial","","f","0","7","false","true","LEFT","f","1","","RIGHT","false","","",""
"","html-keyboard-response","95","447730","0.0-137.0","0yoaazzx","935","510","","","","","","","","","","","null","+","Fixation - short","","null","","","","","","","","","","","","",""
"","html-keyboard-response","96","448595","0.0-138.0","0yoaazzx","935","510","","","","","","","","","","","864","xlv","Diagnostic trial","","j","0","8","false","true","LEFT","f","0","","LEFT","true","","",""
"","call-function","97","448595","0.0-140.0-0.0","0yoaazzx","","","","","","","","","","","","","","","","","","","","","","","","","","","","","",""
"","html-keyboard-response","98","448907","0.0-140.0-1.0","0yoaazzx","935","510","","","","","","","","","","","null","Wrong","Feedback","","null","","","","","","","","","","","","",""
"","call-function","99","448907","0.0-140.0-2.0","0yoaazzx","","","","","","","","","","","","","","","","","","","","","","","","","","","","","",""
"","html-keyboard-response","100","449660","0.0-141.0","0yoaazzx","935","510","","","","","","","","","","","null","+","Fixation - short","","null","","","","","","","","","","","","",""
"","html-keyboard-response","101","450202","0.0-142.0","0yoaazzx","935","510","","","","","","","","","","","541","hrc","Diagnostic trial","","f","0","9","false","false","RIGHT","j","0","","RIGHT","true","","",""
"","call-function","102","450202","0.0-144.0-0.0","0yoaazzx","","","","","","","","","","","","","","","","","","","","","","","","","","","","","",""
"","html-keyboard-response","103","450507","0.0-144.0-1.0","0yoaazzx","935","510","","","","","","","","","","","null","Wrong","Feedback","","null","","","","","","","","","","","","",""
"","call-function","104","450508","0.0-144.0-2.0","0yoaazzx","","","","","","","","","","","","","","","","","","","","","","","","","","","","","",""
"","html-keyboard-response","105","451272","0.0-145.0","0yoaazzx","935","510","","","","","","","","","","","null","+","Fixation - short","","null","","","","","","","","","","","","",""
"","html-keyboard-response","106","452076","0.0-146.0","0yoaazzx","935","510","","","","","","","","","","","803","xlv","Diagnostic trial","","f","0","10","false","true","LEFT","f","1","","LEFT","true","","",""
"","html-keyboard-response","107","452839","0.0-149.0","0yoaazzx","935","510","","","","","","","","","","","null","+","Fixation - short","","null","","","","","","","","","","","","",""
"","html-keyboard-response","108","453638","0.0-150.0","0yoaazzx","935","510","","","","","","","","","","","799","hrc","Diagnostic trial","","j","0","11","false","false","RIGHT","j","1","","RIGHT","true","","",""
"","html-keyboard-response","109","454396","0.0-153.0","0yoaazzx","935","510","","","","","","","","","","","null","+","Fixation - short","","null","","","","","","","","","","","","",""
"","html-keyboard-response","110","455002","0.0-154.0","0yoaazzx","935","510","","","","","","","","","","","606","hrc","Diagnostic trial","","j","0","12","false","false","RIGHT","j","1","","RIGHT","true","","",""
"","html-keyboard-response","111","455765","0.0-157.0","0yoaazzx","935","510","","","","","","","","","","","null","+","Fixation - short","","null","","","","","","","","","","","","",""
"","html-keyboard-response","112","456677","0.0-158.0","0yoaazzx","935","510","","","","","","","","","","","912","hrc","Diagnostic trial","","j","0","13","false","true","LEFT","f","0","","RIGHT","false","","",""
"","call-function","113","456677","0.0-160.0-0.0","0yoaazzx","","","","","","","","","","","","","","","","","","","","","","","","","","","","","",""
"","html-keyboard-response","114","456991","0.0-160.0-1.0","0yoaazzx","935","510","","","","","","","","","","","null","Wrong","Feedback","","null","","","","","","","","","","","","",""
"","call-function","115","456991","0.0-160.0-2.0","0yoaazzx","","","","","","","","","","","","","","","","","","","","","","","","","","","","","",""
"","html-keyboard-response","116","457746","0.0-161.0","0yoaazzx","935","510","","","","","","","","","","","null","+","Fixation - short","","null","","","","","","","","","","","","",""
"","html-keyboard-response","117","458769","0.0-162.0","0yoaazzx","935","510","","","","","","","","","","","1023","xlv","Diagnostic trial","","f","0","14","false","true","LEFT","f","1","","LEFT","true","","",""
"","html-keyboard-response","118","459534","0.0-165.0","0yoaazzx","935","510","","","","","","","","","","","null","+","Fixation - short","","null","","","","","","","","","","","","",""
"","html-keyboard-response","119","460223","0.0-166.0","0yoaazzx","935","510","","","","","","","","","","","689","xlv","Diagnostic trial","","j","0","15","false","true","LEFT","f","0","","LEFT","true","","",""
"","call-function","120","460223","0.0-168.0-0.0","0yoaazzx","","","","","","","","","","","","","","","","","","","","","","","","","","","","","",""
"","html-keyboard-response","121","460539","0.0-168.0-1.0","0yoaazzx","935","510","","","","","","","","","","","null","Wrong","Feedback","","null","","","","","","","","","","","","",""
"","call-function","122","460539","0.0-168.0-2.0","0yoaazzx","","","","","","","","","","","","","","","","","","","","","","","","","","","","","",""
"","html-keyboard-response","123","461292","0.0-169.0","0yoaazzx","935","510","","","","","","","","","","","null","+","Fixation - short","","null","","","","","","","","","","","","",""
"","html-keyboard-response","124","463090","0.0-170.0","0yoaazzx","935","510","","","","","","","","","","","1797","xlv","Inducer trial","","f","0","","true","","","f","1","LEFT","","","","",""
"","html-keyboard-response","125","464591","0.0-173.0","0yoaazzx","935","510","","","","","","","","","","","null","+","Fixation - long","","null","","","","","","","","","","","","",""
"","html-keyboard-response","126","471583","0.0-174.0","0yoaazzx","935","510","","","","","","","","","","","6991","If rrd press LEFT | If upf press RIGHT","Inducer instructions",""," ","1","","","","","","","","","","","",""
"","html-keyboard-response","127","472349","0.0-175.0","0yoaazzx","935","510","","","","","","","","","","","null","+","Fixation - short","","null","","","","","","","","","","","","",""
"","html-keyboard-response","128","473713","0.0-176.0","0yoaazzx","935","510","","","","","","","","","","","1364","upf","Diagnostic trial","","j","1","0","false","true","LEFT","f","0","","RIGHT","false","","",""
"","call-function","129","473714","0.0-178.0-0.0","0yoaazzx","","","","","","","","","","","","","","","","","","","","","","","","","","","","","",""
"","html-keyboard-response","130","474026","0.0-178.0-1.0","0yoaazzx","935","510","","","","","","","","","","","null","Wrong","Feedback","","null","","","","","","","","","","","","",""
"","call-function","131","474026","0.0-178.0-2.0","0yoaazzx","","","","","","","","","","","","","","","","","","","","","","","","","","","","","",""
"","html-keyboard-response","132","474780","0.0-179.0","0yoaazzx","935","510","","","","","","","","","","","null","+","Fixation - short","","null","","","","","","","","","","","","",""
"","html-keyboard-response","133","475542","0.0-180.0","0yoaazzx","935","510","","","","","","","","","","","761","upf","Diagnostic trial","","j","1","1","false","true","LEFT","f","0","","RIGHT","false","","",""
"","call-function","134","475542","0.0-182.0-0.0","0yoaazzx","","","","","","","","","","","","","","","","","","","","","","","","","","","","","",""
"","html-keyboard-response","135","475849","0.0-182.0-1.0","0yoaazzx","935","510","","","","","","","","","","","null","Wrong","Feedback","","null","","","","","","","","","","","","",""
"","call-function","136","475849","0.0-182.0-2.0","0yoaazzx","","","","","","","","","","","","","","","","","","","","","","","","","","","","","",""
"","html-keyboard-response","137","476613","0.0-183.0","0yoaazzx","935","510","","","","","","","","","","","null","+","Fixation - short","","null","","","","","","","","","","","","",""
"","html-keyboard-response","138","477484","0.0-184.0","0yoaazzx","935","510","","","","","","","","","","","870","rrd","Diagnostic trial","","f","1","2","false","false","RIGHT","j","0","","LEFT","false","","",""
"","call-function","139","477484","0.0-186.0-0.0","0yoaazzx","","","","","","","","","","","","","","","","","","","","","","","","","","","","","",""
"","html-keyboard-response","140","477789","0.0-186.0-1.0","0yoaazzx","935","510","","","","","","","","","","","null","Wrong","Feedback","","null","","","","","","","","","","","","",""
"","call-function","141","477789","0.0-186.0-2.0","0yoaazzx","","","","","","","","","","","","","","","","","","","","","","","","","","","","","",""
"","html-keyboard-response","142","478543","0.0-187.0","0yoaazzx","935","510","","","","","","","","","","","null","+","Fixation - short","","null","","","","","","","","","","","","",""
"","html-keyboard-response","143","479101","0.0-188.0","0yoaazzx","935","510","","","","","","","","","","","557","rrd","Diagnostic trial","","j","1","3","false","false","RIGHT","j","1","","LEFT","false","","",""
"","html-keyboard-response","144","479867","0.0-191.0","0yoaazzx","935","510","","","","","","","","","","","null","+","Fixation - short","","null","","","","","","","","","","","","",""
"","html-keyboard-response","145","480463","0.0-192.0","0yoaazzx","935","510","","","","","","","","","","","596","upf","Diagnostic trial","","f","1","4","false","false","RIGHT","j","0","","RIGHT","true","","",""
"","call-function","146","480463","0.0-194.0-0.0","0yoaazzx","","","","","","","","","","","","","","","","","","","","","","","","","","","","","",""
"","html-keyboard-response","147","480779","0.0-194.0-1.0","0yoaazzx","935","510","","","","","","","","","","","null","Wrong","Feedback","","null","","","","","","","","","","","","",""
"","call-function","148","480780","0.0-194.0-2.0","0yoaazzx","","","","","","","","","","","","","","","","","","","","","","","","","","","","","",""
"","html-keyboard-response","149","481532","0.0-195.0","0yoaazzx","935","510","","","","","","","","","","","null","+","Fixation - short","","null","","","","","","","","","","","","",""
"","html-keyboard-response","150","482098","0.0-196.0","0yoaazzx","935","510","","","","","","","","","","","566","upf","Diagnostic trial","","j","1","5","false","true","LEFT","f","0","","RIGHT","false","","",""
"","call-function","151","482099","0.0-198.0-0.0","0yoaazzx","","","","","","","","","","","","","","","","","","","","","","","","","","","","","",""
"","html-keyboard-response","152","482414","0.0-198.0-1.0","0yoaazzx","935","510","","","","","","","","","","","null","Wrong","Feedback","","null","","","","","","","","","","","","",""
"","call-function","153","482414","0.0-198.0-2.0","0yoaazzx","","","","","","","","","","","","","","","","","","","","","","","","","","","","","",""
"","html-keyboard-response","154","483169","0.0-199.0","0yoaazzx","935","510","","","","","","","","","","","null","+","Fixation - short","","null","","","","","","","","","","","","",""
"","html-keyboard-response","155","483814","0.0-200.0","0yoaazzx","935","510","","","","","","","","","","","644","rrd","Diagnostic trial","","f","1","6","false","false","RIGHT","j","0","","LEFT","false","","",""
"","call-function","156","483815","0.0-202.0-0.0","0yoaazzx","","","","","","","","","","","","","","","","","","","","","","","","","","","","","",""
"","html-keyboard-response","157","484126","0.0-202.0-1.0","0yoaazzx","935","510","","","","","","","","","","","null","Wrong","Feedback","","null","","","","","","","","","","","","",""
"","call-function","158","484126","0.0-202.0-2.0","0yoaazzx","","","","","","","","","","","","","","","","","","","","","","","","","","","","","",""
"","html-keyboard-response","159","484879","0.0-203.0","0yoaazzx","935","510","","","","","","","","","","","null","+","Fixation - short","","null","","","","","","","","","","","","",""
"","html-keyboard-response","160","485352","0.0-204.0","0yoaazzx","935","510","","","","","","","","","","","472","rrd","Diagnostic trial","","j","1","7","false","true","LEFT","f","0","","LEFT","true","","",""
"","call-function","161","485352","0.0-206.0-0.0","0yoaazzx","","","","","","","","","","","","","","","","","","","","","","","","","","","","","",""
"","html-keyboard-response","162","485663","0.0-206.0-1.0","0yoaazzx","935","510","","","","","","","","","","","null","Wrong","Feedback","","null","","","","","","","","","","","","",""
"","call-function","163","485664","0.0-206.0-2.0","0yoaazzx","","","","","","","","","","","","","","","","","","","","","","","","","","","","","",""
"","html-keyboard-response","164","486415","0.0-207.0","0yoaazzx","935","510","","","","","","","","","","","null","+","Fixation - short","","null","","","","","","","","","","","","",""
"","html-keyboard-response","165","487047","0.0-208.0","0yoaazzx","935","510","","","","","","","","","","","631","rrd","Diagnostic trial","","f","1","8","false","true","LEFT","f","1","","LEFT","true","","",""
"","html-keyboard-response","166","487798","0.0-211.0","0yoaazzx","935","510","","","","","","","","","","","null","+","Fixation - short","","null","","","","","","","","","","","","",""
"","html-keyboard-response","167","488476","0.0-212.0","0yoaazzx","935","510","","","","","","","","","","","677","rrd","Diagnostic trial","","f","1","9","false","false","RIGHT","j","0","","LEFT","false","","",""
"","call-function","168","488476","0.0-214.0-0.0","0yoaazzx","","","","","","","","","","","","","","","","","","","","","","","","","","","","","",""
"","html-keyboard-response","169","488789","0.0-214.0-1.0","0yoaazzx","935","510","","","","","","","","","","","null","Wrong","Feedback","","null","","","","","","","","","","","","",""
"","call-function","170","488790","0.0-214.0-2.0","0yoaazzx","","","","","","","","","","","","","","","","","","","","","","","","","","","","","",""
"","html-keyboard-response","171","489556","0.0-215.0","0yoaazzx","935","510","","","","","","","","","","","null","+","Fixation - short","","null","","","","","","","","","","","","",""
"","html-keyboard-response","172","490312","0.0-216.0","0yoaazzx","935","510","","","","","","","","","","","755","rrd","Diagnostic trial","","f","1","10","false","false","RIGHT","j","0","","LEFT","false","","",""
"","call-function","173","490313","0.0-218.0-0.0","0yoaazzx","","","","","","","","","","","","","","","","","","","","","","","","","","","","","",""
"","html-keyboard-response","174","490622","0.0-218.0-1.0","0yoaazzx","935","510","","","","","","","","","","","null","Wrong","Feedback","","null","","","","","","","","","","","","",""
"","call-function","175","490622","0.0-218.0-2.0","0yoaazzx","","","","","","","","","","","","","","","","","","","","","","","","","","","","","",""
"","html-keyboard-response","176","491375","0.0-219.0","0yoaazzx","935","510","","","","","","","","","","","null","+","Fixation - short","","null","","","","","","","","","","","","",""
"","html-keyboard-response","177","491860","0.0-220.0","0yoaazzx","935","510","","","","","","","","","","","484","upf","Diagnostic trial","","j","1","11","false","true","LEFT","f","0","","RIGHT","false","","",""
"","call-function","178","491860","0.0-222.0-0.0","0yoaazzx","","","","","","","","","","","","","","","","","","","","","","","","","","","","","",""
"","html-keyboard-response","179","492174","0.0-222.0-1.0","0yoaazzx","935","510","","","","","","","","","","","null","Wrong","Feedback","","null","","","","","","","","","","","","",""
"","call-function","180","492174","0.0-222.0-2.0","0yoaazzx","","","","","","","","","","","","","","","","","","","","","","","","","","","","","",""
"","html-keyboard-response","181","492941","0.0-223.0","0yoaazzx","935","510","","","","","","","","","","","null","+","Fixation - short","","null","","","","","","","","","","","","",""
"","html-keyboard-response","182","493424","0.0-224.0","0yoaazzx","935","510","","","","","","","","","","","482","rrd","Diagnostic trial","","f","1","12","false","false","RIGHT","j","0","","LEFT","false","","",""
"","call-function","183","493424","0.0-226.0-0.0","0yoaazzx","","","","","","","","","","","","","","","","","","","","","","","","","","","","","",""
"","html-keyboard-response","184","493728","0.0-226.0-1.0","0yoaazzx","935","510","","","","","","","","","","","null","Wrong","Feedback","","null","","","","","","","","","","","","",""
"","call-function","185","493728","0.0-226.0-2.0","0yoaazzx","","","","","","","","","","","","","","","","","","","","","","","","","","","","","",""
"","html-keyboard-response","186","494490","0.0-227.0","0yoaazzx","935","510","","","","","","","","","","","null","+","Fixation - short","","null","","","","","","","","","","","","",""
"","html-keyboard-response","187","494903","0.0-228.0","0yoaazzx","935","510","","","","","","","","","","","412","rrd","Inducer trial","","j","1","","true","","","f","0","LEFT","","","","",""
"","call-function","188","494904","0.0-230.0-0.0","0yoaazzx","","","","","","","","","","","","","","","","","","","","","","","","","","","","","",""
"","html-keyboard-response","189","495210","0.0-230.0-1.0","0yoaazzx","935","510","","","","","","","","","","","null","Wrong","Feedback","","null","","","","","","","","","","","","",""
"","call-function","190","495210","0.0-230.0-2.0","0yoaazzx","","","","","","","","","","","","","","","","","","","","","","","","","","","","","",""
"","html-keyboard-response","191","496717","0.0-231.0","0yoaazzx","935","510","","","","","","","","","","","null","+","Fixation - long","","null","","","","","","","","","","","","",""
"","html-keyboard-response","192","503173","0.0-232.0","0yoaazzx","935","510","","","","","","","","","","","6455","If frn press LEFT | If cui press RIGHT","Inducer instructions",""," ","2","","","","","","","","","","","",""
"","html-keyboard-response","193","503931","0.0-233.0","0yoaazzx","935","510","","","","","","","","","","","null","+","Fixation - short","","null","","","","","","","","","","","","",""
"","html-keyboard-response","194","504473","0.0-234.0","0yoaazzx","935","510","","","","","","","","","","","542","frn","Diagnostic trial","","f","2","0","false","false","RIGHT","j","0","","LEFT","false","","",""
"","call-function","195","504473","0.0-236.0-0.0","0yoaazzx","","","","","","","","","","","","","","","","","","","","","","","","","","","","","",""
"","html-keyboard-response","196","504789","0.0-236.0-1.0","0yoaazzx","935","510","","","","","","","","","","","null","Wrong","Feedback","","null","","","","","","","","","","","","",""
"","call-function","197","504789","0.0-236.0-2.0","0yoaazzx","","","","","","","","","","","","","","","","","","","","","","","","","","","","","",""
"","html-keyboard-response","198","505556","0.0-237.0","0yoaazzx","935","510","","","","","","","","","","","null","+","Fixation - short","","null","","","","","","","","","","","","",""
"","html-keyboard-response","199","506391","0.0-238.0","0yoaazzx","935","510","","","","","","","","","","","834","cui","Diagnostic trial","","j","2","1","false","false","RIGHT","j","1","","RIGHT","true","","",""
"","html-keyboard-response","200","507143","0.0-241.0","0yoaazzx","935","510","","","","","","","","","","","null","+","Fixation - short","","null","","","","","","","","","","","","",""
"","html-keyboard-response","201","507987","0.0-242.0","0yoaazzx","935","510","","","","","","","","","","","843","frn","Diagnostic trial","","j","2","2","false","false","RIGHT","j","1","","LEFT","false","","",""
"","html-keyboard-response","202","508753","0.0-245.0","0yoaazzx","935","510","","","","","","","","","","","null","+","Fixation - short","","null","","","","","","","","","","","","",""
"","html-keyboard-response","203","509322","0.0-246.0","0yoaazzx","935","510","","","","","","","","","","","569","cui","Diagnostic trial","","f","2","3","false","false","RIGHT","j","0","","RIGHT","true","","",""
"","call-function","204","509322","0.0-248.0-0.0","0yoaazzx","","","","","","","","","","","","","","","","","","","","","","","","","","","","","",""
"","html-keyboard-response","205","509626","0.0-248.0-1.0","0yoaazzx","935","510","","","","","","","","","","","null","Wrong","Feedback","","null","","","","","","","","","","","","",""
"","call-function","206","509626","0.0-248.0-2.0","0yoaazzx","","","","","","","","","","","","","","","","","","","","","","","","","","","","","",""
"","html-keyboard-response","207","510392","0.0-249.0","0yoaazzx","935","510","","","","","","","","","","","null","+","Fixation - short","","null","","","","","","","","","","","","",""
"","html-keyboard-response","208","510736","0.0-250.0","0yoaazzx","935","510","","","","","","","","","","","344","frn","Diagnostic trial","","j","2","4","false","true","LEFT","f","0","","LEFT","true","","",""
"","call-function","209","510737","0.0-252.0-0.0","0yoaazzx","","","","","","","","","","","","","","","","","","","","","","","","","","","","","",""
"","html-keyboard-response","210","511047","0.0-252.0-1.0","0yoaazzx","935","510","","","","","","","","","","","null","Wrong","Feedback","","null","","","","","","","","","","","","",""
"","call-function","211","511047","0.0-252.0-2.0","0yoaazzx","","","","","","","","","","","","","","","","","","","","","","","","","","","","","",""
"","html-keyboard-response","212","511798","0.0-253.0","0yoaazzx","935","510","","","","","","","","","","","null","+","Fixation - short","","null","","","","","","","","","","","","",""
"","html-keyboard-response","213","512172","0.0-254.0","0yoaazzx","935","510","","","","","","","","","","","373","cui","Diagnostic trial","","f","2","5","false","true","LEFT","f","1","","RIGHT","false","","",""
"","html-keyboard-response","214","512926","0.0-257.0","0yoaazzx","935","510","","","","","","","","","","","null","+","Fixation - short","","null","","","","","","","","","","","","",""
"","html-keyboard-response","215","513710","0.0-258.0","0yoaazzx","935","510","","","","","","","","","","","783","frn","Diagnostic trial","","j","2","6","false","false","RIGHT","j","1","","LEFT","false","","",""
"","html-keyboard-response","216","514465","0.0-261.0","0yoaazzx","935","510","","","","","","","","","","","null","+","Fixation - short","","null","","","","","","","","","","","","",""
"","html-keyboard-response","217","515231","0.0-262.0","0yoaazzx","935","510","","","","","","","","","","","766","cui","Diagnostic trial","","f","2","7","false","true","LEFT","f","1","","RIGHT","false","","",""
"","html-keyboard-response","218","515987","0.0-265.0","0yoaazzx","935","510","","","","","","","","","","","null","+","Fixation - short","","null","","","","","","","","","","","","",""
"","html-keyboard-response","219","516514","0.0-266.0","0yoaazzx","935","510","","","","","","","","","","","526","cui","Diagnostic trial","","j","2","8","false","false","RIGHT","j","1","","RIGHT","true","","",""
"","html-keyboard-response","220","517271","0.0-269.0","0yoaazzx","935","510","","","","","","","","","","","null","+","Fixation - short","","null","","","","","","","","","","","","",""
"","html-keyboard-response","221","518414","0.0-270.0","0yoaazzx","935","510","","","","","","","","","","","1143","frn","Diagnostic trial","","f","2","9","false","false","RIGHT","j","0","","LEFT","false","","",""
"","call-function","222","518415","0.0-272.0-0.0","0yoaazzx","","","","","","","","","","","","","","","","","","","","","","","","","","","","","",""
"","html-keyboard-response","223","518718","0.0-272.0-1.0","0yoaazzx","935","510","","","","","","","","","","","null","Wrong","Feedback","","null","","","","","","","","","","","","",""
"","call-function","224","518718","0.0-272.0-2.0","0yoaazzx","","","","","","","","","","","","","","","","","","","","","","","","","","","","","",""
"","html-keyboard-response","225","519472","0.0-273.0","0yoaazzx","935","510","","","","","","","","","","","null","+","Fixation - short","","null","","","","","","","","","","","","",""
"","html-keyboard-response","226","520110","0.0-274.0","0yoaazzx","935","510","","","","","","","","","","","638","cui","Diagnostic trial","","j","2","10","false","true","LEFT","f","0","","RIGHT","false","","",""
"","call-function","227","520110","0.0-276.0-0.0","0yoaazzx","","","","","","","","","","","","","","","","","","","","","","","","","","","","","",""
"","html-keyboard-response","228","520417","0.0-276.0-1.0","0yoaazzx","935","510","","","","","","","","","","","null","Wrong","Feedback","","null","","","","","","","","","","","","",""
"","call-function","229","520417","0.0-276.0-2.0","0yoaazzx","","","","","","","","","","","","","","","","","","","","","","","","","","","","","",""
"","html-keyboard-response","230","521169","0.0-277.0","0yoaazzx","935","510","","","","","","","","","","","null","+","Fixation - short","","null","","","","","","","","","","","","",""
"","html-keyboard-response","231","521867","0.0-278.0","0yoaazzx","935","510","","","","","","","","","","","697","frn","Diagnostic trial","","f","2","11","false","false","RIGHT","j","0","","LEFT","false","","",""
"","call-function","232","521867","0.0-280.0-0.0","0yoaazzx","","","","","","","","","","","","","","","","","","","","","","","","","","","","","",""
"","html-keyboard-response","233","522171","0.0-280.0-1.0","0yoaazzx","935","510","","","","","","","","","","","null","Wrong","Feedback","","null","","","","","","","","","","","","",""
"","call-function","234","522171","0.0-280.0-2.0","0yoaazzx","","","","","","","","","","","","","","","","","","","","","","","","","","","","","",""
"","html-keyboard-response","235","522936","0.0-281.0","0yoaazzx","935","510","","","","","","","","","","","null","+","Fixation - short","","null","","","","","","","","","","","","",""
"","html-keyboard-response","236","523514","0.0-282.0","0yoaazzx","935","510","","","","","","","","","","","577","frn","Inducer trial","","j","2","","true","","","f","0","LEFT","","","","",""
"","call-function","237","523515","0.0-284.0-0.0","0yoaazzx","","","","","","","","","","","","","","","","","","","","","","","","","","","","","",""
"","html-keyboard-response","238","523828","0.0-284.0-1.0","0yoaazzx","935","510","","","","","","","","","","","null","Wrong","Feedback","","null","","","","","","","","","","","","",""
"","call-function","239","523828","0.0-284.0-2.0","0yoaazzx","","","","","","","","","","","","","","","","","","","","","","","","","","","","","",""
"","html-keyboard-response","240","525338","0.0-285.0","0yoaazzx","935","510","","","","","","","","","","","null","+","Fixation - long","","null","","","","","","","","","","","","",""
"","html-keyboard-response","241","528872","0.0-286.0","0yoaazzx","935","510","","","","","","","","","","","3534","If cpt press LEFT | If pxv press RIGHT","Inducer instructions",""," ","3","","","","","","","","","","","",""
"","html-keyboard-response","242","529625","0.0-287.0","0yoaazzx","935","510","","","","","","","","","","","null","+","Fixation - short","","null","","","","","","","","","","","","",""
"","html-keyboard-response","243","530056","0.0-288.0","0yoaazzx","935","510","","","","","","","","","","","430","cpt","Diagnostic trial","","f","3","0","false","false","RIGHT","j","0","","LEFT","false","","",""
"","call-function","244","530056","0.0-290.0-0.0","0yoaazzx","","","","","","","","","","","","","","","","","","","","","","","","","","","","","",""
"","html-keyboard-response","245","530360","0.0-290.0-1.0","0yoaazzx","935","510","","","","","","","","","","","null","Wrong","Feedback","","null","","","","","","","","","","","","",""
"","call-function","246","530360","0.0-290.0-2.0","0yoaazzx","","","","","","","","","","","","","","","","","","","","","","","","","","","","","",""
"","html-keyboard-response","247","531114","0.0-291.0","0yoaazzx","935","510","","","","","","","","","","","null","+","Fixation - short","","null","","","","","","","","","","","","",""
"","html-keyboard-response","248","531914","0.0-292.0","0yoaazzx","935","510","","","","","","","","","","","800","pxv","Diagnostic trial","","j","3","1","false","true","LEFT","f","0","","RIGHT","false","","",""
"","call-function","249","531914","0.0-294.0-0.0","0yoaazzx","","","","","","","","","","","","","","","","","","","","","","","","","","","","","",""
"","html-keyboard-response","250","532221","0.0-294.0-1.0","0yoaazzx","935","510","","","","","","","","","","","null","Wrong","Feedback","","null","","","","","","","","","","","","",""
"","call-function","251","532221","0.0-294.0-2.0","0yoaazzx","","","","","","","","","","","","","","","","","","","","","","","","","","","","","",""
"","html-keyboard-response","252","532978","0.0-295.0","0yoaazzx","935","510","","","","","","","","","","","null","+","Fixation - short","","null","","","","","","","","","","","","",""
"","html-keyboard-response","253","534447","0.0-296.0","0yoaazzx","935","510","","","","","","","","","","","1467","pxv","Diagnostic trial","","j","3","2","false","false","RIGHT","j","1","","RIGHT","true","","",""
"","html-keyboard-response","254","535208","0.0-299.0","0yoaazzx","935","510","","","","","","","","","","","null","+","Fixation - short","","null","","","","","","","","","","","","",""
"","html-keyboard-response","255","535661","0.0-300.0","0yoaazzx","935","510","","","","","","","","","","","453","cpt","Diagnostic trial","","f","3","3","false","false","RIGHT","j","0","","LEFT","false","","",""
"","call-function","256","535662","0.0-302.0-0.0","0yoaazzx","","","","","","","","","","","","","","","","","","","","","","","","","","","","","",""
"","html-keyboard-response","257","535978","0.0-302.0-1.0","0yoaazzx","935","510","","","","","","","","","","","null","Wrong","Feedback","","null","","","","","","","","","","","","",""
"","call-function","258","535978","0.0-302.0-2.0","0yoaazzx","","","","","","","","","","","","","","","","","","","","","","","","","","","","","",""
"","html-keyboard-response","259","536744","0.0-303.0","0yoaazzx","935","510","","","","","","","","","","","null","+","Fixation - short","","null","","","","","","","","","","","","",""
"","html-keyboard-response","260","537930","0.0-304.0","0yoaazzx","935","510","","","","","","","","","","","1186","pxv","Diagnostic trial","","j","3","4","false","false","RIGHT","j","1","","RIGHT","true","","",""
"","html-keyboard-response","261","538690","0.0-307.0","0yoaazzx","935","510","","","","","","","","","","","null","+","Fixation - short","","null","","","","","","","","","","","","",""
"","html-keyboard-response","262","539364","0.0-308.0","0yoaazzx","935","510","","","","","","","","","","","673","cpt","Diagnostic trial","","j","3","5","false","false","RIGHT","j","1","","LEFT","false","","",""
"","html-keyboard-response","263","540122","0.0-311.0","0yoaazzx","935","510","","","","","","","","","","","null","+","Fixation - short","","null","","","","","","","","","","","","",""
"","html-keyboard-response","264","541000","0.0-312.0","0yoaazzx","935","510","","","","","","","","","","","878","cpt","Diagnostic trial","","j","3","6","false","false","RIGHT","j","1","","LEFT","false","","",""
"","html-keyboard-response","265","541766","0.0-315.0","0yoaazzx","935","510","","","","","","","","","","","null","+","Fixation - short","","null","","","","","","","","","","","","",""
"","html-keyboard-response","266","542732","0.0-316.0","0yoaazzx","935","510","","","","","","","","","","","966","cpt","Inducer trial","","f","3","","true","","","f","1","LEFT","","","","",""
"","html-keyboard-response","267","544236","0.0-319.0","0yoaazzx","935","510","","","","","","","","","","","null","+","Fixation - long","","null","","","","","","","","","","","","",""
"","html-keyboard-response","268","550242","0.0-320.0","0yoaazzx","935","510","","","","","","","","","","","6005","If flh press LEFT | If vib press RIGHT","Inducer instructions",""," ","4","","","","","","","","","","","",""
"","html-keyboard-response","269","551002","0.0-321.0","0yoaazzx","935","510","","","","","","","","","","","null","+","Fixation - short","","null","","","","","","","","","","","","",""
"","html-keyboard-response","270","552398","0.0-322.0","0yoaazzx","935","510","","","","","","","","","","","1396","flh","Diagnostic trial","","j","4","0","false","false","RIGHT","j","1","","LEFT","false","","",""
"","html-keyboard-response","271","553150","0.0-325.0","0yoaazzx","935","510","","","","","","","","","","","null","+","Fixation - short","","null","","","","","","","","","","","","",""
"","html-keyboard-response","272","554930","0.0-326.0","0yoaazzx","935","510","","","","","","","","","","","1780","vib","Diagnostic trial","","j","4","1","false","true","LEFT","f","0","","RIGHT","false","","",""
"","call-function","273","554930","0.0-328.0-0.0","0yoaazzx","","","","","","","","","","","","","","","","","","","","","","","","","","","","","",""
"","html-keyboard-response","274","555239","0.0-328.0-1.0","0yoaazzx","935","510","","","","","","","","","","","null","Wrong","Feedback","","null","","","","","","","","","","","","",""
"","call-function","275","555239","0.0-328.0-2.0","0yoaazzx","","","","","","","","","","","","","","","","","","","","","","","","","","","","","",""
"","html-keyboard-response","276","555994","0.0-329.0","0yoaazzx","935","510","","","","","","","","","","","null","+","Fixation - short","","null","","","","","","","","","","","","",""
"","html-keyboard-response","277","556689","0.0-330.0","0yoaazzx","935","510","","","","","","","","","","","694","flh","Diagnostic trial","","j","4","2","false","false","RIGHT","j","1","","LEFT","false","","",""
"","html-keyboard-response","278","557453","0.0-333.0","0yoaazzx","935","510","","","","","","","","","","","null","+","Fixation - short","","null","","","","","","","","","","","","",""
"","html-keyboard-response","279","558078","0.0-334.0","0yoaazzx","935","510","","","","","","","","","","","624","vib","Diagnostic trial","","f","4","3","false","true","LEFT","f","1","","RIGHT","false","","",""
"","html-keyboard-response","280","558833","0.0-337.0","0yoaazzx","935","510","","","","","","","","","","","null","+","Fixation - short","","null","","","","","","","","","","","","",""
"","html-keyboard-response","281","559823","0.0-338.0","0yoaazzx","935","510","","","","","","","","","","","989","flh","Diagnostic trial","","j","4","4","false","false","RIGHT","j","1","","LEFT","false","","",""
"","html-keyboard-response","282","560576","0.0-341.0","0yoaazzx","935","510","","","","","","","","","","","null","+","Fixation - short","","null","","","","","","","","","","","","",""
"","html-keyboard-response","283","562590","0.0-342.0","0yoaazzx","935","510","","","","","","","","","","","null","vib","Inducer trial","","null","4","","true","","","j","NaN","RIGHT","","","","",""
"","call-function","284","562590","0.0-343.0-0.0","0yoaazzx","","","","","","","","","","","","","","","","","","","","","","","","","","","","","",""
"","html-keyboard-response","285","562903","0.0-343.0-1.0","0yoaazzx","935","510","","","","","","","","","","","null","Slow","Feedback","","null","","","","","","","","","","","","",""
"","call-function","286","562903","0.0-343.0-2.0","0yoaazzx","","","","","","","","","","","","","","","","","","","","","","","","","","","","","",""
"","html-keyboard-response","287","564409","0.0-345.0","0yoaazzx","935","510","","","","","","","","","","","null","+","Fixation - long","","null","","","","","","","","","","","","",""
"","html-keyboard-response","288","567402","0.0-346.0","0yoaazzx","935","510","","","","","","","","","","","2992","If anz press LEFT | If aor press RIGHT","Inducer instructions",""," ","5","","","","","","","","","","","",""
"","html-keyboard-response","289","568157","0.0-347.0","0yoaazzx","935","510","","","","","","","","","","","null","+","Fixation - short","","null","","","","","","","","","","","","",""
"","html-keyboard-response","290","569820","0.0-348.0","0yoaazzx","935","510","","","","","","","","","","","1663","aor","Diagnostic trial","","j","5","0","false","false","RIGHT","j","1","","RIGHT","true","","",""
"","html-keyboard-response","291","570573","0.0-351.0","0yoaazzx","935","510","","","","","","","","","","","null","+","Fixation - short","","null","","","","","","","","","","","","",""
"","html-keyboard-response","292","571728","0.0-352.0","0yoaazzx","935","510","","","","","","","","","","","1155","aor","Diagnostic trial","","j","5","1","false","false","RIGHT","j","1","","RIGHT","true","","",""
"","html-keyboard-response","293","572490","0.0-355.0","0yoaazzx","935","510","","","","","","","","","","","null","+","Fixation - short","","null","","","","","","","","","","","","",""
"","html-keyboard-response","294","573747","0.0-356.0","0yoaazzx","935","510","","","","","","","","","","","1256","anz","Diagnostic trial","","j","5","2","false","true","LEFT","f","0","","LEFT","true","","",""
"","call-function","295","573747","0.0-358.0-0.0","0yoaazzx","","","","","","","","","","","","","","","","","","","","","","","","","","","","","",""
"","html-keyboard-response","296","574059","0.0-358.0-1.0","0yoaazzx","935","510","","","","","","","","","","","null","Wrong","Feedback","","null","","","","","","","","","","","","",""
"","call-function","297","574059","0.0-358.0-2.0","0yoaazzx","","","","","","","","","","","","","","","","","","","","","","","","","","","","","",""
"","html-keyboard-response","298","574814","0.0-359.0","0yoaazzx","935","510","","","","","","","","","","","null","+","Fixation - short","","null","","","","","","","","","","","","",""
"","html-keyboard-response","299","576606","0.0-360.0","0yoaazzx","935","510","","","","","","","","","","","1791","aor","Diagnostic trial","","f","5","3","false","true","LEFT","f","1","","RIGHT","false","","",""
"","html-keyboard-response","300","577370","0.0-363.0","0yoaazzx","935","510","","","","","","","","","","","null","+","Fixation - short","","null","","","","","","","","","","","","",""
"","html-keyboard-response","301","578470","0.0-364.0","0yoaazzx","935","510","","","","","","","","","","","1099","aor","Diagnostic trial","","f","5","4","false","true","LEFT","f","1","","RIGHT","false","","",""
"","html-keyboard-response","302","579236","0.0-367.0","0yoaazzx","935","510","","","","","","","","","","","null","+","Fixation - short","","null","","","","","","","","","","","","",""
"","html-keyboard-response","303","580035","0.0-368.0","0yoaazzx","935","510","","","","","","","","","","","798","aor","Diagnostic trial","","f","5","5","false","true","LEFT","f","1","","RIGHT","false","","",""
"","html-keyboard-response","304","580793","0.0-371.0","0yoaazzx","935","510","","","","","","","","","","","null","+","Fixation - short","","null","","","","","","","","","","","","",""
"","html-keyboard-response","305","581440","0.0-372.0","0yoaazzx","935","510","","","","","","","","","","","646","aor","Diagnostic trial","","f","5","6","false","true","LEFT","f","1","","RIGHT","false","","",""
"","html-keyboard-response","306","582198","0.0-375.0","0yoaazzx","935","510","","","","","","","","","","","null","+","Fixation - short","","null","","","","","","","","","","","","",""
"","html-keyboard-response","307","582857","0.0-376.0","0yoaazzx","935","510","","","","","","","","","","","658","aor","Diagnostic trial","","f","5","7","false","false","RIGHT","j","0","","RIGHT","true","","",""
"","call-function","308","582857","0.0-378.0-0.0","0yoaazzx","","","","","","","","","","","","","","","","","","","","","","","","","","","","","",""
"","html-keyboard-response","309","583173","0.0-378.0-1.0","0yoaazzx","935","510","","","","","","","","","","","null","Wrong","Feedback","","null","","","","","","","","","","","","",""
"","call-function","310","583173","0.0-378.0-2.0","0yoaazzx","","","","","","","","","","","","","","","","","","","","","","","","","","","","","",""
"","html-keyboard-response","311","583950","0.0-379.0","0yoaazzx","935","510","","","","","","","","","","","null","+","Fixation - short","","null","","","","","","","","","","","","",""
"","html-keyboard-response","312","584747","0.0-380.0","0yoaazzx","935","510","","","","","","","","","","","796","aor","Diagnostic trial","","f","5","8","false","false","RIGHT","j","0","","RIGHT","true","","",""
"","call-function","313","584748","0.0-382.0-0.0","0yoaazzx","","","","","","","","","","","","","","","","","","","","","","","","","","","","","",""
"","html-keyboard-response","314","585064","0.0-382.0-1.0","0yoaazzx","935","510","","","","","","","","","","","null","Wrong","Feedback","","null","","","","","","","","","","","","",""
"","call-function","315","585065","0.0-382.0-2.0","0yoaazzx","","","","","","","","","","","","","","","","","","","","","","","","","","","","","",""
"","html-keyboard-response","316","585817","0.0-383.0","0yoaazzx","935","510","","","","","","","","","","","null","+","Fixation - short","","null","","","","","","","","","","","","",""
"","html-keyboard-response","317","586583","0.0-384.0","0yoaazzx","935","510","","","","","","","","","","","766","aor","Diagnostic trial","","j","5","9","false","true","LEFT","f","0","","RIGHT","false","","",""
"","call-function","318","586584","0.0-386.0-0.0","0yoaazzx","","","","","","","","","","","","","","","","","","","","","","","","","","","","","",""
"","html-keyboard-response","319","586900","0.0-386.0-1.0","0yoaazzx","935","510","","","","","","","","","","","null","Wrong","Feedback","","null","","","","","","","","","","","","",""
"","call-function","320","586900","0.0-386.0-2.0","0yoaazzx","","","","","","","","","","","","","","","","","","","","","","","","","","","","","",""
"","html-keyboard-response","321","587667","0.0-387.0","0yoaazzx","935","510","","","","","","","","","","","null","+","Fixation - short","","null","","","","","","","","","","","","",""
"","html-keyboard-response","322","589102","0.0-388.0","0yoaazzx","935","510","","","","","","","","","","","1435","anz","Inducer trial","","f","5","","true","","","f","1","LEFT","","","","",""
"","html-keyboard-response","323","590609","0.0-391.0","0yoaazzx","935","510","","","","","","","","","","","null","+","Fixation - long","","null","","","","","","","","","","","","",""
"","html-keyboard-response","324","597150","0.0-392.0","0yoaazzx","935","510","","","","","","","","","","","6541","If dlg press LEFT | If hfs press RIGHT","Inducer instructions",""," ","6","","","","","","","","","","","",""
"","html-keyboard-response","325","597907","0.0-393.0","0yoaazzx","935","510","","","","","","","","","","","null","+","Fixation - short","","null","","","","","","","","","","","","",""
"","html-keyboard-response","326","598615","0.0-394.0","0yoaazzx","935","510","","","","","","","","","","","707","dlg","Diagnostic trial","","f","6","0","false","false","RIGHT","j","0","","LEFT","false","","",""
"","call-function","327","598615","0.0-396.0-0.0","0yoaazzx","","","","","","","","","","","","","","","","","","","","","","","","","","","","","",""
"","html-keyboard-response","328","598931","0.0-396.0-1.0","0yoaazzx","935","510","","","","","","","","","","","null","Wrong","Feedback","","null","","","","","","","","","","","","",""
"","call-function","329","598932","0.0-396.0-2.0","0yoaazzx","","","","","","","","","","","","","","","","","","","","","","","","","","","","","",""
"","html-keyboard-response","330","599688","0.0-397.0","0yoaazzx","935","510","","","","","","","","","","","null","+","Fixation - short","","null","","","","","","","","","","","","",""
"","html-keyboard-response","331","601172","0.0-398.0","0yoaazzx","935","510","","","","","","","","","","","1484","hfs","Diagnostic trial","","j","6","1","false","true","LEFT","f","0","","RIGHT","false","","",""
"","call-function","332","601172","0.0-400.0-0.0","0yoaazzx","","","","","","","","","","","","","","","","","","","","","","","","","","","","","",""
"","html-keyboard-response","333","601485","0.0-400.0-1.0","0yoaazzx","935","510","","","","","","","","","","","null","Wrong","Feedback","","null","","","","","","","","","","","","",""
"","call-function","334","601485","0.0-400.0-2.0","0yoaazzx","","","","","","","","","","","","","","","","","","","","","","","","","","","","","",""
"","html-keyboard-response","335","602240","0.0-401.0","0yoaazzx","935","510","","","","","","","","","","","null","+","Fixation - short","","null","","","","","","","","","","","","",""
"","html-keyboard-response","336","603131","0.0-402.0","0yoaazzx","935","510","","","","","","","","","","","890","dlg","Diagnostic trial","","j","6","2","false","false","RIGHT","j","1","","LEFT","false","","",""
"","html-keyboard-response","337","603884","0.0-405.0","0yoaazzx","935","510","","","","","","","","","","","null","+","Fixation - short","","null","","","","","","","","","","","","",""
"","html-keyboard-response","338","605104","0.0-406.0","0yoaazzx","935","510","","","","","","","","","","","1219","dlg","Diagnostic trial","","j","6","3","false","false","RIGHT","j","1","","LEFT","false","","",""
"","html-keyboard-response","339","605861","0.0-409.0","0yoaazzx","935","510","","","","","","","","","","","null","+","Fixation - short","","null","","","","","","","","","","","","",""
"","html-keyboard-response","340","607257","0.0-410.0","0yoaazzx","935","510","","","","","","","","","","","1396","hfs","Inducer trial","","f","6","","true","","","j","0","RIGHT","","","","",""
"","call-function","341","607257","0.0-412.0-0.0","0yoaazzx","","","","","","","","","","","","","","","","","","","","","","","","","","","","","",""
"","html-keyboard-response","342","607560","0.0-412.0-1.0","0yoaazzx","935","510","","","","","","","","","","","null","Wrong","Feedback","","null","","","","","","","","","","","","",""
"","call-function","343","607560","0.0-412.0-2.0","0yoaazzx","","","","","","","","","","","","","","","","","","","","","","","","","","","","","",""
"","html-keyboard-response","344","609070","0.0-413.0","0yoaazzx","935","510","","","","","","","","","","","null","+","Fixation - long","","null","","","","","","","","","","","","",""
"","html-keyboard-response","345","613857","0.0-414.0","0yoaazzx","935","510","","","","","","","","","","","4786","If rif press LEFT | If ttm press RIGHT","Inducer instructions",""," ","7","","","","","","","","","","","",""
"","html-keyboard-response","346","614624","0.0-415.0","0yoaazzx","935","510","","","","","","","","","","","null","+","Fixation - short","","null","","","","","","","","","","","","",""
"","html-keyboard-response","347","615608","0.0-416.0","0yoaazzx","935","510","","","","","","","","","","","983","rif","Diagnostic trial","","j","7","0","false","false","RIGHT","j","1","","LEFT","false","","",""
"","html-keyboard-response","348","616365","0.0-419.0","0yoaazzx","935","510","","","","","","","","","","","null","+","Fixation - short","","null","","","","","","","","","","","","",""
"","html-keyboard-response","349","617521","0.0-420.0","0yoaazzx","935","510","","","","","","","","","","","1155","ttm","Diagnostic trial","","j","7","1","false","true","LEFT","f","0","","RIGHT","false","","",""
"","call-function","350","617521","0.0-422.0-0.0","0yoaazzx","","","","","","","","","","","","","","","","","","","","","","","","","","","","","",""
"","html-keyboard-response","351","617822","0.0-422.0-1.0","0yoaazzx","935","510","","","","","","","","","","","null","Wrong","Feedback","","null","","","","","","","","","","","","",""
"","call-function","352","617822","0.0-422.0-2.0","0yoaazzx","","","","","","","","","","","","","","","","","","","","","","","","","","","","","",""
"","html-keyboard-response","353","618577","0.0-423.0","0yoaazzx","935","510","","","","","","","","","","","null","+","Fixation - short","","null","","","","","","","","","","","","",""
"","html-keyboard-response","354","619264","0.0-424.0","0yoaazzx","935","510","","","","","","","","","","","687","rif","Diagnostic trial","","j","7","2","false","true","LEFT","f","0","","LEFT","true","","",""
"","call-function","355","619264","0.0-426.0-0.0","0yoaazzx","","","","","","","","","","","","","","","","","","","","","","","","","","","","","",""
"","html-keyboard-response","356","619569","0.0-426.0-1.0","0yoaazzx","935","510","","","","","","","","","","","null","Wrong","Feedback","","null","","","","","","","","","","","","",""
"","call-function","357","619570","0.0-426.0-2.0","0yoaazzx","","","","","","","","","","","","","","","","","","","","","","","","","","","","","",""
"","html-keyboard-response","358","620334","0.0-427.0","0yoaazzx","935","510","","","","","","","","","","","null","+","Fixation - short","","null","","","","","","","","","","","","",""
"","html-keyboard-response","359","621045","0.0-428.0","0yoaazzx","935","510","","","","","","","","","","","710","rif","Diagnostic trial","","j","7","3","false","true","LEFT","f","0","","LEFT","true","","",""
"","call-function","360","621045","0.0-430.0-0.0","0yoaazzx","","","","","","","","","","","","","","","","","","","","","","","","","","","","","",""
"","html-keyboard-response","361","621349","0.0-430.0-1.0","0yoaazzx","935","510","","","","","","","","","","","null","Wrong","Feedback","","null","","","","","","","","","","","","",""
"","call-function","362","621350","0.0-430.0-2.0","0yoaazzx","","","","","","","","","","","","","","","","","","","","","","","","","","","","","",""
"","html-keyboard-response","363","622116","0.0-431.0","0yoaazzx","935","510","","","","","","","","","","","null","+","Fixation - short","","null","","","","","","","","","","","","",""
"","html-keyboard-response","364","622874","0.0-432.0","0yoaazzx","935","510","","","","","","","","","","","757","ttm","Diagnostic trial","","f","7","4","false","false","RIGHT","j","0","","RIGHT","true","","",""
"","call-function","365","622874","0.0-434.0-0.0","0yoaazzx","","","","","","","","","","","","","","","","","","","","","","","","","","","","","",""
"","html-keyboard-response","366","623187","0.0-434.0-1.0","0yoaazzx","935","510","","","","","","","","","","","null","Wrong","Feedback","","null","","","","","","","","","","","","",""
"","call-function","367","623187","0.0-434.0-2.0","0yoaazzx","","","","","","","","","","","","","","","","","","","","","","","","","","","","","",""
"","html-keyboard-response","368","623941","0.0-435.0","0yoaazzx","935","510","","","","","","","","","","","null","+","Fixation - short","","null","","","","","","","","","","","","",""
"","html-keyboard-response","369","624262","0.0-436.0","0yoaazzx","935","510","","","","","","","","","","","320","ttm","Diagnostic trial","","j","7","5","false","true","LEFT","f","0","","RIGHT","false","","",""
"","call-function","370","624262","0.0-438.0-0.0","0yoaazzx","","","","","","","","","","","","","","","","","","","","","","","","","","","","","",""
"","html-keyboard-response","371","624568","0.0-438.0-1.0","0yoaazzx","935","510","","","","","","","","","","","null","Wrong","Feedback","","null","","","","","","","","","","","","",""
"","call-function","372","624568","0.0-438.0-2.0","0yoaazzx","","","","","","","","","","","","","","","","","","","","","","","","","","","","","",""
"","html-keyboard-response","373","625335","0.0-439.0","0yoaazzx","935","510","","","","","","","","","","","null","+","Fixation - short","","null","","","","","","","","","","","","",""
"","html-keyboard-response","374","626285","0.0-440.0","0yoaazzx","935","510","","","","","","","","","","","950","rif","Diagnostic trial","","j","7","6","false","false","RIGHT","j","1","","LEFT","false","","",""
"","html-keyboard-response","375","627052","0.0-443.0","0yoaazzx","935","510","","","","","","","","","","","null","+","Fixation - short","","null","","","","","","","","","","","","",""
"","html-keyboard-response","376","627683","0.0-444.0","0yoaazzx","935","510","","","","","","","","","","","631","ttm","Diagnostic trial","","f","7","7","false","false","RIGHT","j","0","","RIGHT","true","","",""
"","call-function","377","627684","0.0-446.0-0.0","0yoaazzx","","","","","","","","","","","","","","","","","","","","","","","","","","","","","",""
"","html-keyboard-response","378","627994","0.0-446.0-1.0","0yoaazzx","935","510","","","","","","","","","","","null","Wrong","Feedback","","null","","","","","","","","","","","","",""
"","call-function","379","627994","0.0-446.0-2.0","0yoaazzx","","","","","","","","","","","","","","","","","","","","","","","","","","","","","",""
"","html-keyboard-response","380","628750","0.0-447.0","0yoaazzx","935","510","","","","","","","","","","","null","+","Fixation - short","","null","","","","","","","","","","","","",""
"","html-keyboard-response","381","629251","0.0-448.0","0yoaazzx","935","510","","","","","","","","","","","501","ttm","Diagnostic trial","","j","7","8","false","true","LEFT","f","0","","RIGHT","false","","",""
"","call-function","382","629252","0.0-450.0-0.0","0yoaazzx","","","","","","","","","","","","","","","","","","","","","","","","","","","","","",""
"","html-keyboard-response","383","629554","0.0-450.0-1.0","0yoaazzx","935","510","","","","","","","","","","","null","Wrong","Feedback","","null","","","","","","","","","","","","",""
"","call-function","384","629555","0.0-450.0-2.0","0yoaazzx","","","","","","","","","","","","","","","","","","","","","","","","","","","","","",""
"","html-keyboard-response","385","630312","0.0-451.0","0yoaazzx","935","510","","","","","","","","","","","null","+","Fixation - short","","null","","","","","","","","","","","","",""
"","html-keyboard-response","386","631428","0.0-452.0","0yoaazzx","935","510","","","","","","","","","","","1115","ttm","Inducer trial","","j","7","","true","","","j","1","RIGHT","","","","",""
"","html-keyboard-response","387","632940","0.0-455.0","0yoaazzx","935","510","","","","","","","","","","","null","+","Fixation - long","","null","","","","","","","","","","","","",""
"","html-keyboard-response","388","636581","0.0-456.0","0yoaazzx","935","510","","","","","","","","","","","3640","If vrm press LEFT | If tgf press RIGHT","Inducer instructions",""," ","8","","","","","","","","","","","",""
"","html-keyboard-response","389","637342","0.0-457.0","0yoaazzx","935","510","","","","","","","","","","","null","+","Fixation - short","","null","","","","","","","","","","","","",""
"","html-keyboard-response","390","638097","0.0-458.0","0yoaazzx","935","510","","","","","","","","","","","754","vrm","Diagnostic trial","","f","8","0","false","true","LEFT","f","1","","LEFT","true","","",""
"","html-keyboard-response","391","638862","0.0-461.0","0yoaazzx","935","510","","","","","","","","","","","null","+","Fixation - short","","null","","","","","","","","","","","","",""
"","html-keyboard-response","392","639535","0.0-462.0","0yoaazzx","935","510","","","","","","","","","","","672","tgf","Diagnostic trial","","f","8","1","false","true","LEFT","f","1","","RIGHT","false","","",""
"","html-keyboard-response","393","640293","0.0-465.0","0yoaazzx","935","510","","","","","","","","","","","null","+","Fixation - short","","null","","","","","","","","","","","","",""
"","html-keyboard-response","394","640800","0.0-466.0","0yoaazzx","935","510","","","","","","","","","","","506","tgf","Diagnostic trial","","f","8","2","false","false","RIGHT","j","0","","RIGHT","true","","",""
"","call-function","395","640800","0.0-468.0-0.0","0yoaazzx","","","","","","","","","","","","","","","","","","","","","","","","","","","","","",""
"","html-keyboard-response","396","641115","0.0-468.0-1.0","0yoaazzx","935","510","","","","","","","","","","","null","Wrong","Feedback","","null","","","","","","","","","","","","",""
"","call-function","397","641116","0.0-468.0-2.0","0yoaazzx","","","","","","","","","","","","","","","","","","","","","","","","","","","","","",""
"","html-keyboard-response","398","641873","0.0-469.0","0yoaazzx","935","510","","","","","","","","","","","null","+","Fixation - short","","null","","","","","","","","","","","","",""
"","html-keyboard-response","399","642175","0.0-470.0","0yoaazzx","935","510","","","","","","","","","","","302","vrm","Diagnostic trial","","j","8","3","false","true","LEFT","f","0","","LEFT","true","","",""
"","call-function","400","642175","0.0-472.0-0.0","0yoaazzx","","","","","","","","","","","","","","","","","","","","","","","","","","","","","",""
"","html-keyboard-response","401","642481","0.0-472.0-1.0","0yoaazzx","935","510","","","","","","","","","","","null","Wrong","Feedback","","null","","","","","","","","","","","","",""
"","call-function","402","642482","0.0-472.0-2.0","0yoaazzx","","","","","","","","","","","","","","","","","","","","","","","","","","","","","",""
"","html-keyboard-response","403","643244","0.0-473.0","0yoaazzx","935","510","","","","","","","","","","","null","+","Fixation - short","","null","","","","","","","","","","","","",""
"","html-keyboard-response","404","644258","0.0-474.0","0yoaazzx","935","510","","","","","","","","","","","1014","vrm","Diagnostic trial","","j","8","4","false","false","RIGHT","j","1","","LEFT","false","","",""
"","html-keyboard-response","405","645010","0.0-477.0","0yoaazzx","935","510","","","","","","","","","","","null","+","Fixation - short","","null","","","","","","","","","","","","",""
"","html-keyboard-response","406","645734","0.0-478.0","0yoaazzx","935","510","","","","","","","","","","","723","tgf","Diagnostic trial","","j","8","5","false","false","RIGHT","j","1","","RIGHT","true","","",""
"","html-keyboard-response","407","646499","0.0-481.0","0yoaazzx","935","510","","","","","","","","","","","null","+","Fixation - short","","null","","","","","","","","","","","","",""
"","html-keyboard-response","408","647572","0.0-482.0","0yoaazzx","935","510","","","","","","","","","","","1072","tgf","Diagnostic trial","","f","8","6","false","true","LEFT","f","1","","RIGHT","false","","",""
"","html-keyboard-response","409","648336","0.0-485.0","0yoaazzx","935","510","","","","","","","","","","","null","+","Fixation - short","","null","","","","","","","","","","","","",""
"","html-keyboard-response","410","649066","0.0-486.0","0yoaazzx","935","510","","","","","","","","","","","729","vrm","Diagnostic trial","","j","8","7","false","true","LEFT","f","0","","LEFT","true","","",""
"","call-function","411","649066","0.0-488.0-0.0","0yoaazzx","","","","","","","","","","","","","","","","","","","","","","","","","","","","","",""
"","html-keyboard-response","412","649382","0.0-488.0-1.0","0yoaazzx","935","510","","","","","","","","","","","null","Wrong","Feedback","","null","","","","","","","","","","","","",""
"","call-function","413","649382","0.0-488.0-2.0","0yoaazzx","","","","","","","","","","","","","","","","","","","","","","","","","","","","","",""
"","html-keyboard-response","414","650147","0.0-489.0","0yoaazzx","935","510","","","","","","","","","","","null","+","Fixation - short","","null","","","","","","","","","","","","",""
"","html-keyboard-response","415","650752","0.0-490.0","0yoaazzx","935","510","","","","","","","","","","","604","vrm","Diagnostic trial","","j","8","8","false","false","RIGHT","j","1","","LEFT","false","","",""
"","html-keyboard-response","416","651509","0.0-493.0","0yoaazzx","935","510","","","","","","","","","","","null","+","Fixation - short","","null","","","","","","","","","","","","",""
"","html-keyboard-response","417","652121","0.0-494.0","0yoaazzx","935","510","","","","","","","","","","","611","vrm","Diagnostic trial","","f","8","9","false","false","RIGHT","j","0","","LEFT","false","","",""
"","call-function","418","652121","0.0-496.0-0.0","0yoaazzx","","","","","","","","","","","","","","","","","","","","","","","","","","","","","",""
"","html-keyboard-response","419","652433","0.0-496.0-1.0","0yoaazzx","935","510","","","","","","","","","","","null","Wrong","Feedback","","null","","","","","","","","","","","","",""
"","call-function","420","652434","0.0-496.0-2.0","0yoaazzx","","","","","","","","","","","","","","","","","","","","","","","","","","","","","",""
"","html-keyboard-response","421","653187","0.0-497.0","0yoaazzx","935","510","","","","","","","","","","","null","+","Fixation - short","","null","","","","","","","","","","","","",""
"","html-keyboard-response","422","654222","0.0-498.0","0yoaazzx","935","510","","","","","","","","","","","1034","vrm","Diagnostic trial","","j","8","10","false","false","RIGHT","j","1","","LEFT","false","","",""
"","html-keyboard-response","423","655004","0.0-501.0","0yoaazzx","935","510","","","","","","","","","","","null","+","Fixation - short","","null","","","","","","","","","","","","",""
"","html-keyboard-response","424","655456","0.0-502.0","0yoaazzx","935","510","","","","","","","","","","","451","vrm","Diagnostic trial","","j","8","11","false","true","LEFT","f","0","","LEFT","true","","",""
"","call-function","425","655456","0.0-504.0-0.0","0yoaazzx","","","","","","","","","","","","","","","","","","","","","","","","","","","","","",""
"","html-keyboard-response","426","655762","0.0-504.0-1.0","0yoaazzx","935","510","","","","","","","","","","","null","Wrong","Feedback","","null","","","","","","","","","","","","",""
"","call-function","427","655762","0.0-504.0-2.0","0yoaazzx","","","","","","","","","","","","","","","","","","","","","","","","","","","","","",""
"","html-keyboard-response","428","656515","0.0-505.0","0yoaazzx","935","510","","","","","","","","","","","null","+","Fixation - short","","null","","","","","","","","","","","","",""
"","html-keyboard-response","429","656954","0.0-506.0","0yoaazzx","935","510","","","","","","","","","","","438","vrm","Diagnostic trial","","f","8","12","false","true","LEFT","f","1","","LEFT","true","","",""
"","html-keyboard-response","430","657708","0.0-509.0","0yoaazzx","935","510","","","","","","","","","","","null","+","Fixation - short","","null","","","","","","","","","","","","",""
"","html-keyboard-response","431","658336","0.0-510.0","0yoaazzx","935","510","","","","","","","","","","","627","vrm","Diagnostic trial","","f","8","13","false","false","RIGHT","j","0","","LEFT","false","","",""
"","call-function","432","658336","0.0-512.0-0.0","0yoaazzx","","","","","","","","","","","","","","","","","","","","","","","","","","","","","",""
"","html-keyboard-response","433","658649","0.0-512.0-1.0","0yoaazzx","935","510","","","","","","","","","","","null","Wrong","Feedback","","null","","","","","","","","","","","","",""
"","call-function","434","658649","0.0-512.0-2.0","0yoaazzx","","","","","","","","","","","","","","","","","","","","","","","","","","","","","",""
"","html-keyboard-response","435","659403","0.0-513.0","0yoaazzx","935","510","","","","","","","","","","","null","+","Fixation - short","","null","","","","","","","","","","","","",""
"","html-keyboard-response","436","660301","0.0-514.0","0yoaazzx","935","510","","","","","","","","","","","897","vrm","Inducer trial","","j","8","","true","","","f","0","LEFT","","","","",""
"","call-function","437","660301","0.0-516.0-0.0","0yoaazzx","","","","","","","","","","","","","","","","","","","","","","","","","","","","","",""
"","html-keyboard-response","438","660615","0.0-516.0-1.0","0yoaazzx","935","510","","","","","","","","","","","null","Wrong","Feedback","","null","","","","","","","","","","","","",""
"","call-function","439","660615","0.0-516.0-2.0","0yoaazzx","","","","","","","","","","","","","","","","","","","","","","","","","","","","","",""
"","html-keyboard-response","440","662122","0.0-517.0","0yoaazzx","935","510","","","","","","","","","","","null","+","Fixation - long","","null","","","","","","","","","","","","",""
"","html-keyboard-response","441","665324","0.0-518.0","0yoaazzx","935","510","","","","","","","","","","","3202","If ume press LEFT | If rbc press RIGHT","Inducer instructions",""," ","9","","","","","","","","","","","",""
"","html-keyboard-response","442","666078","0.0-519.0","0yoaazzx","935","510","","","","","","","","","","","null","+","Fixation - short","","null","","","","","","","","","","","","",""
"","html-keyboard-response","443","667104","0.0-520.0","0yoaazzx","935","510","","","","","","","","","","","1025","rbc","Diagnostic trial","","j","9","0","false","true","LEFT","f","0","","RIGHT","false","","",""
"","call-function","444","667104","0.0-522.0-0.0","0yoaazzx","","","","","","","","","","","","","","","","","","","","","","","","","","","","","",""
"","html-keyboard-response","445","667414","0.0-522.0-1.0","0yoaazzx","935","510","","","","","","","","","","","null","Wrong","Feedback","","null","","","","","","","","","","","","",""
"","call-function","446","667415","0.0-522.0-2.0","0yoaazzx","","","","","","","","","","","","","","","","","","","","","","","","","","","","","",""
"","html-keyboard-response","447","668166","0.0-523.0","0yoaazzx","935","510","","","","","","","","","","","null","+","Fixation - short","","null","","","","","","","","","","","","",""
"","html-keyboard-response","448","668781","0.0-524.0","0yoaazzx","935","510","","","","","","","","","","","614","rbc","Diagnostic trial","","f","9","1","false","false","RIGHT","j","0","","RIGHT","true","","",""
"","call-function","449","668782","0.0-526.0-0.0","0yoaazzx","","","","","","","","","","","","","","","","","","","","","","","","","","","","","",""
"","html-keyboard-response","450","669092","0.0-526.0-1.0","0yoaazzx","935","510","","","","","","","","","","","null","Wrong","Feedback","","null","","","","","","","","","","","","",""
"","call-function","451","669092","0.0-526.0-2.0","0yoaazzx","","","","","","","","","","","","","","","","","","","","","","","","","","","","","",""
"","html-keyboard-response","452","669848","0.0-527.0","0yoaazzx","935","510","","","","","","","","","","","null","+","Fixation - short","","null","","","","","","","","","","","","",""
"","html-keyboard-response","453","670272","0.0-528.0","0yoaazzx","935","510","","","","","","","","","","","423","rbc","Diagnostic trial","","j","9","2","false","false","RIGHT","j","1","","RIGHT","true","","",""
"","html-keyboard-response","454","671035","0.0-531.0","0yoaazzx","935","510","","","","","","","","","","","null","+","Fixation - short","","null","","","","","","","","","","","","",""
"","html-keyboard-response","455","671550","0.0-532.0","0yoaazzx","935","510","","","","","","","","","","","514","rbc","Diagnostic trial","","j","9","3","false","false","RIGHT","j","1","","RIGHT","true","","",""
"","html-keyboard-response","456","672305","0.0-535.0","0yoaazzx","935","510","","","","","","","","","","","null","+","Fixation - short","","null","","","","","","","","","","","","",""
"","html-keyboard-response","457","673309","0.0-536.0","0yoaazzx","935","510","","","","","","","","","","","1003","rbc","Diagnostic trial","","j","9","4","false","true","LEFT","f","0","","RIGHT","false","","",""
"","call-function","458","673309","0.0-538.0-0.0","0yoaazzx","","","","","","","","","","","","","","","","","","","","","","","","","","","","","",""
"","html-keyboard-response","459","673615","0.0-538.0-1.0","0yoaazzx","935","510","","","","","","","","","","","null","Wrong","Feedback","","null","","","","","","","","","","","","",""
"","call-function","460","673615","0.0-538.0-2.0","0yoaazzx","","","","","","","","","","","","","","","","","","","","","","","","","","","","","",""
"","html-keyboard-response","461","674367","0.0-539.0","0yoaazzx","935","510","","","","","","","","","","","null","+","Fixation - short","","null","","","","","","","","","","","","",""
"","html-keyboard-response","462","674827","0.0-540.0","0yoaazzx","935","510","","","","","","","","","","","459","rbc","Diagnostic trial","","f","9","5","false","true","LEFT","f","1","","RIGHT","false","","",""
"","html-keyboard-response","463","675590","0.0-543.0","0yoaazzx","935","510","","","","","","","","","","","null","+","Fixation - short","","null","","","","","","","","","","","","",""
"","html-keyboard-response","464","675952","0.0-544.0","0yoaazzx","935","510","","","","","","","","","","","361","rbc","Diagnostic trial","","j","9","6","false","true","LEFT","f","0","","RIGHT","false","","",""
"","call-function","465","675952","0.0-546.0-0.0","0yoaazzx","","","","","","","","","","","","","","","","","","","","","","","","","","","","","",""
"","html-keyboard-response","466","676268","0.0-546.0-1.0","0yoaazzx","935","510","","","","","","","","","","","null","Wrong","Feedback","","null","","","","","","","","","","","","",""
"","call-function","467","676269","0.0-546.0-2.0","0yoaazzx","","","","","","","","","","","","","","","","","","","","","","","","","","","","","",""
"","html-keyboard-response","468","677026","0.0-547.0","0yoaazzx","935","510","","","","","","","","","","","null","+","Fixation - short","","null","","","","","","","","","","","","",""
"","html-keyboard-response","469","677301","0.0-548.0","0yoaazzx","935","510","","","","","","","","","","","275","rbc","Diagnostic trial","","f","9","7","false","true","LEFT","f","1","","RIGHT","false","","",""
"","html-keyboard-response","470","678063","0.0-551.0","0yoaazzx","935","510","","","","","","","","","","","null","+","Fixation - short","","null","","","","","","","","","","","","",""
"","html-keyboard-response","471","678755","0.0-552.0","0yoaazzx","935","510","","","","","","","","","","","691","ume","Diagnostic trial","","f","9","8","false","false","RIGHT","j","0","","LEFT","false","","",""
"","call-function","472","678755","0.0-554.0-0.0","0yoaazzx","","","","","","","","","","","","","","","","","","","","","","","","","","","","","",""
"","html-keyboard-response","473","679066","0.0-554.0-1.0","0yoaazzx","935","510","","","","","","","","","","","null","Wrong","Feedback","","null","","","","","","","","","","","","",""
"","call-function","474","679066","0.0-554.0-2.0","0yoaazzx","","","","","","","","","","","","","","","","","","","","","","","","","","","","","",""
"","html-keyboard-response","475","679819","0.0-555.0","0yoaazzx","935","510","","","","","","","","","","","null","+","Fixation - short","","null","","","","","","","","","","","","",""
"","html-keyboard-response","476","680115","0.0-556.0","0yoaazzx","935","510","","","","","","","","","","","295","rbc","Diagnostic trial","","j","9","9","false","false","RIGHT","j","1","","RIGHT","true","","",""
"","html-keyboard-response","477","680868","0.0-559.0","0yoaazzx","935","510","","","","","","","","","","","null","+","Fixation - short","","null","","","","","","","","","","","","",""
"","html-keyboard-response","478","681765","0.0-560.0","0yoaazzx","935","510","","","","","","","","","","","896","rbc","Diagnostic trial","","j","9","10","false","false","RIGHT","j","1","","RIGHT","true","","",""
"","html-keyboard-response","479","682518","0.0-563.0","0yoaazzx","935","510","","","","","","","","","","","null","+","Fixation - short","","null","","","","","","","","","","","","",""
"","html-keyboard-response","480","682955","0.0-564.0","0yoaazzx","935","510","","","","","","","","","","","436","ume","Diagnostic trial","","j","9","11","false","false","RIGHT","j","1","","LEFT","false","","",""
"","html-keyboard-response","481","683722","0.0-567.0","0yoaazzx","935","510","","","","","","","","","","","null","+","Fixation - short","","null","","","","","","","","","","","","",""
"","html-keyboard-response","482","684206","0.0-568.0","0yoaazzx","935","510","","","","","","","","","","","484","rbc","Diagnostic trial","","j","9","12","false","true","LEFT","f","0","","RIGHT","false","","",""
"","call-function","483","684207","0.0-570.0-0.0","0yoaazzx","","","","","","","","","","","","","","","","","","","","","","","","","","","","","",""
"","html-keyboard-response","484","684515","0.0-570.0-1.0","0yoaazzx","935","510","","","","","","","","","","","null","Wrong","Feedback","","null","","","","","","","","","","","","",""
"","call-function","485","684515","0.0-570.0-2.0","0yoaazzx","","","","","","","","","","","","","","","","","","","","","","","","","","","","","",""
"","html-keyboard-response","486","685266","0.0-571.0","0yoaazzx","935","510","","","","","","","","","","","null","+","Fixation - short","","null","","","","","","","","","","","","",""
"","html-keyboard-response","487","685614","0.0-572.0","0yoaazzx","935","510","","","","","","","","","","","347","ume","Diagnostic trial","","f","9","13","false","true","LEFT","f","1","","LEFT","true","","",""
"","html-keyboard-response","488","686366","0.0-575.0","0yoaazzx","935","510","","","","","","","","","","","null","+","Fixation - short","","null","","","","","","","","","","","","",""
"","html-keyboard-response","489","686722","0.0-576.0","0yoaazzx","935","510","","","","","","","","","","","355","ume","Diagnostic trial","","j","9","14","false","true","LEFT","f","0","","LEFT","true","","",""
"","call-function","490","686722","0.0-578.0-0.0","0yoaazzx","","","","","","","","","","","","","","","","","","","","","","","","","","","","","",""
"","html-keyboard-response","491","687026","0.0-578.0-1.0","0yoaazzx","935","510","","","","","","","","","","","null","Wrong","Feedback","","null","","","","","","","","","","","","",""
"","call-function","492","687026","0.0-578.0-2.0","0yoaazzx","","","","","","","","","","","","","","","","","","","","","","","","","","","","","",""
"","html-keyboard-response","493","687791","0.0-579.0","0yoaazzx","935","510","","","","","","","","","","","null","+","Fixation - short","","null","","","","","","","","","","","","",""
"","html-keyboard-response","494","688135","0.0-580.0","0yoaazzx","935","510","","","","","","","","","","","344","ume","Diagnostic trial","","f","9","15","false","true","LEFT","f","1","","LEFT","true","","",""
"","html-keyboard-response","495","688890","0.0-583.0","0yoaazzx","935","510","","","","","","","","","","","null","+","Fixation - short","","null","","","","","","","","","","","","",""
"","html-keyboard-response","496","689498","0.0-584.0","0yoaazzx","935","510","","","","","","","","","","","608","ume","Inducer trial","","j","9","","true","","","f","0","LEFT","","","","",""
"","call-function","497","689499","0.0-586.0-0.0","0yoaazzx","","","","","","","","","","","","","","","","","","","","","","","","","","","","","",""
"","html-keyboard-response","498","689803","0.0-586.0-1.0","0yoaazzx","935","510","","","","","","","","","","","null","Wrong","Feedback","","null","","","","","","","","","","","","",""
"","call-function","499","689803","0.0-586.0-2.0","0yoaazzx","","","","","","","","","","","","","","","","","","","","","","","","","","","","","",""
"","html-keyboard-response","500","691306","0.0-587.0","0yoaazzx","935","510","","","","","","","","","","","null","+","Fixation - long","","null","","","","","","","","","","","","",""
"","html-keyboard-response","501","694225","0.0-588.0","0yoaazzx","935","510","","","","","","","","","","","2919","If kue press LEFT | If swr press RIGHT","Inducer instructions",""," ","10","","","","","","","","","","","",""
"","html-keyboard-response","502","694988","0.0-589.0","0yoaazzx","935","510","","","","","","","","","","","null","+","Fixation - short","","null","","","","","","","","","","","","",""
"","html-keyboard-response","503","695814","0.0-590.0","0yoaazzx","935","510","","","","","","","","","","","826","kue","Diagnostic trial","","j","10","0","false","false","RIGHT","j","1","","LEFT","false","","",""
"","html-keyboard-response","504","696576","0.0-593.0","0yoaazzx","935","510","","","","","","","","","","","null","+","Fixation - short","","null","","","","","","","","","","","","",""
"","html-keyboard-response","505","697012","0.0-594.0","0yoaazzx","935","510","","","","","","","","","","","435","kue","Diagnostic trial","","j","10","1","false","true","LEFT","f","0","","LEFT","true","","",""
"","call-function","506","697012","0.0-596.0-0.0","0yoaazzx","","","","","","","","","","","","","","","","","","","","","","","","","","","","","",""
"","html-keyboard-response","507","697327","0.0-596.0-1.0","0yoaazzx","935","510","","","","","","","","","","","null","Wrong","Feedback","","null","","","","","","","","","","","","",""
"","call-function","508","697327","0.0-596.0-2.0","0yoaazzx","","","","","","","","","","","","","","","","","","","","","","","","","","","","","",""
"","html-keyboard-response","509","698082","0.0-597.0","0yoaazzx","935","510","","","","","","","","","","","null","+","Fixation - short","","null","","","","","","","","","","","","",""
"","html-keyboard-response","510","698566","0.0-598.0","0yoaazzx","935","510","","","","","","","","","","","483","kue","Diagnostic trial","","f","10","2","false","true","LEFT","f","1","","LEFT","true","","",""
"","html-keyboard-response","511","699323","0.0-601.0","0yoaazzx","935","510","","","","","","","","","","","null","+","Fixation - short","","null","","","","","","","","","","","","",""
"","html-keyboard-response","512","699939","0.0-602.0","0yoaazzx","935","510","","","","","","","","","","","615","swr","Diagnostic trial","","j","10","3","false","false","RIGHT","j","1","","RIGHT","true","","",""
"","html-keyboard-response","513","700702","0.0-605.0","0yoaazzx","935","510","","","","","","","","","","","null","+","Fixation - short","","null","","","","","","","","","","","","",""
"","html-keyboard-response","514","701327","0.0-606.0","0yoaazzx","935","510","","","","","","","","","","","624","kue","Inducer trial","","f","10","","true","","","f","1","LEFT","","","","",""
"","html-keyboard-response","515","702835","0.0-609.0","0yoaazzx","935","510","","","","","","","","","","","null","+","Fixation - long","","null","","","","","","","","","","","","",""
"","html-keyboard-response","516","706141","0.0-610.0","0yoaazzx","935","510","","","","","","","","","","","3306","If dul press LEFT | If guf press RIGHT","Inducer instructions",""," ","11","","","","","","","","","","","",""
"","html-keyboard-response","517","706898","0.0-611.0","0yoaazzx","935","510","","","","","","","","","","","null","+","Fixation - short","","null","","","","","","","","","","","","",""
"","html-keyboard-response","518","707359","0.0-612.0","0yoaazzx","935","510","","","","","","","","","","","461","guf","Diagnostic trial","","f","11","0","false","true","LEFT","f","1","","RIGHT","false","","",""
"","html-keyboard-response","519","708121","0.0-615.0","0yoaazzx","935","510","","","","","","","","","","","null","+","Fixation - short","","null","","","","","","","","","","","","",""
"","html-keyboard-response","520","708439","0.0-616.0","0yoaazzx","935","510","","","","","","","","","","","318","dul","Diagnostic trial","","j","11","1","false","true","LEFT","f","0","","LEFT","true","","",""
"","call-function","521","708439","0.0-618.0-0.0","0yoaazzx","","","","","","","","","","","","","","","","","","","","","","","","","","","","","",""
"","html-keyboard-response","522","708748","0.0-618.0-1.0","0yoaazzx","935","510","","","","","","","","","","","null","Wrong","Feedback","","null","","","","","","","","","","","","",""
"","call-function","523","708748","0.0-618.0-2.0","0yoaazzx","","","","","","","","","","","","","","","","","","","","","","","","","","","","","",""
"","html-keyboard-response","524","709514","0.0-619.0","0yoaazzx","935","510","","","","","","","","","","","null","+","Fixation - short","","null","","","","","","","","","","","","",""
"","html-keyboard-response","525","709828","0.0-620.0","0yoaazzx","935","510","","","","","","","","","","","313","guf","Diagnostic trial","","f","11","2","false","true","LEFT","f","1","","RIGHT","false","","",""
"","html-keyboard-response","526","710579","0.0-623.0","0yoaazzx","935","510","","","","","","","","","","","null","+","Fixation - short","","null","","","","","","","","","","","","",""
"","html-keyboard-response","527","711033","0.0-624.0","0yoaazzx","935","510","","","","","","","","","","","452","dul","Diagnostic trial","","j","11","3","false","false","RIGHT","j","1","","LEFT","false","","",""
"","html-keyboard-response","528","711790","0.0-627.0","0yoaazzx","935","510","","","","","","","","","","","null","+","Fixation - short","","null","","","","","","","","","","","","",""
"","html-keyboard-response","529","712549","0.0-628.0","0yoaazzx","935","510","","","","","","","","","","","759","guf","Diagnostic trial","","j","11","4","false","false","RIGHT","j","1","","RIGHT","true","","",""
"","html-keyboard-response","530","713309","0.0-631.0","0yoaazzx","935","510","","","","","","","","","","","null","+","Fixation - short","","null","","","","","","","","","","","","",""
"","html-keyboard-response","531","713702","0.0-632.0","0yoaazzx","935","510","","","","","","","","","","","393","dul","Diagnostic trial","","j","11","5","false","false","RIGHT","j","1","","LEFT","false","","",""
