"value","trial_type","trial_index","time_elapsed","internal_node_id","id","width","height","webaudio","browser","browser_version","mobile","os","fullscreen","vsync_rate","webcam","microphone","view_history","rt","stimulus","trial_info","success","response","inducer_run","diagnostic_run","inducer_trial","italic","correct_diag_response_side","correct_response_key","correct_response","correct_indu_response_side","correct_inducer_response_side","congruent","accuracy","open_feedback","interactive"
"","call-function","0","11","0.0-0.0","3wbo669c","","","","","","","","","","","","","","","","","","","","","","","","","","","","","",""
"","browser-check","1","428","0.0-1.0","3wbo669c","1536","711","true","firefox","122.0.0","false","Windows 10","true","144.93","true","true","","","","","","","","","","","","","","","","","","",""
"","instructions","2","103031","0.0-2.0","3wbo669c","","","","","","","","","","","","[{""page_index"":0,""viewing_time"":11207},{""page_index"":1,""viewing_time"":88204},{""page_index"":2,""viewing_time"":3192}]","102603","The experiment and consent","The experiment and consent","","","","","","","","","","","","","","",""
"","fullscreen","3","112370","0.0-3.0","3wbo669c","1536","864","","","","","","","","","","","8323","","Full screen","true","","","","","","","","","","","","","",""
"","instructions","4","146936","0.0-4.0","3wbo669c","1536","864","","","","","","","","","","[{""page_index"":0,""viewing_time"":22677},{""page_index"":1,""viewing_time"":11888}]","34565","Instructions","Basic overview explanation","","","","","","","","","","","","","","",""
"","html-keyboard-response","5","160953","0.0-5.0","3wbo669c","1536","864","","","","","","","","","","","12510","If italic press LEFT | If upright press RIGHT","Diagnostic instructions",""," ","","","","","","","","","","","","",""
"","html-keyboard-response","6","161711","0.0-6.0","3wbo669c","1536","864","","","","","","","","","","","null","+","Fixation - short","","null","","","","","","","","","","","","",""
"","html-keyboard-response","7","162452","0.0-7.0","3wbo669c","1536","864","","","","","","","","","","","739","chy","Practice diganostic trial","","j","practice","0","false","0","RIGHT","j","1","","","","","",""
"","html-keyboard-response","8","163215","0.0-10.0","3wbo669c","1536","864","","","","","","","","","","","null","+","Fixation - short","","null","","","","","","","","","","","","",""
"","html-keyboard-response","9","163949","0.0-11.0","3wbo669c","1536","864","","","","","","","","","","","734","pxv","Practice diganostic trial","","f","practice","1","false","1","LEFT","f","1","","","","","",""
"","html-keyboard-response","10","164714","0.0-14.0","3wbo669c","1536","864","","","","","","","","","","","null","+","Fixation - short","","null","","","","","","","","","","","","",""
"","html-keyboard-response","11","165225","0.0-15.0","3wbo669c","1536","864","","","","","","","","","","","511","chy","Practice diganostic trial","","j","practice","2","false","0","RIGHT","j","1","","","","","",""
"","html-keyboard-response","12","165990","0.0-18.0","3wbo669c","1536","864","","","","","","","","","","","null","+","Fixation - short","","null","","","","","","","","","","","","",""
"","html-keyboard-response","13","166439","0.0-19.0","3wbo669c","1536","864","","","","","","","","","","","449","pxv","Practice diganostic trial","","f","practice","3","false","1","LEFT","f","1","","","","","",""
"","html-keyboard-response","14","167232","0.0-22.0","3wbo669c","1536","864","","","","","","","","","","","null","+","Fixation - short","","null","","","","","","","","","","","","",""
"","html-keyboard-response","15","167855","0.0-23.0","3wbo669c","1536","864","","","","","","","","","","","622","chy","Practice diganostic trial","","f","practice","4","false","1","LEFT","f","1","","","","","",""
"","html-keyboard-response","16","168614","0.0-26.0","3wbo669c","1536","864","","","","","","","","","","","null","+","Fixation - short","","null","","","","","","","","","","","","",""
"","html-keyboard-response","17","169195","0.0-27.0","3wbo669c","1536","864","","","","","","","","","","","581","pxv","Practice diganostic trial","","j","practice","5","false","0","RIGHT","j","1","","","","","",""
"","html-keyboard-response","18","169950","0.0-30.0","3wbo669c","1536","864","","","","","","","","","","","null","+","Fixation - short","","null","","","","","","","","","","","","",""
"","html-keyboard-response","19","170395","0.0-31.0","3wbo669c","1536","864","","","","","","","","","","","445","pxv","Practice diganostic trial","","j","practice","6","false","0","RIGHT","j","1","","","","","",""
"","html-keyboard-response","20","171158","0.0-34.0","3wbo669c","1536","864","","","","","","","","","","","null","+","Fixation - short","","null","","","","","","","","","","","","",""
"","html-keyboard-response","21","171689","0.0-35.0","3wbo669c","1536","864","","","","","","","","","","","531","chy","Practice diganostic trial","","j","practice","7","false","0","RIGHT","j","1","","","","","",""
"","html-keyboard-response","22","172441","0.0-38.0","3wbo669c","1536","864","","","","","","","","","","","null","+","Fixation - short","","null","","","","","","","","","","","","",""
"","html-keyboard-response","23","172843","0.0-39.0","3wbo669c","1536","864","","","","","","","","","","","400","chy","Practice diganostic trial","","j","practice","8","false","1","LEFT","f","0","","","","","",""
"","call-function","24","172843","0.0-41.0-0.0","3wbo669c","","","","","","","","","","","","","","","","","","","","","","","","","","","","","",""
"","html-keyboard-response","25","173152","0.0-41.0-1.0","3wbo669c","1536","864","","","","","","","","","","","null","Wrong","Feedback","","null","","","","","","","","","","","","",""
"","call-function","26","173153","0.0-41.0-2.0","3wbo669c","","","","","","","","","","","","","","","","","","","","","","","","","","","","","",""
"","html-keyboard-response","27","173917","0.0-42.0","3wbo669c","1536","864","","","","","","","","","","","null","+","Fixation - short","","null","","","","","","","","","","","","",""
"","html-keyboard-response","28","174487","0.0-43.0","3wbo669c","1536","864","","","","","","","","","","","570","pxv","Practice diganostic trial","","f","practice","9","false","1","LEFT","f","1","","","","","",""
"","html-keyboard-response","29","175252","0.0-46.0","3wbo669c","1536","864","","","","","","","","","","","null","+","Fixation - short","","null","","","","","","","","","","","","",""
"","html-keyboard-response","30","175711","0.0-47.0","3wbo669c","1536","864","","","","","","","","","","","458","pxv","Practice diganostic trial","","f","practice","10","false","1","LEFT","f","1","","","","","",""
"","html-keyboard-response","31","176466","0.0-50.0","3wbo669c","1536","864","","","","","","","","","","","null","+","Fixation - short","","null","","","","","","","","","","","","",""
"","html-keyboard-response","32","176839","0.0-51.0","3wbo669c","1536","864","","","","","","","","","","","371","pxv","Practice diganostic trial","","f","practice","11","false","1","LEFT","f","1","","","","","",""
"","html-keyboard-response","33","177597","0.0-54.0","3wbo669c","1536","864","","","","","","","","","","","null","+","Fixation - short","","null","","","","","","","","","","","","",""
"","html-keyboard-response","34","177973","0.0-55.0","3wbo669c","1536","864","","","","","","","","","","","375","pxv","Practice diganostic trial","","f","practice","12","false","0","RIGHT","j","0","","","","","",""
"","call-function","35","177973","0.0-57.0-0.0","3wbo669c","","","","","","","","","","","","","","","","","","","","","","","","","","","","","",""
"","html-keyboard-response","36","178279","0.0-57.0-1.0","3wbo669c","1536","864","","","","","","","","","","","null","Wrong","Feedback","","null","","","","","","","","","","","","",""
"","call-function","37","178279","0.0-57.0-2.0","3wbo669c","","","","","","","","","","","","","","","","","","","","","","","","","","","","","",""
"","html-keyboard-response","38","179042","0.0-58.0","3wbo669c","1536","864","","","","","","","","","","","null","+","Fixation - short","","null","","","","","","","","","","","","",""
"","html-keyboard-response","39","179579","0.0-59.0","3wbo669c","1536","864","","","","","","","","","","","535","chy","Practice diganostic trial","","j","practice","13","false","0","RIGHT","j","1","","","","","",""
"","html-keyboard-response","40","180345","0.0-62.0","3wbo669c","1536","864","","","","","","","","","","","null","+","Fixation - short","","null","","","","","","","","","","","","",""
"","html-keyboard-response","41","180743","0.0-63.0","3wbo669c","1536","864","","","","","","","","","","","398","chy","Practice diganostic trial","","j","practice","14","false","0","RIGHT","j","1","","","","","",""
"","html-keyboard-response","42","181505","0.0-66.0","3wbo669c","1536","864","","","","","","","","","","","null","+","Fixation - short","","null","","","","","","","","","","","","",""
"","html-keyboard-response","43","182047","0.0-67.0","3wbo669c","1536","864","","","","","","","","","","","544","pxv","Practice diganostic trial","","f","practice","15","false","1","LEFT","f","1","","","","","",""
"","html-keyboard-response","44","182811","0.0-70.0","3wbo669c","1536","864","","","","","","","","","","","null","+","Fixation - short","","null","","","","","","","","","","","","",""
"","instructions","45","189544","0.0-71.0","3wbo669c","1536","864","","","","","","","","","","[{""page_index"":0,""viewing_time"":6732}]","6732","Instructions","Final experiment explanation","","","","","","","","","","","","","","",""
"","html-keyboard-response","46","197857","0.0-72.0","3wbo669c","1536","864","","","","","","","","","","","6805","If ecl press LEFT | If quy press RIGHT","Practice inducer instructions",""," ","practice","","","","","","","","","","","",""
"","html-keyboard-response","47","198583","0.0-73.0","3wbo669c","1536","864","","","","","","","","","","","724","","Practice inducer trial","","j","practice","","true","","","j","1","RIGHT","","","","",""
"","html-keyboard-response","48","199341","0.0-76.0","3wbo669c","1536","864","","","","","","","","","","","null","+","Fixation - short","","null","","","","","","","","","","","","",""
"","html-keyboard-response","49","202986","0.0-77.0","3wbo669c","1536","864","","","","","","","","","","","3643","If snx press LEFT | If wab press RIGHT","Practice inducer instructions",""," ","practice","","","","","","","","","","","",""
"","html-keyboard-response","50","203640","0.0-78.0","3wbo669c","1536","864","","","","","","","","","","","653","","Practice inducer trial","","f","practice","","true","","","f","1","LEFT","","","","",""
"","html-keyboard-response","51","204393","0.0-81.0","3wbo669c","1536","864","","","","","","","","","","","null","+","Fixation - short","","null","","","","","","","","","","","","",""
"","html-keyboard-response","52","207189","0.0-82.0","3wbo669c","1536","864","","","","","","","","","","","2794","If dlg press LEFT | If byy press RIGHT","Practice inducer instructions",""," ","practice","","","","","","","","","","","",""
"","html-keyboard-response","53","207728","0.0-83.0","3wbo669c","1536","864","","","","","","","","","","","539","","Practice inducer trial","","j","practice","","true","","","j","1","RIGHT","","","","",""
"","html-keyboard-response","54","208487","0.0-86.0","3wbo669c","1536","864","","","","","","","","","","","null","+","Fixation - short","","null","","","","","","","","","","","","",""
"","html-keyboard-response","55","210130","0.0-87.0","3wbo669c","1536","864","","","","","","","","","","","1642","If edc press LEFT | If mvv press RIGHT","Practice inducer instructions",""," ","practice","","","","","","","","","","","",""
"","html-keyboard-response","56","210843","0.0-88.0","3wbo669c","1536","864","","","","","","","","","","","712","","Practice inducer trial","","j","practice","","true","","","j","1","RIGHT","","","","",""
"","html-keyboard-response","57","211599","0.0-91.0","3wbo669c","1536","864","","","","","","","","","","","null","+","Fixation - short","","null","","","","","","","","","","","","",""
"","html-keyboard-response","58","213257","0.0-92.0","3wbo669c","1536","864","","","","","","","","","","","1657","If pmf press LEFT | If wwt press RIGHT","Practice inducer instructions",""," ","practice","","","","","","","","","","","",""
"","html-keyboard-response","59","213806","0.0-93.0","3wbo669c","1536","864","","","","","","","","","","","548","","Practice inducer trial","","f","practice","","true","","","f","1","LEFT","","","","",""
"","html-keyboard-response","60","214558","0.0-96.0","3wbo669c","1536","864","","","","","","","","","","","null","+","Fixation - short","","null","","","","","","","","","","","","",""
"","html-keyboard-response","61","215677","0.0-97.0","3wbo669c","1536","864","","","","","","","","","","","1118","If pbz press LEFT | If lct press RIGHT","Practice inducer instructions",""," ","practice","","","","","","","","","","","",""
"","html-keyboard-response","62","216477","0.0-98.0","3wbo669c","1536","864","","","","","","","","","","","800","","Practice inducer trial","","j","practice","","true","","","f","0","LEFT","","","","",""
"","call-function","63","216478","0.0-100.0-0.0","3wbo669c","","","","","","","","","","","","","","","","","","","","","","","","","","","","","",""
"","html-keyboard-response","64","216792","0.0-100.0-1.0","3wbo669c","1536","864","","","","","","","","","","","null","Wrong","Feedback","","null","","","","","","","","","","","","",""
"","call-function","65","216793","0.0-100.0-2.0","3wbo669c","","","","","","","","","","","","","","","","","","","","","","","","","","","","","",""
"","html-keyboard-response","66","217544","0.0-101.0","3wbo669c","1536","864","","","","","","","","","","","null","+","Fixation - short","","null","","","","","","","","","","","","",""
"","html-keyboard-response","67","231619","0.0-102.0","3wbo669c","1536","864","","","","","","","","","","","14075","End practice","End of practice",""," ","","","","","","","","","","","","",""
"","html-keyboard-response","68","233135","0.0-103.0","3wbo669c","1536","864","","","","","","","","","","","null","+","Fixation - long","","null","","","","","","","","","","","","",""
"","html-keyboard-response","69","238968","0.0-104.0","3wbo669c","1536","864","","","","","","","","","","","5831","If cta press LEFT | If jcr press RIGHT","Inducer instructions",""," ","0","","","","","","","","","","","",""
"","html-keyboard-response","70","239726","0.0-105.0","3wbo669c","1536","864","","","","","","","","","","","null","+","Fixation - short","","null","","","","","","","","","","","","",""
"","html-keyboard-response","71","240322","0.0-106.0","3wbo669c","1536","864","","","","","","","","","","","596","jcr","Diagnostic trial","","j","0","0","false","false","RIGHT","j","1","","RIGHT","true","","",""
"","html-keyboard-response","72","241086","0.0-109.0","3wbo669c","1536","864","","","","","","","","","","","null","+","Fixation - short","","null","","","","","","","","","","","","",""
"","html-keyboard-response","73","242442","0.0-110.0","3wbo669c","1536","864","","","","","","","","","","","1355","jcr","Diagnostic trial","","j","0","1","false","true","LEFT","f","0","","RIGHT","false","","",""
"","call-function","74","242443","0.0-112.0-0.0","3wbo669c","","","","","","","","","","","","","","","","","","","","","","","","","","","","","",""
"","html-keyboard-response","75","242757","0.0-112.0-1.0","3wbo669c","1536","864","","","","","","","","","","","null","Wrong","Feedback","","null","","","","","","","","","","","","",""
"","call-function","76","242758","0.0-112.0-2.0","3wbo669c","","","","","","","","","","","","","","","","","","","","","","","","","","","","","",""
"","html-keyboard-response","77","243517","0.0-113.0","3wbo669c","1536","864","","","","","","","","","","","null","+","Fixation - short","","null","","","","","","","","","","","","",""
"","html-keyboard-response","78","244923","0.0-114.0","3wbo669c","1536","864","","","","","","","","","","","1404","cta","Diagnostic trial","","f","0","2","false","false","RIGHT","j","0","","LEFT","false","","",""
"","call-function","79","244923","0.0-116.0-0.0","3wbo669c","","","","","","","","","","","","","","","","","","","","","","","","","","","","","",""
"","html-keyboard-response","80","245231","0.0-116.0-1.0","3wbo669c","1536","864","","","","","","","","","","","null","Wrong","Feedback","","null","","","","","","","","","","","","",""
"","call-function","81","245232","0.0-116.0-2.0","3wbo669c","","","","","","","","","","","","","","","","","","","","","","","","","","","","","",""
"","html-keyboard-response","82","245993","0.0-117.0","3wbo669c","1536","864","","","","","","","","","","","null","+","Fixation - short","","null","","","","","","","","","","","","",""
"","html-keyboard-response","83","246671","0.0-118.0","3wbo669c","1536","864","","","","","","","","","","","678","jcr","Diagnostic trial","","j","0","3","false","false","RIGHT","j","1","","RIGHT","true","","",""
"","html-keyboard-response","84","247432","0.0-121.0","3wbo669c","1536","864","","","","","","","","","","","null","+","Fixation - short","","null","","","","","","","","","","","","",""
"","html-keyboard-response","85","248566","0.0-122.0","3wbo669c","1536","864","","","","","","","","","","","1133","cta","Diagnostic trial","","f","0","4","false","false","RIGHT","j","0","","LEFT","false","","",""
"","call-function","86","248566","0.0-124.0-0.0","3wbo669c","","","","","","","","","","","","","","","","","","","","","","","","","","","","","",""
"","html-keyboard-response","87","248874","0.0-124.0-1.0","3wbo669c","1536","864","","","","","","","","","","","null","Wrong","Feedback","","null","","","","","","","","","","","","",""
"","call-function","88","248874","0.0-124.0-2.0","3wbo669c","","","","","","","","","","","","","","","","","","","","","","","","","","","","","",""
"","html-keyboard-response","89","249633","0.0-125.0","3wbo669c","1536","864","","","","","","","","","","","null","+","Fixation - short","","null","","","","","","","","","","","","",""
"","html-keyboard-response","90","250993","0.0-126.0","3wbo669c","1536","864","","","","","","","","","","","1361","jcr","Diagnostic trial","","f","0","5","false","true","LEFT","f","1","","RIGHT","false","","",""
"","html-keyboard-response","91","251757","0.0-129.0","3wbo669c","1536","864","","","","","","","","","","","null","+","Fixation - short","","null","","","","","","","","","","","","",""
"","html-keyboard-response","92","252735","0.0-130.0","3wbo669c","1536","864","","","","","","","","","","","978","cta","Diagnostic trial","","f","0","6","false","true","LEFT","f","1","","LEFT","true","","",""
"","html-keyboard-response","93","253499","0.0-133.0","3wbo669c","1536","864","","","","","","","","","","","null","+","Fixation - short","","null","","","","","","","","","","","","",""
"","html-keyboard-response","94","254566","0.0-134.0","3wbo669c","1536","864","","","","","","","","","","","1066","jcr","Diagnostic trial","","j","0","7","false","false","RIGHT","j","1","","RIGHT","true","","",""
"","html-keyboard-response","95","255322","0.0-137.0","3wbo669c","1536","864","","","","","","","","","","","null","+","Fixation - short","","null","","","","","","","","","","","","",""
"","html-keyboard-response","96","257338","0.0-138.0","3wbo669c","1536","864","","","","","","","","","","","null","cta","Diagnostic trial","","null","0","8","false","false","RIGHT","j","NaN","","LEFT","false","","",""
"","call-function","97","257339","0.0-139.0-0.0","3wbo669c","","","","","","","","","","","","","","","","","","","","","","","","","","","","","",""
"","html-keyboard-response","98","257649","0.0-139.0-1.0","3wbo669c","1536","864","","","","","","","","","","","null","Slow","Feedback","","null","","","","","","","","","","","","",""
"","call-function","99","257649","0.0-139.0-2.0","3wbo669c","","","","","","","","","","","","","","","","","","","","","","","","","","","","","",""
"","html-keyboard-response","100","258411","0.0-141.0","3wbo669c","1536","864","","","","","","","","","","","null","+","Fixation - short","","null","","","","","","","","","","","","",""
"","html-keyboard-response","101","259099","0.0-142.0","3wbo669c","1536","864","","","","","","","","","","","687","jcr","Diagnostic trial","","f","0","9","false","true","LEFT","f","1","","RIGHT","false","","",""
"","html-keyboard-response","102","259855","0.0-145.0","3wbo669c","1536","864","","","","","","","","","","","null","+","Fixation - short","","null","","","","","","","","","","","","",""
"","html-keyboard-response","103","260326","0.0-146.0","3wbo669c","1536","864","","","","","","","","","","","469","jcr","Diagnostic trial","","f","0","10","false","false","RIGHT","j","0","","RIGHT","true","","",""
"","call-function","104","260326","0.0-148.0-0.0","3wbo669c","","","","","","","","","","","","","","","","","","","","","","","","","","","","","",""
"","html-keyboard-response","105","260634","0.0-148.0-1.0","3wbo669c","1536","864","","","","","","","","","","","null","Wrong","Feedback","","null","","","","","","","","","","","","",""
"","call-function","106","260635","0.0-148.0-2.0","3wbo669c","","","","","","","","","","","","","","","","","","","","","","","","","","","","","",""
"","html-keyboard-response","107","261392","0.0-149.0","3wbo669c","1536","864","","","","","","","","","","","null","+","Fixation - short","","null","","","","","","","","","","","","",""
"","html-keyboard-response","108","261877","0.0-150.0","3wbo669c","1536","864","","","","","","","","","","","483","jcr","Diagnostic trial","","f","0","11","false","false","RIGHT","j","0","","RIGHT","true","","",""
"","call-function","109","261877","0.0-152.0-0.0","3wbo669c","","","","","","","","","","","","","","","","","","","","","","","","","","","","","",""
"","html-keyboard-response","110","262184","0.0-152.0-1.0","3wbo669c","1536","864","","","","","","","","","","","null","Wrong","Feedback","","null","","","","","","","","","","","","",""
"","call-function","111","262184","0.0-152.0-2.0","3wbo669c","","","","","","","","","","","","","","","","","","","","","","","","","","","","","",""
"","html-keyboard-response","112","262946","0.0-153.0","3wbo669c","1536","864","","","","","","","","","","","null","+","Fixation - short","","null","","","","","","","","","","","","",""
"","html-keyboard-response","113","264935","0.0-154.0","3wbo669c","1536","864","","","","","","","","","","","1988","jcr","Inducer trial","","f","0","","true","","","j","0","RIGHT","","","","",""
"","call-function","114","264935","0.0-156.0-0.0","3wbo669c","","","","","","","","","","","","","","","","","","","","","","","","","","","","","",""
"","html-keyboard-response","115","265243","0.0-156.0-1.0","3wbo669c","1536","864","","","","","","","","","","","null","Wrong","Feedback","","null","","","","","","","","","","","","",""
"","call-function","116","265244","0.0-156.0-2.0","3wbo669c","","","","","","","","","","","","","","","","","","","","","","","","","","","","","",""
"","html-keyboard-response","117","266749","0.0-157.0","3wbo669c","1536","864","","","","","","","","","","","null","+","Fixation - long","","null","","","","","","","","","","","","",""
"","html-keyboard-response","118","270941","0.0-158.0","3wbo669c","1536","864","","","","","","","","","","","4191","If ibg press LEFT | If yna press RIGHT","Inducer instructions",""," ","1","","","","","","","","","","","",""
"","html-keyboard-response","119","271761","0.0-159.0","3wbo669c","1536","864","","","","","","","","","","","null","+","Fixation - short","","null","","","","","","","","","","","","",""
"","html-keyboard-response","120","273121","0.0-160.0","3wbo669c","1536","864","","","","","","","","","","","1359","yna","Diagnostic trial","","f","1","0","false","true","LEFT","f","1","","RIGHT","false","","",""
"","html-keyboard-response","121","273871","0.0-163.0","3wbo669c","1536","864","","","","","","","","","","","null","+","Fixation - short","","null","","","","","","","","","","","","",""
"","html-keyboard-response","122","275489","0.0-164.0","3wbo669c","1536","864","","","","","","","","","","","1618","yna","Diagnostic trial","","f","1","1","false","true","LEFT","f","1","","RIGHT","false","","",""
"","html-keyboard-response","123","276248","0.0-167.0","3wbo669c","1536","864","","","","","","","","","","","null","+","Fixation - short","","null","","","","","","","","","","","","",""
"","html-keyboard-response","124","277454","0.0-168.0","3wbo669c","1536","864","","","","","","","","","","","1206","ibg","Diagnostic trial","","f","1","2","false","true","LEFT","f","1","","LEFT","true","","",""
"","html-keyboard-response","125","278212","0.0-171.0","3wbo669c","1536","864","","","","","","","","","","","null","+","Fixation - short","","null","","","","","","","","","","","","",""
"","html-keyboard-response","126","278693","0.0-172.0","3wbo669c","1536","864","","","","","","","","","","","481","ibg","Diagnostic trial","","f","1","3","false","true","LEFT","f","1","","LEFT","true","","",""
"","html-keyboard-response","127","279446","0.0-175.0","3wbo669c","1536","864","","","","","","","","","","","null","+","Fixation - short","","null","","","","","","","","","","","","",""
"","html-keyboard-response","128","280420","0.0-176.0","3wbo669c","1536","864","","","","","","","","","","","974","yna","Diagnostic trial","","f","1","4","false","true","LEFT","f","1","","RIGHT","false","","",""
"","html-keyboard-response","129","281172","0.0-179.0","3wbo669c","1536","864","","","","","","","","","","","null","+","Fixation - short","","null","","","","","","","","","","","","",""
"","html-keyboard-response","130","282063","0.0-180.0","3wbo669c","1536","864","","","","","","","","","","","891","yna","Diagnostic trial","","j","1","5","false","false","RIGHT","j","1","","RIGHT","true","","",""
"","html-keyboard-response","131","282825","0.0-183.0","3wbo669c","1536","864","","","","","","","","","","","null","+","Fixation - short","","null","","","","","","","","","","","","",""
"","html-keyboard-response","132","283473","0.0-184.0","3wbo669c","1536","864","","","","","","","","","","","647","yna","Diagnostic trial","","f","1","6","false","true","LEFT","f","1","","RIGHT","false","","",""
"","html-keyboard-response","133","284238","0.0-187.0","3wbo669c","1536","864","","","","","","","","","","","null","+","Fixation - short","","null","","","","","","","","","","","","",""
"","html-keyboard-response","134","285660","0.0-188.0","3wbo669c","1536","864","","","","","","","","","","","1422","yna","Inducer trial","","j","1","","true","","","j","1","RIGHT","","","","",""
"","html-keyboard-response","135","287162","0.0-191.0","3wbo669c","1536","864","","","","","","","","","","","null","+","Fixation - long","","null","","","","","","","","","","","","",""
"","html-keyboard-response","136","289017","0.0-192.0","3wbo669c","1536","864","","","","","","","","","","","1855","If rrd press LEFT | If flh press RIGHT","Inducer instructions",""," ","2","","","","","","","","","","","",""
"","html-keyboard-response","137","289776","0.0-193.0","3wbo669c","1536","864","","","","","","","","","","","null","+","Fixation - short","","null","","","","","","","","","","","","",""
"","html-keyboard-response","138","290686","0.0-194.0","3wbo669c","1536","864","","","","","","","","","","","910","flh","Diagnostic trial","","f","2","0","false","true","LEFT","f","1","","RIGHT","false","","",""
"","html-keyboard-response","139","291439","0.0-197.0","3wbo669c","1536","864","","","","","","","","","","","null","+","Fixation - short","","null","","","","","","","","","","","","",""
"","html-keyboard-response","140","292246","0.0-198.0","3wbo669c","1536","864","","","","","","","","","","","806","rrd","Diagnostic trial","","f","2","1","false","true","LEFT","f","1","","LEFT","true","","",""
"","html-keyboard-response","141","293006","0.0-201.0","3wbo669c","1536","864","","","","","","","","","","","null","+","Fixation - short","","null","","","","","","","","","","","","",""
"","html-keyboard-response","142","293561","0.0-202.0","3wbo669c","1536","864","","","","","","","","","","","554","rrd","Diagnostic trial","","f","2","2","false","true","LEFT","f","1","","LEFT","true","","",""
"","html-keyboard-response","143","294324","0.0-205.0","3wbo669c","1536","864","","","","","","","","","","","null","+","Fixation - short","","null","","","","","","","","","","","","",""
"","html-keyboard-response","144","295420","0.0-206.0","3wbo669c","1536","864","","","","","","","","","","","1096","flh","Diagnostic trial","","j","2","3","false","false","RIGHT","j","1","","RIGHT","true","","",""
"","html-keyboard-response","145","296172","0.0-209.0","3wbo669c","1536","864","","","","","","","","","","","null","+","Fixation - short","","null","","","","","","","","","","","","",""
"","html-keyboard-response","146","297063","0.0-210.0","3wbo669c","1536","864","","","","","","","","","","","891","rrd","Diagnostic trial","","f","2","4","false","true","LEFT","f","1","","LEFT","true","","",""
"","html-keyboard-response","147","297815","0.0-213.0","3wbo669c","1536","864","","","","","","","","","","","null","+","Fixation - short","","null","","","","","","","","","","","","",""
"","html-keyboard-response","148","298353","0.0-214.0","3wbo669c","1536","864","","","","","","","","","","","538","flh","Diagnostic trial","","f","2","5","false","true","LEFT","f","1","","RIGHT","false","","",""
"","html-keyboard-response","149","299105","0.0-217.0","3wbo669c","1536","864","","","","","","","","","","","null","+","Fixation - short","","null","","","","","","","","","","","","",""
"","html-keyboard-response","150","299853","0.0-218.0","3wbo669c","1536","864","","","","","","","","","","","748","rrd","Diagnostic trial","","j","2","6","false","false","RIGHT","j","1","","LEFT","false","","",""
"","html-keyboard-response","151","300610","0.0-221.0","3wbo669c","1536","864","","","","","","","","","","","null","+","Fixation - short","","null","","","","","","","","","","","","",""
"","html-keyboard-response","152","301303","0.0-222.0","3wbo669c","1536","864","","","","","","","","","","","693","rrd","Diagnostic trial","","j","2","7","false","false","RIGHT","j","1","","LEFT","false","","",""
"","html-keyboard-response","153","302058","0.0-225.0","3wbo669c","1536","864","","","","","","","","","","","null","+","Fixation - short","","null","","","","","","","","","","","","",""
"","html-keyboard-response","154","302563","0.0-226.0","3wbo669c","1536","864","","","","","","","","","","","504","flh","Diagnostic trial","","j","2","8","false","false","RIGHT","j","1","","RIGHT","true","","",""
"","html-keyboard-response","155","303327","0.0-229.0","3wbo669c","1536","864","","","","","","","","","","","null","+","Fixation - short","","null","","","","","","","","","","","","",""
"","html-keyboard-response","156","303821","0.0-230.0","3wbo669c","1536","864","","","","","","","","","","","492","flh","Diagnostic trial","","j","2","9","false","false","RIGHT","j","1","","RIGHT","true","","",""
"","html-keyboard-response","157","304585","0.0-233.0","3wbo669c","1536","864","","","","","","","","","","","null","+","Fixation - short","","null","","","","","","","","","","","","",""
"","html-keyboard-response","158","305297","0.0-234.0","3wbo669c","1536","864","","","","","","","","","","","711","rrd","Diagnostic trial","","f","2","10","false","false","RIGHT","j","0","","LEFT","false","","",""
"","call-function","159","305298","0.0-236.0-0.0","3wbo669c","","","","","","","","","","","","","","","","","","","","","","","","","","","","","",""
"","html-keyboard-response","160","305609","0.0-236.0-1.0","3wbo669c","1536","864","","","","","","","","","","","null","Wrong","Feedback","","null","","","","","","","","","","","","",""
"","call-function","161","305609","0.0-236.0-2.0","3wbo669c","","","","","","","","","","","","","","","","","","","","","","","","","","","","","",""
"","html-keyboard-response","162","306375","0.0-237.0","3wbo669c","1536","864","","","","","","","","","","","null","+","Fixation - short","","null","","","","","","","","","","","","",""
"","html-keyboard-response","163","307121","0.0-238.0","3wbo669c","1536","864","","","","","","","","","","","746","rrd","Diagnostic trial","","f","2","11","false","true","LEFT","f","1","","LEFT","true","","",""
"","html-keyboard-response","164","307876","0.0-241.0","3wbo669c","1536","864","","","","","","","","","","","null","+","Fixation - short","","null","","","","","","","","","","","","",""
"","html-keyboard-response","165","308625","0.0-242.0","3wbo669c","1536","864","","","","","","","","","","","750","flh","Diagnostic trial","","f","2","12","false","true","LEFT","f","1","","RIGHT","false","","",""
"","html-keyboard-response","166","309381","0.0-245.0","3wbo669c","1536","864","","","","","","","","","","","null","+","Fixation - short","","null","","","","","","","","","","","","",""
"","html-keyboard-response","167","311037","0.0-246.0","3wbo669c","1536","864","","","","","","","","","","","1656","rrd","Inducer trial","","j","2","","true","","","f","0","LEFT","","","","",""
"","call-function","168","311037","0.0-248.0-0.0","3wbo669c","","","","","","","","","","","","","","","","","","","","","","","","","","","","","",""
"","html-keyboard-response","169","311353","0.0-248.0-1.0","3wbo669c","1536","864","","","","","","","","","","","null","Wrong","Feedback","","null","","","","","","","","","","","","",""
"","call-function","170","311353","0.0-248.0-2.0","3wbo669c","","","","","","","","","","","","","","","","","","","","","","","","","","","","","",""
"","html-keyboard-response","171","312886","0.0-249.0","3wbo669c","1536","864","","","","","","","","","","","null","+","Fixation - long","","null","","","","","","","","","","","","",""
"","html-keyboard-response","172","316175","0.0-250.0","3wbo669c","1536","864","","","","","","","","","","","3289","If idy press LEFT | If otr press RIGHT","Inducer instructions",""," ","3","","","","","","","","","","","",""
"","html-keyboard-response","173","316930","0.0-251.0","3wbo669c","1536","864","","","","","","","","","","","null","+","Fixation - short","","null","","","","","","","","","","","","",""
"","html-keyboard-response","174","318028","0.0-252.0","3wbo669c","1536","864","","","","","","","","","","","1098","otr","Diagnostic trial","","f","3","0","false","true","LEFT","f","1","","RIGHT","false","","",""
"","html-keyboard-response","175","318793","0.0-255.0","3wbo669c","1536","864","","","","","","","","","","","null","+","Fixation - short","","null","","","","","","","","","","","","",""
"","html-keyboard-response","176","319851","0.0-256.0","3wbo669c","1536","864","","","","","","","","","","","1058","otr","Diagnostic trial","","f","3","1","false","true","LEFT","f","1","","RIGHT","false","","",""
"","html-keyboard-response","177","320613","0.0-259.0","3wbo669c","1536","864","","","","","","","","","","","null","+","Fixation - short","","null","","","","","","","","","","","","",""
"","html-keyboard-response","178","321155","0.0-260.0","3wbo669c","1536","864","","","","","","","","","","","542","otr","Diagnostic trial","","f","3","2","false","true","LEFT","f","1","","RIGHT","false","","",""
"","html-keyboard-response","179","321919","0.0-263.0","3wbo669c","1536","864","","","","","","","","","","","null","+","Fixation - short","","null","","","","","","","","","","","","",""
"","html-keyboard-response","180","323099","0.0-264.0","3wbo669c","1536","864","","","","","","","","","","","1179","otr","Diagnostic trial","","f","3","3","false","true","LEFT","f","1","","RIGHT","false","","",""
"","html-keyboard-response","181","323864","0.0-267.0","3wbo669c","1536","864","","","","","","","","","","","null","+","Fixation - short","","null","","","","","","","","","","","","",""
"","html-keyboard-response","182","324353","0.0-268.0","3wbo669c","1536","864","","","","","","","","","","","489","idy","Diagnostic trial","","f","3","4","false","true","LEFT","f","1","","LEFT","true","","",""
"","html-keyboard-response","183","325107","0.0-271.0","3wbo669c","1536","864","","","","","","","","","","","null","+","Fixation - short","","null","","","","","","","","","","","","",""
"","html-keyboard-response","184","325655","0.0-272.0","3wbo669c","1536","864","","","","","","","","","","","548","idy","Diagnostic trial","","f","3","5","false","true","LEFT","f","1","","LEFT","true","","",""
"","html-keyboard-response","185","326410","0.0-275.0","3wbo669c","1536","864","","","","","","","","","","","null","+","Fixation - short","","null","","","","","","","","","","","","",""
"","html-keyboard-response","186","327086","0.0-276.0","3wbo669c","1536","864","","","","","","","","","","","675","otr","Diagnostic trial","","f","3","6","false","true","LEFT","f","1","","RIGHT","false","","",""
"","html-keyboard-response","187","327838","0.0-279.0","3wbo669c","1536","864","","","","","","","","","","","null","+","Fixation - short","","null","","","","","","","","","","","","",""
"","html-keyboard-response","188","328345","0.0-280.0","3wbo669c","1536","864","","","","","","","","","","","506","otr","Diagnostic trial","","f","3","7","false","true","LEFT","f","1","","RIGHT","false","","",""
"","html-keyboard-response","189","329111","0.0-283.0","3wbo669c","1536","864","","","","","","","","","","","null","+","Fixation - short","","null","","","","","","","","","","","","",""
"","html-keyboard-response","190","329705","0.0-284.0","3wbo669c","1536","864","","","","","","","","","","","593","idy","Diagnostic trial","","j","3","8","false","false","RIGHT","j","1","","LEFT","false","","",""
"","html-keyboard-response","191","330464","0.0-287.0","3wbo669c","1536","864","","","","","","","","","","","null","+","Fixation - short","","null","","","","","","","","","","","","",""
"","html-keyboard-response","192","331869","0.0-288.0","3wbo669c","1536","864","","","","","","","","","","","1404","otr","Inducer trial","","j","3","","true","","","j","1","RIGHT","","","","",""
"","html-keyboard-response","193","333371","0.0-291.0","3wbo669c","1536","864","","","","","","","","","","","null","+","Fixation - long","","null","","","","","","","","","","","","",""
"","html-keyboard-response","194","336281","0.0-292.0","3wbo669c","1536","864","","","","","","","","","","","2910","If cui press LEFT | If iei press RIGHT","Inducer instructions",""," ","4","","","","","","","","","","","",""
"","html-keyboard-response","195","337039","0.0-293.0","3wbo669c","1536","864","","","","","","","","","","","null","+","Fixation - short","","null","","","","","","","","","","","","",""
"","html-keyboard-response","196","338030","0.0-294.0","3wbo669c","1536","864","","","","","","","","","","","990","iei","Diagnostic trial","","j","4","0","false","false","RIGHT","j","1","","RIGHT","true","","",""
"","html-keyboard-response","197","338782","0.0-297.0","3wbo669c","1536","864","","","","","","","","","","","null","+","Fixation - short","","null","","","","","","","","","","","","",""
"","html-keyboard-response","198","339783","0.0-298.0","3wbo669c","1536","864","","","","","","","","","","","1000","cui","Diagnostic trial","","f","4","1","false","true","LEFT","f","1","","LEFT","true","","",""
"","html-keyboard-response","199","340538","0.0-301.0","3wbo669c","1536","864","","","","","","","","","","","null","+","Fixation - short","","null","","","","","","","","","","","","",""
"","html-keyboard-response","200","341285","0.0-302.0","3wbo669c","1536","864","","","","","","","","","","","746","cui","Diagnostic trial","","f","4","2","false","true","LEFT","f","1","","LEFT","true","","",""
"","html-keyboard-response","201","342044","0.0-305.0","3wbo669c","1536","864","","","","","","","","","","","null","+","Fixation - short","","null","","","","","","","","","","","","",""
"","html-keyboard-response","202","342603","0.0-306.0","3wbo669c","1536","864","","","","","","","","","","","558","cui","Diagnostic trial","","j","4","3","false","false","RIGHT","j","1","","LEFT","false","","",""
"","html-keyboard-response","203","343377","0.0-309.0","3wbo669c","1536","864","","","","","","","","","","","null","+","Fixation - short","","null","","","","","","","","","","","","",""
"","html-keyboard-response","204","343831","0.0-310.0","3wbo669c","1536","864","","","","","","","","","","","453","cui","Diagnostic trial","","j","4","4","false","false","RIGHT","j","1","","LEFT","false","","",""
"","html-keyboard-response","205","344586","0.0-313.0","3wbo669c","1536","864","","","","","","","","","","","null","+","Fixation - short","","null","","","","","","","","","","","","",""
"","html-keyboard-response","206","345008","0.0-314.0","3wbo669c","1536","864","","","","","","","","","","","422","cui","Diagnostic trial","","j","4","5","false","false","RIGHT","j","1","","LEFT","false","","",""
"","html-keyboard-response","207","345767","0.0-317.0","3wbo669c","1536","864","","","","","","","","","","","null","+","Fixation - short","","null","","","","","","","","","","","","",""
"","html-keyboard-response","208","346416","0.0-318.0","3wbo669c","1536","864","","","","","","","","","","","647","cui","Diagnostic trial","","j","4","6","false","true","LEFT","f","0","","LEFT","true","","",""
"","call-function","209","346416","0.0-320.0-0.0","3wbo669c","","","","","","","","","","","","","","","","","","","","","","","","","","","","","",""
"","html-keyboard-response","210","346730","0.0-320.0-1.0","3wbo669c","1536","864","","","","","","","","","","","null","Wrong","Feedback","","null","","","","","","","","","","","","",""
"","call-function","211","346730","0.0-320.0-2.0","3wbo669c","","","","","","","","","","","","","","","","","","","","","","","","","","","","","",""
"","html-keyboard-response","212","347490","0.0-321.0","3wbo669c","1536","864","","","","","","","","","","","null","+","Fixation - short","","null","","","","","","","","","","","","",""
"","html-keyboard-response","213","348226","0.0-322.0","3wbo669c","1536","864","","","","","","","","","","","735","cui","Diagnostic trial","","j","4","7","false","false","RIGHT","j","1","","LEFT","false","","",""
"","html-keyboard-response","214","348981","0.0-325.0","3wbo669c","1536","864","","","","","","","","","","","null","+","Fixation - short","","null","","","","","","","","","","","","",""
"","html-keyboard-response","215","349484","0.0-326.0","3wbo669c","1536","864","","","","","","","","","","","502","cui","Diagnostic trial","","j","4","8","false","false","RIGHT","j","1","","LEFT","false","","",""
"","html-keyboard-response","216","350241","0.0-329.0","3wbo669c","1536","864","","","","","","","","","","","null","+","Fixation - short","","null","","","","","","","","","","","","",""
"","html-keyboard-response","217","350625","0.0-330.0","3wbo669c","1536","864","","","","","","","","","","","384","cui","Diagnostic trial","","j","4","9","false","false","RIGHT","j","1","","LEFT","false","","",""
"","html-keyboard-response","218","351377","0.0-333.0","3wbo669c","1536","864","","","","","","","","","","","null","+","Fixation - short","","null","","","","","","","","","","","","",""
"","html-keyboard-response","219","351758","0.0-334.0","3wbo669c","1536","864","","","","","","","","","","","379","cui","Diagnostic trial","","j","4","10","false","false","RIGHT","j","1","","LEFT","false","","",""
"","html-keyboard-response","220","352514","0.0-337.0","3wbo669c","1536","864","","","","","","","","","","","null","+","Fixation - short","","null","","","","","","","","","","","","",""
"","html-keyboard-response","221","353108","0.0-338.0","3wbo669c","1536","864","","","","","","","","","","","593","iei","Diagnostic trial","","j","4","11","false","false","RIGHT","j","1","","RIGHT","true","","",""
"","html-keyboard-response","222","353864","0.0-341.0","3wbo669c","1536","864","","","","","","","","","","","null","+","Fixation - short","","null","","","","","","","","","","","","",""
"","html-keyboard-response","223","354534","0.0-342.0","3wbo669c","1536","864","","","","","","","","","","","668","cui","Diagnostic trial","","f","4","12","false","true","LEFT","f","1","","LEFT","true","","",""
"","html-keyboard-response","224","355293","0.0-345.0","3wbo669c","1536","864","","","","","","","","","","","null","+","Fixation - short","","null","","","","","","","","","","","","",""
"","html-keyboard-response","225","355791","0.0-346.0","3wbo669c","1536","864","","","","","","","","","","","498","iei","Diagnostic trial","","f","4","13","false","true","LEFT","f","1","","RIGHT","false","","",""
"","html-keyboard-response","226","356555","0.0-349.0","3wbo669c","1536","864","","","","","","","","","","","null","+","Fixation - short","","null","","","","","","","","","","","","",""
"","html-keyboard-response","227","357888","0.0-350.0","3wbo669c","1536","864","","","","","","","","","","","1333","iei","Inducer trial","","j","4","","true","","","j","1","RIGHT","","","","",""
"","html-keyboard-response","228","359398","0.0-353.0","3wbo669c","1536","864","","","","","","","","","","","null","+","Fixation - long","","null","","","","","","","","","","","","",""
"","html-keyboard-response","229","362414","0.0-354.0","3wbo669c","1536","864","","","","","","","","","","","3016","If cer press LEFT | If amb press RIGHT","Inducer instructions",""," ","5","","","","","","","","","","","",""
"","html-keyboard-response","230","363177","0.0-355.0","3wbo669c","1536","864","","","","","","","","","","","null","+","Fixation - short","","null","","","","","","","","","","","","",""
"","html-keyboard-response","231","363900","0.0-356.0","3wbo669c","1536","864","","","","","","","","","","","722","cer","Diagnostic trial","","f","5","0","false","true","LEFT","f","1","","LEFT","true","","",""
"","html-keyboard-response","232","364652","0.0-359.0","3wbo669c","1536","864","","","","","","","","","","","null","+","Fixation - short","","null","","","","","","","","","","","","",""
"","html-keyboard-response","233","365814","0.0-360.0","3wbo669c","1536","864","","","","","","","","","","","1161","amb","Diagnostic trial","","j","5","1","false","false","RIGHT","j","1","","RIGHT","true","","",""
"","html-keyboard-response","234","366669","0.0-363.0","3wbo669c","1536","864","","","","","","","","","","","null","+","Fixation - short","","null","","","","","","","","","","","","",""
"","html-keyboard-response","235","367225","0.0-364.0","3wbo669c","1536","864","","","","","","","","","","","556","cer","Diagnostic trial","","f","5","2","false","true","LEFT","f","1","","LEFT","true","","",""
"","html-keyboard-response","236","367989","0.0-367.0","3wbo669c","1536","864","","","","","","","","","","","null","+","Fixation - short","","null","","","","","","","","","","","","",""
"","html-keyboard-response","237","368454","0.0-368.0","3wbo669c","1536","864","","","","","","","","","","","465","cer","Diagnostic trial","","f","5","3","false","false","RIGHT","j","0","","LEFT","false","","",""
"","call-function","238","368454","0.0-370.0-0.0","3wbo669c","","","","","","","","","","","","","","","","","","","","","","","","","","","","","",""
"","html-keyboard-response","239","368765","0.0-370.0-1.0","3wbo669c","1536","864","","","","","","","","","","","null","Wrong","Feedback","","null","","","","","","","","","","","","",""
"","call-function","240","368765","0.0-370.0-2.0","3wbo669c","","","","","","","","","","","","","","","","","","","","","","","","","","","","","",""
"","html-keyboard-response","241","369526","0.0-371.0","3wbo669c","1536","864","","","","","","","","","","","null","+","Fixation - short","","null","","","","","","","","","","","","",""
"","html-keyboard-response","242","370461","0.0-372.0","3wbo669c","1536","864","","","","","","","","","","","933","amb","Diagnostic trial","","j","5","4","false","false","RIGHT","j","1","","RIGHT","true","","",""
"","html-keyboard-response","243","371217","0.0-375.0","3wbo669c","1536","864","","","","","","","","","","","null","+","Fixation - short","","null","","","","","","","","","","","","",""
"","html-keyboard-response","244","371877","0.0-376.0","3wbo669c","1536","864","","","","","","","","","","","659","cer","Diagnostic trial","","f","5","5","false","true","LEFT","f","1","","LEFT","true","","",""
"","html-keyboard-response","245","372635","0.0-379.0","3wbo669c","1536","864","","","","","","","","","","","null","+","Fixation - short","","null","","","","","","","","","","","","",""
"","html-keyboard-response","246","373269","0.0-380.0","3wbo669c","1536","864","","","","","","","","","","","634","cer","Diagnostic trial","","f","5","6","false","true","LEFT","f","1","","LEFT","true","","",""
"","html-keyboard-response","247","374026","0.0-383.0","3wbo669c","1536","864","","","","","","","","","","","null","+","Fixation - short","","null","","","","","","","","","","","","",""
"","html-keyboard-response","248","374660","0.0-384.0","3wbo669c","1536","864","","","","","","","","","","","632","amb","Diagnostic trial","","j","5","7","false","false","RIGHT","j","1","","RIGHT","true","","",""
"","html-keyboard-response","249","375426","0.0-387.0","3wbo669c","1536","864","","","","","","","","","","","null","+","Fixation - short","","null","","","","","","","","","","","","",""
"","html-keyboard-response","250","376080","0.0-388.0","3wbo669c","1536","864","","","","","","","","","","","655","cer","Diagnostic trial","","f","5","8","false","true","LEFT","f","1","","LEFT","true","","",""
"","html-keyboard-response","251","376842","0.0-391.0","3wbo669c","1536","864","","","","","","","","","","","null","+","Fixation - short","","null","","","","","","","","","","","","",""
"","html-keyboard-response","252","377367","0.0-392.0","3wbo669c","1536","864","","","","","","","","","","","525","cer","Diagnostic trial","","f","5","9","false","true","LEFT","f","1","","LEFT","true","","",""
"","html-keyboard-response","253","378133","0.0-395.0","3wbo669c","1536","864","","","","","","","","","","","null","+","Fixation - short","","null","","","","","","","","","","","","",""
"","html-keyboard-response","254","378583","0.0-396.0","3wbo669c","1536","864","","","","","","","","","","","450","cer","Diagnostic trial","","f","5","10","false","true","LEFT","f","1","","LEFT","true","","",""
"","html-keyboard-response","255","379341","0.0-399.0","3wbo669c","1536","864","","","","","","","","","","","null","+","Fixation - short","","null","","","","","","","","","","","","",""
"","html-keyboard-response","256","379916","0.0-400.0","3wbo669c","1536","864","","","","","","","","","","","574","cer","Diagnostic trial","","j","5","11","false","false","RIGHT","j","1","","LEFT","false","","",""
"","html-keyboard-response","257","380679","0.0-403.0","3wbo669c","1536","864","","","","","","","","","","","null","+","Fixation - short","","null","","","","","","","","","","","","",""
"","html-keyboard-response","258","381644","0.0-404.0","3wbo669c","1536","864","","","","","","","","","","","964","amb","Inducer trial","","j","5","","true","","","j","1","RIGHT","","","","",""
"","html-keyboard-response","259","383157","0.0-407.0","3wbo669c","1536","864","","","","","","","","","","","null","+","Fixation - long","","null","","","","","","","","","","","","",""
"","html-keyboard-response","260","386017","0.0-408.0","3wbo669c","1536","864","","","","","","","","","","","2860","If hhd press LEFT | If pte press RIGHT","Inducer instructions",""," ","6","","","","","","","","","","","",""
"","html-keyboard-response","261","386769","0.0-409.0","3wbo669c","1536","864","","","","","","","","","","","null","+","Fixation - short","","null","","","","","","","","","","","","",""
"","html-keyboard-response","262","387525","0.0-410.0","3wbo669c","1536","864","","","","","","","","","","","757","pte","Diagnostic trial","","j","6","0","false","false","RIGHT","j","1","","RIGHT","true","","",""
"","html-keyboard-response","263","388279","0.0-413.0","3wbo669c","1536","864","","","","","","","","","","","null","+","Fixation - short","","null","","","","","","","","","","","","",""
"","html-keyboard-response","264","389052","0.0-414.0","3wbo669c","1536","864","","","","","","","","","","","773","hhd","Diagnostic trial","","f","6","1","false","true","LEFT","f","1","","LEFT","true","","",""
"","html-keyboard-response","265","389816","0.0-417.0","3wbo669c","1536","864","","","","","","","","","","","null","+","Fixation - short","","null","","","","","","","","","","","","",""
"","html-keyboard-response","266","390945","0.0-418.0","3wbo669c","1536","864","","","","","","","","","","","1128","pte","Diagnostic trial","","j","6","2","false","true","LEFT","f","0","","RIGHT","false","","",""
"","call-function","267","390945","0.0-420.0-0.0","3wbo669c","","","","","","","","","","","","","","","","","","","","","","","","","","","","","",""
"","html-keyboard-response","268","391274","0.0-420.0-1.0","3wbo669c","1536","864","","","","","","","","","","","null","Wrong","Feedback","","null","","","","","","","","","","","","",""
"","call-function","269","391274","0.0-420.0-2.0","3wbo669c","","","","","","","","","","","","","","","","","","","","","","","","","","","","","",""
"","html-keyboard-response","270","392038","0.0-421.0","3wbo669c","1536","864","","","","","","","","","","","null","+","Fixation - short","","null","","","","","","","","","","","","",""
"","html-keyboard-response","271","393443","0.0-422.0","3wbo669c","1536","864","","","","","","","","","","","1404","hhd","Diagnostic trial","","j","6","3","false","false","RIGHT","j","1","","LEFT","false","","",""
"","html-keyboard-response","272","394199","0.0-425.0","3wbo669c","1536","864","","","","","","","","","","","null","+","Fixation - short","","null","","","","","","","","","","","","",""
"","html-keyboard-response","273","394745","0.0-426.0","3wbo669c","1536","864","","","","","","","","","","","546","hhd","Diagnostic trial","","f","6","4","false","true","LEFT","f","1","","LEFT","true","","",""
"","html-keyboard-response","274","395504","0.0-429.0","3wbo669c","1536","864","","","","","","","","","","","null","+","Fixation - short","","null","","","","","","","","","","","","",""
"","html-keyboard-response","275","395933","0.0-430.0","3wbo669c","1536","864","","","","","","","","","","","430","hhd","Diagnostic trial","","f","6","5","false","true","LEFT","f","1","","LEFT","true","","",""
"","html-keyboard-response","276","396698","0.0-433.0","3wbo669c","1536","864","","","","","","","","","","","null","+","Fixation - short","","null","","","","","","","","","","","","",""
"","html-keyboard-response","277","397274","0.0-434.0","3wbo669c","1536","864","","","","","","","","","","","576","pte","Diagnostic trial","","j","6","6","false","false","RIGHT","j","1","","RIGHT","true","","",""
"","html-keyboard-response","278","398033","0.0-437.0","3wbo669c","1536","864","","","","","","","","","","","null","+","Fixation - short","","null","","","","","","","","","","","","",""
"","html-keyboard-response","279","398451","0.0-438.0","3wbo669c","1536","864","","","","","","","","","","","419","pte","Diagnostic trial","","j","6","7","false","false","RIGHT","j","1","","RIGHT","true","","",""
"","html-keyboard-response","280","399216","0.0-441.0","3wbo669c","1536","864","","","","","","","","","","","null","+","Fixation - short","","null","","","","","","","","","","","","",""
"","html-keyboard-response","281","400418","0.0-442.0","3wbo669c","1536","864","","","","","","","","","","","1201","hhd","Inducer trial","","f","6","","true","","","f","1","LEFT","","","","",""
"","html-keyboard-response","282","402043","0.0-445.0","3wbo669c","1536","864","","","","","","","","","","","null","+","Fixation - long","","null","","","","","","","","","","","","",""
"","html-keyboard-response","283","404109","0.0-446.0","3wbo669c","1536","864","","","","","","","","","","","2066","If ydi press LEFT | If glp press RIGHT","Inducer instructions",""," ","7","","","","","","","","","","","",""
"","html-keyboard-response","284","404873","0.0-447.0","3wbo669c","1536","864","","","","","","","","","","","null","+","Fixation - short","","null","","","","","","","","","","","","",""
"","html-keyboard-response","285","405877","0.0-448.0","3wbo669c","1536","864","","","","","","","","","","","1003","glp","Diagnostic trial","","j","7","0","false","false","RIGHT","j","1","","RIGHT","true","","",""
"","html-keyboard-response","286","406637","0.0-451.0","3wbo669c","1536","864","","","","","","","","","","","null","+","Fixation - short","","null","","","","","","","","","","","","",""
"","html-keyboard-response","287","407350","0.0-452.0","3wbo669c","1536","864","","","","","","","","","","","711","glp","Diagnostic trial","","j","7","1","false","false","RIGHT","j","1","","RIGHT","true","","",""
"","html-keyboard-response","288","408116","0.0-455.0","3wbo669c","1536","864","","","","","","","","","","","null","+","Fixation - short","","null","","","","","","","","","","","","",""
"","html-keyboard-response","289","408798","0.0-456.0","3wbo669c","1536","864","","","","","","","","","","","680","ydi","Diagnostic trial","","f","7","2","false","true","LEFT","f","1","","LEFT","true","","",""
"","html-keyboard-response","290","409549","0.0-459.0","3wbo669c","1536","864","","","","","","","","","","","null","+","Fixation - short","","null","","","","","","","","","","","","",""
"","html-keyboard-response","291","410274","0.0-460.0","3wbo669c","1536","864","","","","","","","","","","","724","ydi","Diagnostic trial","","f","7","3","false","true","LEFT","f","1","","LEFT","true","","",""
"","html-keyboard-response","292","411027","0.0-463.0","3wbo669c","1536","864","","","","","","","","","","","null","+","Fixation - short","","null","","","","","","","","","","","","",""
"","html-keyboard-response","293","411633","0.0-464.0","3wbo669c","1536","864","","","","","","","","","","","606","ydi","Diagnostic trial","","j","7","4","false","false","RIGHT","j","1","","LEFT","false","","",""
"","html-keyboard-response","294","412390","0.0-467.0","3wbo669c","1536","864","","","","","","","","","","","null","+","Fixation - short","","null","","","","","","","","","","","","",""
"","html-keyboard-response","295","412870","0.0-468.0","3wbo669c","1536","864","","","","","","","","","","","479","ydi","Diagnostic trial","","j","7","5","false","false","RIGHT","j","1","","LEFT","false","","",""
"","html-keyboard-response","296","413635","0.0-471.0","3wbo669c","1536","864","","","","","","","","","","","null","+","Fixation - short","","null","","","","","","","","","","","","",""
"","html-keyboard-response","297","414665","0.0-472.0","3wbo669c","1536","864","","","","","","","","","","","1029","ydi","Inducer trial","","f","7","","true","","","f","1","LEFT","","","","",""
"","html-keyboard-response","298","416177","0.0-475.0","3wbo669c","1536","864","","","","","","","","","","","null","+","Fixation - long","","null","","","","","","","","","","","","",""
"","html-keyboard-response","299","418909","0.0-476.0","3wbo669c","1536","864","","","","","","","","","","","2731","If guf press LEFT | If dul press RIGHT","Inducer instructions",""," ","8","","","","","","","","","","","",""
"","html-keyboard-response","300","419665","0.0-477.0","3wbo669c","1536","864","","","","","","","","","","","null","+","Fixation - short","","null","","","","","","","","","","","","",""
"","html-keyboard-response","301","420463","0.0-478.0","3wbo669c","1536","864","","","","","","","","","","","799","dul","Diagnostic trial","","j","8","0","false","false","RIGHT","j","1","","RIGHT","true","","",""
"","html-keyboard-response","302","421215","0.0-481.0","3wbo669c","1536","864","","","","","","","","","","","null","+","Fixation - short","","null","","","","","","","","","","","","",""
"","html-keyboard-response","303","421975","0.0-482.0","3wbo669c","1536","864","","","","","","","","","","","760","guf","Diagnostic trial","","j","8","1","false","false","RIGHT","j","1","","LEFT","false","","",""
"","html-keyboard-response","304","422741","0.0-485.0","3wbo669c","1536","864","","","","","","","","","","","null","+","Fixation - short","","null","","","","","","","","","","","","",""
"","html-keyboard-response","305","423413","0.0-486.0","3wbo669c","1536","864","","","","","","","","","","","671","dul","Diagnostic trial","","f","8","2","false","true","LEFT","f","1","","RIGHT","false","","",""
"","html-keyboard-response","306","424170","0.0-489.0","3wbo669c","1536","864","","","","","","","","","","","null","+","Fixation - short","","null","","","","","","","","","","","","",""
"","html-keyboard-response","307","425143","0.0-490.0","3wbo669c","1536","864","","","","","","","","","","","971","dul","Diagnostic trial","","j","8","3","false","false","RIGHT","j","1","","RIGHT","true","","",""
"","html-keyboard-response","308","425924","0.0-493.0","3wbo669c","1536","864","","","","","","","","","","","null","+","Fixation - short","","null","","","","","","","","","","","","",""
"","html-keyboard-response","309","426545","0.0-494.0","3wbo669c","1536","864","","","","","","","","","","","621","guf","Diagnostic trial","","j","8","4","false","false","RIGHT","j","1","","LEFT","false","","",""
"","html-keyboard-response","310","427306","0.0-497.0","3wbo669c","1536","864","","","","","","","","","","","null","+","Fixation - short","","null","","","","","","","","","","","","",""
"","html-keyboard-response","311","427730","0.0-498.0","3wbo669c","1536","864","","","","","","","","","","","423","dul","Diagnostic trial","","j","8","5","false","false","RIGHT","j","1","","RIGHT","true","","",""
"","html-keyboard-response","312","428481","0.0-501.0","3wbo669c","1536","864","","","","","","","","","","","null","+","Fixation - short","","null","","","","","","","","","","","","",""
"","html-keyboard-response","313","429134","0.0-502.0","3wbo669c","1536","864","","","","","","","","","","","652","dul","Diagnostic trial","","f","8","6","false","true","LEFT","f","1","","RIGHT","false","","",""
"","html-keyboard-response","314","429898","0.0-505.0","3wbo669c","1536","864","","","","","","","","","","","null","+","Fixation - short","","null","","","","","","","","","","","","",""
"","html-keyboard-response","315","430493","0.0-506.0","3wbo669c","1536","864","","","","","","","","","","","593","guf","Diagnostic trial","","f","8","7","false","true","LEFT","f","1","","LEFT","true","","",""
"","html-keyboard-response","316","431254","0.0-509.0","3wbo669c","1536","864","","","","","","","","","","","null","+","Fixation - short","","null","","","","","","","","","","","","",""
"","html-keyboard-response","317","431899","0.0-510.0","3wbo669c","1536","864","","","","","","","","","","","645","guf","Inducer trial","","f","8","","true","","","f","1","LEFT","","","","",""
"","html-keyboard-response","318","433412","0.0-513.0","3wbo669c","1536","864","","","","","","","","","","","null","+","Fixation - long","","null","","","","","","","","","","","","",""
"","html-keyboard-response","319","437328","0.0-514.0","3wbo669c","1536","864","","","","","","","","","","","3915","If swr press LEFT | If saj press RIGHT","Inducer instructions",""," ","9","","","","","","","","","","","",""
"","html-keyboard-response","320","438092","0.0-515.0","3wbo669c","1536","864","","","","","","","","","","","null","+","Fixation - short","","null","","","","","","","","","","","","",""
"","html-keyboard-response","321","438845","0.0-516.0","3wbo669c","1536","864","","","","","","","","","","","753","saj","Diagnostic trial","","f","9","0","false","true","LEFT","f","1","","RIGHT","false","","",""
"","html-keyboard-response","322","439598","0.0-519.0","3wbo669c","1536","864","","","","","","","","","","","null","+","Fixation - short","","null","","","","","","","","","","","","",""
"","html-keyboard-response","323","440335","0.0-520.0","3wbo669c","1536","864","","","","","","","","","","","736","saj","Diagnostic trial","","j","9","1","false","false","RIGHT","j","1","","RIGHT","true","","",""
"","html-keyboard-response","324","441089","0.0-523.0","3wbo669c","1536","864","","","","","","","","","","","null","+","Fixation - short","","null","","","","","","","","","","","","",""
"","html-keyboard-response","325","442049","0.0-524.0","3wbo669c","1536","864","","","","","","","","","","","960","swr","Diagnostic trial","","f","9","2","false","true","LEFT","f","1","","LEFT","true","","",""
"","html-keyboard-response","326","442800","0.0-527.0","3wbo669c","1536","864","","","","","","","","","","","null","+","Fixation - short","","null","","","","","","","","","","","","",""
"","html-keyboard-response","327","443366","0.0-528.0","3wbo669c","1536","864","","","","","","","","","","","565","saj","Diagnostic trial","","f","9","3","false","true","LEFT","f","1","","RIGHT","false","","",""
"","html-keyboard-response","328","444121","0.0-531.0","3wbo669c","1536","864","","","","","","","","","","","null","+","Fixation - short","","null","","","","","","","","","","","","",""
"","html-keyboard-response","329","444693","0.0-532.0","3wbo669c","1536","864","","","","","","","","","","","572","saj","Diagnostic trial","","f","9","4","false","true","LEFT","f","1","","RIGHT","false","","",""
"","html-keyboard-response","330","445452","0.0-535.0","3wbo669c","1536","864","","","","","","","","","","","null","+","Fixation - short","","null","","","","","","","","","","","","",""
"","html-keyboard-response","331","446148","0.0-536.0","3wbo669c","1536","864","","","","","","","","","","","696","swr","Diagnostic trial","","f","9","5","false","true","LEFT","f","1","","LEFT","true","","",""
"","html-keyboard-response","332","446906","0.0-539.0","3wbo669c","1536","864","","","","","","","","","","","null","+","Fixation - short","","null","","","","","","","","","","","","",""
"","html-keyboard-response","333","447829","0.0-540.0","3wbo669c","1536","864","","","","","","","","","","","922","swr","Diagnostic trial","","j","9","6","false","false","RIGHT","j","1","","LEFT","false","","",""
"","html-keyboard-response","334","448584","0.0-543.0","3wbo669c","1536","864","","","","","","","","","","","null","+","Fixation - short","","null","","","","","","","","","","","","",""
"","html-keyboard-response","335","449255","0.0-544.0","3wbo669c","1536","864","","","","","","","","","","","671","saj","Diagnostic trial","","j","9","7","false","false","RIGHT","j","1","","RIGHT","true","","",""
"","html-keyboard-response","336","450020","0.0-547.0","3wbo669c","1536","864","","","","","","","","","","","null","+","Fixation - short","","null","","","","","","","","","","","","",""
"","html-keyboard-response","337","450665","0.0-548.0","3wbo669c","1536","864","","","","","","","","","","","644","saj","Diagnostic trial","","f","9","8","false","true","LEFT","f","1","","RIGHT","false","","",""
"","html-keyboard-response","338","451423","0.0-551.0","3wbo669c","1536","864","","","","","","","","","","","null","+","Fixation - short","","null","","","","","","","","","","","","",""
"","html-keyboard-response","339","452131","0.0-552.0","3wbo669c","1536","864","","","","","","","","","","","707","swr","Diagnostic trial","","j","9","9","false","false","RIGHT","j","1","","LEFT","false","","",""
"","html-keyboard-response","340","452889","0.0-555.0","3wbo669c","1536","864","","","","","","","","","","","null","+","Fixation - short","","null","","","","","","","","","","","","",""
"","html-keyboard-response","341","453373","0.0-556.0","3wbo669c","1536","864","","","","","","","","","","","483","swr","Diagnostic trial","","j","9","10","false","false","RIGHT","j","1","","LEFT","false","","",""
"","html-keyboard-response","342","454136","0.0-559.0","3wbo669c","1536","864","","","","","","","","","","","null","+","Fixation - short","","null","","","","","","","","","","","","",""
"","html-keyboard-response","343","455001","0.0-560.0","3wbo669c","1536","864","","","","","","","","","","","865","swr","Diagnostic trial","","j","9","11","false","true","LEFT","f","0","","LEFT","true","","",""
"","call-function","344","455002","0.0-562.0-0.0","3wbo669c","","","","","","","","","","","","","","","","","","","","","","","","","","","","","",""
"","html-keyboard-response","345","455303","0.0-562.0-1.0","3wbo669c","1536","864","","","","","","","","","","","null","Wrong","Feedback","","null","","","","","","","","","","","","",""
"","call-function","346","455303","0.0-562.0-2.0","3wbo669c","","","","","","","","","","","","","","","","","","","","","","","","","","","","","",""
"","html-keyboard-response","347","456063","0.0-563.0","3wbo669c","1536","864","","","","","","","","","","","null","+","Fixation - short","","null","","","","","","","","","","","","",""
"","html-keyboard-response","348","456701","0.0-564.0","3wbo669c","1536","864","","","","","","","","","","","637","saj","Diagnostic trial","","f","9","12","false","true","LEFT","f","1","","RIGHT","false","","",""
"","html-keyboard-response","349","457459","0.0-567.0","3wbo669c","1536","864","","","","","","","","","","","null","+","Fixation - short","","null","","","","","","","","","","","","",""
"","html-keyboard-response","350","458294","0.0-568.0","3wbo669c","1536","864","","","","","","","","","","","836","swr","Inducer trial","","j","9","","true","","","f","0","LEFT","","","","",""
"","call-function","351","458294","0.0-570.0-0.0","3wbo669c","","","","","","","","","","","","","","","","","","","","","","","","","","","","","",""
"","html-keyboard-response","352","458605","0.0-570.0-1.0","3wbo669c","1536","864","","","","","","","","","","","null","Wrong","Feedback","","null","","","","","","","","","","","","",""
"","call-function","353","458605","0.0-570.0-2.0","3wbo669c","","","","","","","","","","","","","","","","","","","","","","","","","","","","","",""
"","html-keyboard-response","354","460114","0.0-571.0","3wbo669c","1536","864","","","","","","","","","","","null","+","Fixation - long","","null","","","","","","","","","","","","",""
"","html-keyboard-response","355","463350","0.0-572.0","3wbo669c","1536","864","","","","","","","","","","","3235","If gfm press LEFT | If lpn press RIGHT","Inducer instructions",""," ","10","","","","","","","","","","","",""
"","html-keyboard-response","356","464158","0.0-573.0","3wbo669c","1536","864","","","","","","","","","","","null","+","Fixation - short","","null","","","","","","","","","","","","",""
"","html-keyboard-response","357","464911","0.0-574.0","3wbo669c","1536","864","","","","","","","","","","","753","lpn","Diagnostic trial","","j","10","0","false","false","RIGHT","j","1","","RIGHT","true","","",""
"","html-keyboard-response","358","465675","0.0-577.0","3wbo669c","1536","864","","","","","","","","","","","null","+","Fixation - short","","null","","","","","","","","","","","","",""
"","html-keyboard-response","359","466265","0.0-578.0","3wbo669c","1536","864","","","","","","","","","","","588","lpn","Diagnostic trial","","j","10","1","false","false","RIGHT","j","1","","RIGHT","true","","",""
"","html-keyboard-response","360","467030","0.0-581.0","3wbo669c","1536","864","","","","","","","","","","","null","+","Fixation - short","","null","","","","","","","","","","","","",""
"","html-keyboard-response","361","467769","0.0-582.0","3wbo669c","1536","864","","","","","","","","","","","739","gfm","Diagnostic trial","","f","10","2","false","true","LEFT","f","1","","LEFT","true","","",""
"","html-keyboard-response","362","468535","0.0-585.0","3wbo669c","1536","864","","","","","","","","","","","null","+","Fixation - short","","null","","","","","","","","","","","","",""
"","html-keyboard-response","363","468988","0.0-586.0","3wbo669c","1536","864","","","","","","","","","","","453","gfm","Diagnostic trial","","f","10","3","false","true","LEFT","f","1","","LEFT","true","","",""
"","html-keyboard-response","364","469748","0.0-589.0","3wbo669c","1536","864","","","","","","","","","","","null","+","Fixation - short","","null","","","","","","","","","","","","",""
"","html-keyboard-response","365","470173","0.0-590.0","3wbo669c","1536","864","","","","","","","","","","","425","gfm","Diagnostic trial","","f","10","4","false","true","LEFT","f","1","","LEFT","true","","",""
"","html-keyboard-response","366","470938","0.0-593.0","3wbo669c","1536","864","","","","","","","","","","","null","+","Fixation - short","","null","","","","","","","","","","","","",""
"","html-keyboard-response","367","471523","0.0-594.0","3wbo669c","1536","864","","","","","","","","","","","585","lpn","Diagnostic trial","","f","10","5","false","true","LEFT","f","1","","RIGHT","false","","",""
"","html-keyboard-response","368","472277","0.0-597.0","3wbo669c","1536","864","","","","","","","","","","","null","+","Fixation - short","","null","","","","","","","","","","","","",""
"","html-keyboard-response","369","472776","0.0-598.0","3wbo669c","1536","864","","","","","","","","","","","500","gfm","Diagnostic trial","","f","10","6","false","true","LEFT","f","1","","LEFT","true","","",""
"","html-keyboard-response","370","473533","0.0-601.0","3wbo669c","1536","864","","","","","","","","","","","null","+","Fixation - short","","null","","","","","","","","","","","","",""
"","html-keyboard-response","371","474167","0.0-602.0","3wbo669c","1536","864","","","","","","","","","","","633","gfm","Diagnostic trial","","j","10","7","false","false","RIGHT","j","1","","LEFT","false","","",""
"","html-keyboard-response","372","474921","0.0-605.0","3wbo669c","1536","864","","","","","","","","","","","null","+","Fixation - short","","null","","","","","","","","","","","","",""
"","html-keyboard-response","373","475683","0.0-606.0","3wbo669c","1536","864","","","","","","","","","","","762","lpn","Diagnostic trial","","f","10","8","false","true","LEFT","f","1","","RIGHT","false","","",""
"","html-keyboard-response","374","476448","0.0-609.0","3wbo669c","1536","864","","","","","","","","","","","null","+","Fixation - short","","null","","","","","","","","","","","","",""
"","html-keyboard-response","375","476915","0.0-610.0","3wbo669c","1536","864","","","","","","","","","","","466","lpn","Diagnostic trial","","f","10","9","false","true","LEFT","f","1","","RIGHT","false","","",""
"","html-keyboard-response","376","477691","0.0-613.0","3wbo669c","1536","864","","","","","","","","","","","null","+","Fixation - short","","null","","","","","","","","","","","","",""
"","html-keyboard-response","377","478350","0.0-614.0","3wbo669c","1536","864","","","","","","","","","","","657","gfm","Diagnostic trial","","j","10","10","false","false","RIGHT","j","1","","LEFT","false","","",""
"","html-keyboard-response","378","479103","0.0-617.0","3wbo669c","1536","864","","","","","","","","","","","null","+","Fixation - short","","null","","","","","","","","","","","","",""
"","html-keyboard-response","379","480686","0.0-618.0","3wbo669c","1536","864","","","","","","","","","","","1583","lpn","Inducer trial","","j","10","","true","","","j","1","RIGHT","","","","",""
"","html-keyboard-response","380","482302","0.0-621.0","3wbo669c","1536","864","","","","","","","","","","","null","+","Fixation - long","","null","","","","","","","","","","","","",""
"","html-keyboard-response","381","484004","0.0-622.0","3wbo669c","1536","864","","","","","","","","","","","1701","If ebe press LEFT | If xet press RIGHT","Inducer instructions",""," ","11","","","","","","","","","","","",""
"","html-keyboard-response","382","484757","0.0-623.0","3wbo669c","1536","864","","","","","","","","","","","null","+","Fixation - short","","null","","","","","","","","","","","","",""
"","html-keyboard-response","383","485643","0.0-624.0","3wbo669c","1536","864","","","","","","","","","","","885","xet","Diagnostic trial","","f","11","0","false","true","LEFT","f","1","","RIGHT","false","","",""
"","html-keyboard-response","384","486401","0.0-627.0","3wbo669c","1536","864","","","","","","","","","","","null","+","Fixation - short","","null","","","","","","","","","","","","",""
"","html-keyboard-response","385","487009","0.0-628.0","3wbo669c","1536","864","","","","","","","","","","","608","xet","Diagnostic trial","","j","11","1","false","false","RIGHT","j","1","","RIGHT","true","","",""
"","html-keyboard-response","386","487764","0.0-631.0","3wbo669c","1536","864","","","","","","","","","","","null","+","Fixation - short","","null","","","","","","","","","","","","",""
"","html-keyboard-response","387","488460","0.0-632.0","3wbo669c","1536","864","","","","","","","","","","","694","xet","Diagnostic trial","","f","11","2","false","true","LEFT","f","1","","RIGHT","false","","",""
"","html-keyboard-response","388","489212","0.0-635.0","3wbo669c","1536","864","","","","","","","","","","","null","+","Fixation - short","","null","","","","","","","","","","","","",""
"","html-keyboard-response","389","489709","0.0-636.0","3wbo669c","1536","864","","","","","","","","","","","496","xet","Diagnostic trial","","f","11","3","false","true","LEFT","f","1","","RIGHT","false","","",""
"","html-keyboard-response","390","490464","0.0-639.0","3wbo669c","1536","864","","","","","","","","","","","null","+","Fixation - short","","null","","","","","","","","","","","","",""
"","html-keyboard-response","391","491151","0.0-640.0","3wbo669c","1536","864","","","","","","","","","","","686","xet","Inducer trial","","j","11","","true","","","j","1","RIGHT","","","","",""
"","html-keyboard-response","392","492655","0.0-643.0","3wbo669c","1536","864","","","","","","","","","","","null","+","Fixation - long","","null","","","","","","","","","","","","",""
"","html-keyboard-response","393","494725","0.0-644.0","3wbo669c","1536","864","","","","","","","","","","","2068","If cmj press LEFT | If feg press RIGHT","Inducer instructions",""," ","12","","","","","","","","","","","",""
"","html-keyboard-response","394","495486","0.0-645.0","3wbo669c","1536","864","","","","","","","","","","","null","+","Fixation - short","","null","","","","","","","","","","","","",""
"","html-keyboard-response","395","496527","0.0-646.0","3wbo669c","1536","864","","","","","","","","","","","1040","feg","Diagnostic trial","","j","12","0","false","false","RIGHT","j","1","","RIGHT","true","","",""
"","html-keyboard-response","396","497285","0.0-649.0","3wbo669c","1536","864","","","","","","","","","","","null","+","Fixation - short","","null","","","","","","","","","","","","",""
"","html-keyboard-response","397","498004","0.0-650.0","3wbo669c","1536","864","","","","","","","","","","","717","cmj","Diagnostic trial","","j","12","1","false","false","RIGHT","j","1","","LEFT","false","","",""
"","html-keyboard-response","398","498769","0.0-653.0","3wbo669c","1536","864","","","","","","","","","","","null","+","Fixation - short","","null","","","","","","","","","","","","",""
"","html-keyboard-response","399","499180","0.0-654.0","3wbo669c","1536","864","","","","","","","","","","","409","cmj","Diagnostic trial","","j","12","2","false","false","RIGHT","j","1","","LEFT","false","","",""
"","html-keyboard-response","400","499937","0.0-657.0","3wbo669c","1536","864","","","","","","","","","","","null","+","Fixation - short","","null","","","","","","","","","","","","",""
"","html-keyboard-response","401","500535","0.0-658.0","3wbo669c","1536","864","","","","","","","","","","","598","feg","Diagnostic trial","","j","12","3","false","false","RIGHT","j","1","","RIGHT","true","","",""
"","html-keyboard-response","402","501291","0.0-661.0","3wbo669c","1536","864","","","","","","","","","","","null","+","Fixation - short","","null","","","","","","","","","","","","",""
"","html-keyboard-response","403","501860","0.0-662.0","3wbo669c","1536","864","","","","","","","","","","","569","cmj","Diagnostic trial","","f","12","4","false","true","LEFT","f","1","","LEFT","true","","",""
"","html-keyboard-response","404","502669","0.0-665.0","3wbo669c","1536","864","","","","","","","","","","","null","+","Fixation - short","","null","","","","","","","","","","","","",""
"","html-keyboard-response","405","503402","0.0-666.0","3wbo669c","1536","864","","","","","","","","","","","732","cmj","Inducer trial","","j","12","","true","","","f","0","LEFT","","","","",""
"","call-function","406","503402","0.0-668.0-0.0","3wbo669c","","","","","","","","","","","","","","","","","","","","","","","","","","","","","",""
"","html-keyboard-response","407","503713","0.0-668.0-1.0","3wbo669c","1536","864","","","","","","","","","","","null","Wrong","Feedback","","null","","","","","","","","","","","","",""
"","call-function","408","503713","0.0-668.0-2.0","3wbo669c","","","","","","","","","","","","","","","","","","","","","","","","","","","","","",""
"","html-keyboard-response","409","505219","0.0-669.0","3wbo669c","1536","864","","","","","","","","","","","null","+","Fixation - long","","null","","","","","","","","","","","","",""
"","html-keyboard-response","410","508003","0.0-670.0","3wbo669c","1536","864","","","","","","","","","","","2784","If bsh press LEFT | If dij press RIGHT","Inducer instructions",""," ","13","","","","","","","","","","","",""
"","html-keyboard-response","411","508757","0.0-671.0","3wbo669c","1536","864","","","","","","","","","","","null","+","Fixation - short","","null","","","","","","","","","","","","",""
"","html-keyboard-response","412","509760","0.0-672.0","3wbo669c","1536","864","","","","","","","","","","","1002","dij","Diagnostic trial","","j","13","0","false","false","RIGHT","j","1","","RIGHT","true","","",""
"","html-keyboard-response","413","510512","0.0-675.0","3wbo669c","1536","864","","","","","","","","","","","null","+","Fixation - short","","null","","","","","","","","","","","","",""
"","html-keyboard-response","414","511056","0.0-676.0","3wbo669c","1536","864","","","","","","","","","","","543","dij","Diagnostic trial","","j","13","1","false","false","RIGHT","j","1","","RIGHT","true","","",""
"","html-keyboard-response","415","511815","0.0-679.0","3wbo669c","1536","864","","","","","","","","","","","null","+","Fixation - short","","null","","","","","","","","","","","","",""
"","html-keyboard-response","416","512376","0.0-680.0","3wbo669c","1536","864","","","","","","","","","","","559","bsh","Diagnostic trial","","j","13","2","false","false","RIGHT","j","1","","LEFT","false","","",""
"","html-keyboard-response","417","513138","0.0-683.0","3wbo669c","1536","864","","","","","","","","","","","null","+","Fixation - short","","null","","","","","","","","","","","","",""
"","html-keyboard-response","418","513587","0.0-684.0","3wbo669c","1536","864","","","","","","","","","","","448","bsh","Diagnostic trial","","j","13","3","false","false","RIGHT","j","1","","LEFT","false","","",""
"","html-keyboard-response","419","514347","0.0-687.0","3wbo669c","1536","864","","","","","","","","","","","null","+","Fixation - short","","null","","","","","","","","","","","","",""
"","html-keyboard-response","420","515255","0.0-688.0","3wbo669c","1536","864","","","","","","","","","","","907","dij","Diagnostic trial","","f","13","4","false","true","LEFT","f","1","","RIGHT","false","","",""
"","html-keyboard-response","421","516019","0.0-691.0","3wbo669c","1536","864","","","","","","","","","","","null","+","Fixation - short","","null","","","","","","","","","","","","",""
"","html-keyboard-response","422","516590","0.0-692.0","3wbo669c","1536","864","","","","","","","","","","","568","bsh","Diagnostic trial","","j","13","5","false","true","LEFT","f","0","","LEFT","true","","",""
"","call-function","423","516590","0.0-694.0-0.0","3wbo669c","","","","","","","","","","","","","","","","","","","","","","","","","","","","","",""
"","html-keyboard-response","424","516904","0.0-694.0-1.0","3wbo669c","1536","864","","","","","","","","","","","null","Wrong","Feedback","","null","","","","","","","","","","","","",""
"","call-function","425","516904","0.0-694.0-2.0","3wbo669c","","","","","","","","","","","","","","","","","","","","","","","","","","","","","",""
"","html-keyboard-response","426","517696","0.0-695.0","3wbo669c","1536","864","","","","","","","","","","","null","+","Fixation - short","","null","","","","","","","","","","","","",""
"","html-keyboard-response","427","518467","0.0-696.0","3wbo669c","1536","864","","","","","","","","","","","770","bsh","Diagnostic trial","","f","13","6","false","true","LEFT","f","1","","LEFT","true","","",""
"","html-keyboard-response","428","519231","0.0-699.0","3wbo669c","1536","864","","","","","","","","","","","null","+","Fixation - short","","null","","","","","","","","","","","","",""
"","html-keyboard-response","429","519836","0.0-700.0","3wbo669c","1536","864","","","","","","","","","","","604","dij","Diagnostic trial","","f","13","7","false","true","LEFT","f","1","","RIGHT","false","","",""
"","html-keyboard-response","430","520598","0.0-703.0","3wbo669c","1536","864","","","","","","","","","","","null","+","Fixation - short","","null","","","","","","","","","","","","",""
"","html-keyboard-response","431","522435","0.0-704.0","3wbo669c","1536","864","","","","","","","","","","","1836","dij","Inducer trial","","j","13","","true","","","j","1","RIGHT","","","","",""
"","html-keyboard-response","432","523947","0.0-707.0","3wbo669c","1536","864","","","","","","","","","","","null","+","Fixation - long","","null","","","","","","","","","","","","",""
"","html-keyboard-response","433","525707","0.0-708.0","3wbo669c","1536","864","","","","","","","","","","","1759","If gso press LEFT | If imm press RIGHT","Inducer instructions",""," ","14","","","","","","","","","","","",""
"","html-keyboard-response","434","526465","0.0-709.0","3wbo669c","1536","864","","","","","","","","","","","null","+","Fixation - short","","null","","","","","","","","","","","","",""
"","html-keyboard-response","435","527385","0.0-710.0","3wbo669c","1536","864","","","","","","","","","","","920","gso","Diagnostic trial","","j","14","0","false","false","RIGHT","j","1","","LEFT","false","","",""
"","html-keyboard-response","436","528152","0.0-713.0","3wbo669c","1536","864","","","","","","","","","","","null","+","Fixation - short","","null","","","","","","","","","","","","",""
"","html-keyboard-response","437","528645","0.0-714.0","3wbo669c","1536","864","","","","","","","","","","","492","gso","Diagnostic trial","","j","14","1","false","false","RIGHT","j","1","","LEFT","false","","",""
"","html-keyboard-response","438","529400","0.0-717.0","3wbo669c","1536","864","","","","","","","","","","","null","+","Fixation - short","","null","","","","","","","","","","","","",""
"","html-keyboard-response","439","530185","0.0-718.0","3wbo669c","1536","864","","","","","","","","","","","785","gso","Diagnostic trial","","f","14","2","false","true","LEFT","f","1","","LEFT","true","","",""
"","html-keyboard-response","440","530944","0.0-721.0","3wbo669c","1536","864","","","","","","","","","","","null","+","Fixation - short","","null","","","","","","","","","","","","",""
"","html-keyboard-response","441","531371","0.0-722.0","3wbo669c","1536","864","","","","","","","","","","","427","gso","Diagnostic trial","","f","14","3","false","true","LEFT","f","1","","LEFT","true","","",""
"","html-keyboard-response","442","532186","0.0-725.0","3wbo669c","1536","864","","","","","","","","","","","null","+","Fixation - short","","null","","","","","","","","","","","","",""
"","html-keyboard-response","443","532626","0.0-726.0","3wbo669c","1536","864","","","","","","","","","","","438","imm","Diagnostic trial","","f","14","4","false","true","LEFT","f","1","","RIGHT","false","","",""
"","html-keyboard-response","444","533378","0.0-729.0","3wbo669c","1536","864","","","","","","","","","","","null","+","Fixation - short","","null","","","","","","","","","","","","",""
"","html-keyboard-response","445","534357","0.0-730.0","3wbo669c","1536","864","","","","","","","","","","","980","imm","Inducer trial","","j","14","","true","","","j","1","RIGHT","","","","",""
"","html-keyboard-response","446","535870","0.0-733.0","3wbo669c","1536","864","","","","","","","","","","","null","+","Fixation - long","","null","","","","","","","","","","","","",""
"","html-keyboard-response","447","536960","0.0-734.0","3wbo669c","1536","864","","","","","","","","","","","1089","If yoy press LEFT | If sjn press RIGHT","Inducer instructions",""," ","15","","","","","","","","","","","",""
"","html-keyboard-response","448","537733","0.0-735.0","3wbo669c","1536","864","","","","","","","","","","","null","+","Fixation - short","","null","","","","","","","","","","","","",""
"","html-keyboard-response","449","538629","0.0-736.0","3wbo669c","1536","864","","","","","","","","","","","896","yoy","Diagnostic trial","","f","15","0","false","true","LEFT","f","1","","LEFT","true","","",""
"","html-keyboard-response","450","539390","0.0-739.0","3wbo669c","1536","864","","","","","","","","","","","null","+","Fixation - short","","null","","","","","","","","","","","","",""
"","html-keyboard-response","451","540194","0.0-740.0","3wbo669c","1536","864","","","","","","","","","","","804","sjn","Diagnostic trial","","j","15","1","false","false","RIGHT","j","1","","RIGHT","true","","",""
"","html-keyboard-response","452","540958","0.0-743.0","3wbo669c","1536","864","","","","","","","","","","","null","+","Fixation - short","","null","","","","","","","","","","","","",""
"","html-keyboard-response","453","542217","0.0-744.0","3wbo669c","1536","864","","","","","","","","","","","1259","yoy","Diagnostic trial","","j","15","2","false","false","RIGHT","j","1","","LEFT","false","","",""
"","html-keyboard-response","454","542980","0.0-747.0","3wbo669c","1536","864","","","","","","","","","","","null","+","Fixation - short","","null","","","","","","","","","","","","",""
"","html-keyboard-response","455","543621","0.0-748.0","3wbo669c","1536","864","","","","","","","","","","","641","sjn","Diagnostic trial","","f","15","3","false","true","LEFT","f","1","","RIGHT","false","","",""
"","html-keyboard-response","456","544376","0.0-751.0","3wbo669c","1536","864","","","","","","","","","","","null","+","Fixation - short","","null","","","","","","","","","","","","",""
"","html-keyboard-response","457","544849","0.0-752.0","3wbo669c","1536","864","","","","","","","","","","","472","yoy","Diagnostic trial","","f","15","4","false","true","LEFT","f","1","","LEFT","true","","",""
"","html-keyboard-response","458","545606","0.0-755.0","3wbo669c","1536","864","","","","","","","","","","","null","+","Fixation - short","","null","","","","","","","","","","","","",""
"","html-keyboard-response","459","546359","0.0-756.0","3wbo669c","1536","864","","","","","","","","","","","753","yoy","Diagnostic trial","","j","15","5","false","false","RIGHT","j","1","","LEFT","false","","",""
"","html-keyboard-response","460","547114","0.0-759.0","3wbo669c","1536","864","","","","","","","","","","","null","+","Fixation - short","","null","","","","","","","","","","","","",""
"","html-keyboard-response","461","547611","0.0-760.0","3wbo669c","1536","864","","","","","","","","","","","496","yoy","Diagnostic trial","","j","15","6","false","false","RIGHT","j","1","","LEFT","false","","",""
"","html-keyboard-response","462","548365","0.0-763.0","3wbo669c","1536","864","","","","","","","","","","","null","+","Fixation - short","","null","","","","","","","","","","","","",""
"","html-keyboard-response","463","548881","0.0-764.0","3wbo669c","1536","864","","","","","","","","","","","515","sjn","Diagnostic trial","","f","15","7","false","true","LEFT","f","1","","RIGHT","false","","",""
"","html-keyboard-response","464","549639","0.0-767.0","3wbo669c","1536","864","","","","","","","","","","","null","+","Fixation - short","","null","","","","","","","","","","","","",""
"","html-keyboard-response","465","550061","0.0-768.0","3wbo669c","1536","864","","","","","","","","","","","422","sjn","Diagnostic trial","","f","15","8","false","true","LEFT","f","1","","RIGHT","false","","",""
"","html-keyboard-response","466","550817","0.0-771.0","3wbo669c","1536","864","","","","","","","","","","","null","+","Fixation - short","","null","","","","","","","","","","","","",""
"","html-keyboard-response","467","551367","0.0-772.0","3wbo669c","1536","864","","","","","","","","","","","550","yoy","Diagnostic trial","","j","15","9","false","false","RIGHT","j","1","","LEFT","false","","",""
"","html-keyboard-response","468","552122","0.0-775.0","3wbo669c","1536","864","","","","","","","","","","","null","+","Fixation - short","","null","","","","","","","","","","","","",""
"","html-keyboard-response","469","552547","0.0-776.0","3wbo669c","1536","864","","","","","","","","","","","425","yoy","Diagnostic trial","","j","15","10","false","false","RIGHT","j","1","","LEFT","false","","",""
"","html-keyboard-response","470","553298","0.0-779.0","3wbo669c","1536","864","","","","","","","","","","","null","+","Fixation - short","","null","","","","","","","","","","","","",""
"","html-keyboard-response","471","553711","0.0-780.0","3wbo669c","1536","864","","","","","","","","","","","411","yoy","Diagnostic trial","","j","15","11","false","false","RIGHT","j","1","","LEFT","false","","",""
"","html-keyboard-response","472","554475","0.0-783.0","3wbo669c","1536","864","","","","","","","","","","","null","+","Fixation - short","","null","","","","","","","","","","","","",""
"","html-keyboard-response","473","555294","0.0-784.0","3wbo669c","1536","864","","","","","","","","","","","817","sjn","Diagnostic trial","","j","15","12","false","false","RIGHT","j","1","","RIGHT","true","","",""
"","html-keyboard-response","474","556059","0.0-787.0","3wbo669c","1536","864","","","","","","","","","","","null","+","Fixation - short","","null","","","","","","","","","","","","",""
"","html-keyboard-response","475","556568","0.0-788.0","3wbo669c","1536","864","","","","","","","","","","","509","sjn","Diagnostic trial","","j","15","13","false","true","LEFT","f","0","","RIGHT","false","","",""
"","call-function","476","556568","0.0-790.0-0.0","3wbo669c","","","","","","","","","","","","","","","","","","","","","","","","","","","","","",""
"","html-keyboard-response","477","556869","0.0-790.0-1.0","3wbo669c","1536","864","","","","","","","","","","","null","Wrong","Feedback","","null","","","","","","","","","","","","",""
"","call-function","478","556870","0.0-790.0-2.0","3wbo669c","","","","","","","","","","","","","","","","","","","","","","","","","","","","","",""
"","html-keyboard-response","479","557634","0.0-791.0","3wbo669c","1536","864","","","","","","","","","","","null","+","Fixation - short","","null","","","","","","","","","","","","",""
"","html-keyboard-response","480","558139","0.0-792.0","3wbo669c","1536","864","","","","","","","","","","","505","yoy","Diagnostic trial","","j","15","14","false","false","RIGHT","j","1","","LEFT","false","","",""
"","html-keyboard-response","481","558897","0.0-795.0","3wbo669c","1536","864","","","","","","","","","","","null","+","Fixation - short","","null","","","","","","","","","","","","",""
"","html-keyboard-response","482","560830","0.0-796.0","3wbo669c","1536","864","","","","","","","","","","","1933","sjn","Inducer trial","","f","15","","true","","","j","0","RIGHT","","","","",""
"","call-function","483","560830","0.0-798.0-0.0","3wbo669c","","","","","","","","","","","","","","","","","","","","","","","","","","","","","",""
"","html-keyboard-response","484","561136","0.0-798.0-1.0","3wbo669c","1536","864","","","","","","","","","","","null","Wrong","Feedback","","null","","","","","","","","","","","","",""
"","call-function","485","561136","0.0-798.0-2.0","3wbo669c","","","","","","","","","","","","","","","","","","","","","","","","","","","","","",""
"","html-keyboard-response","486","562639","0.0-799.0","3wbo669c","1536","864","","","","","","","","","","","null","+","Fixation - long","","null","","","","","","","","","","","","",""
"","html-keyboard-response","487","565032","0.0-800.0","3wbo669c","1536","864","","","","","","","","","","","2392","If yrp press LEFT | If bms press RIGHT","Inducer instructions",""," ","16","","","","","","","","","","","",""
"","html-keyboard-response","488","565785","0.0-801.0","3wbo669c","1536","864","","","","","","","","","","","null","+","Fixation - short","","null","","","","","","","","","","","","",""
"","html-keyboard-response","489","566805","0.0-802.0","3wbo669c","1536","864","","","","","","","","","","","1019","bms","Diagnostic trial","","j","16","0","false","false","RIGHT","j","1","","RIGHT","true","","",""
"","html-keyboard-response","490","567569","0.0-805.0","3wbo669c","1536","864","","","","","","","","","","","null","+","Fixation - short","","null","","","","","","","","","","","","",""
"","html-keyboard-response","491","568269","0.0-806.0","3wbo669c","1536","864","","","","","","","","","","","700","yrp","Diagnostic trial","","f","16","1","false","true","LEFT","f","1","","LEFT","true","","",""
"","html-keyboard-response","492","569024","0.0-809.0","3wbo669c","1536","864","","","","","","","","","","","null","+","Fixation - short","","null","","","","","","","","","","","","",""
"","html-keyboard-response","493","569887","0.0-810.0","3wbo669c","1536","864","","","","","","","","","","","863","yrp","Diagnostic trial","","j","16","2","false","false","RIGHT","j","1","","LEFT","false","","",""
"","html-keyboard-response","494","570652","0.0-813.0","3wbo669c","1536","864","","","","","","","","","","","null","+","Fixation - short","","null","","","","","","","","","","","","",""
"","html-keyboard-response","495","571323","0.0-814.0","3wbo669c","1536","864","","","","","","","","","","","669","yrp","Diagnostic trial","","f","16","3","false","true","LEFT","f","1","","LEFT","true","","",""
"","html-keyboard-response","496","572085","0.0-817.0","3wbo669c","1536","864","","","","","","","","","","","null","+","Fixation - short","","null","","","","","","","","","","","","",""
"","html-keyboard-response","497","572558","0.0-818.0","3wbo669c","1536","864","","","","","","","","","","","473","yrp","Diagnostic trial","","f","16","4","false","true","LEFT","f","1","","LEFT","true","","",""
"","html-keyboard-response","498","573312","0.0-821.0","3wbo669c","1536","864","","","","","","","","","","","null","+","Fixation - short","","null","","","","","","","","","","","","",""
"","html-keyboard-response","499","573930","0.0-822.0","3wbo669c","1536","864","","","","","","","","","","","617","yrp","Diagnostic trial","","j","16","5","false","false","RIGHT","j","1","","LEFT","false","","",""
"","html-keyboard-response","500","574693","0.0-825.0","3wbo669c","1536","864","","","","","","","","","","","null","+","Fixation - short","","null","","","","","","","","","","","","",""
"","html-keyboard-response","501","575460","0.0-826.0","3wbo669c","1536","864","","","","","","","","","","","765","bms","Diagnostic trial","","f","16","6","false","true","LEFT","f","1","","RIGHT","false","","",""
"","html-keyboard-response","502","576224","0.0-829.0","3wbo669c","1536","864","","","","","","","","","","","null","+","Fixation - short","","null","","","","","","","","","","","","",""
"","html-keyboard-response","503","576848","0.0-830.0","3wbo669c","1536","864","","","","","","","","","","","622","bms","Diagnostic trial","","j","16","7","false","false","RIGHT","j","1","","RIGHT","true","","",""
"","html-keyboard-response","504","577608","0.0-833.0","3wbo669c","1536","864","","","","","","","","","","","null","+","Fixation - short","","null","","","","","","","","","","","","",""
"","html-keyboard-response","505","578179","0.0-834.0","3wbo669c","1536","864","","","","","","","","","","","570","yrp","Diagnostic trial","","f","16","8","false","true","LEFT","f","1","","LEFT","true","","",""
