"value","trial_type","trial_index","time_elapsed","internal_node_id","id","width","height","webaudio","browser","browser_version","mobile","os","fullscreen","vsync_rate","webcam","microphone","view_history","rt","stimulus","trial_info","success","response","inducer_run","diagnostic_run","inducer_trial","italic","correct_diag_response_side","correct_response_key","correct_response","correct_indu_response_side","correct_inducer_response_side","congruent","accuracy","open_feedback","interactive"
"","call-function","0","4","0.0-0.0","r35stz2p","","","","","","","","","","","","","","","","","","","","","","","","","","","","","",""
"","browser-check","1","1019","0.0-1.0","r35stz2p","1303","654","true","edge-chromium","121.0.0","false","Windows 10","true","60.13","true","true","","","","","","","","","","","","","","","","","","",""
"","instructions","2","98428","0.0-2.0","r35stz2p","","","","","","","","","","","","[{""page_index"":0,""viewing_time"":13875},{""page_index"":1,""viewing_time"":78698},{""page_index"":2,""viewing_time"":4829}]","97405","The experiment and consent","The experiment and consent","","","","","","","","","","","","","","",""
"","fullscreen","3","112907","0.0-3.0","r35stz2p","1366","768","","","","","","","","","","","13462","","Full screen","true","","","","","","","","","","","","","",""
"","instructions","4","159428","0.0-4.0","r35stz2p","1366","768","","","","","","","","","","[{""page_index"":0,""viewing_time"":33488},{""page_index"":1,""viewing_time"":13028}]","46517","Instructions","Basic overview explanation","","","","","","","","","","","","","","",""
"","html-keyboard-response","5","174659","0.0-5.0","r35stz2p","1366","768","","","","","","","","","","","13710","If italic press LEFT | If upright press RIGHT","Diagnostic instructions",""," ","","","","","","","","","","","","",""
"","html-keyboard-response","6","175428","0.0-6.0","r35stz2p","1366","768","","","","","","","","","","","null","+","Fixation - short","","null","","","","","","","","","","","","",""
"","html-keyboard-response","7","184977","0.0-7.0","r35stz2p","1366","768","","","","","","","","","","","9546","hlb","Practice diganostic trial","","j","practice","0","false","0","RIGHT","j","1","","","","","",""
"","html-keyboard-response","8","185743","0.0-10.0","r35stz2p","1366","768","","","","","","","","","","","null","+","Fixation - short","","null","","","","","","","","","","","","",""
"","html-keyboard-response","9","192113","0.0-11.0","r35stz2p","1366","768","","","","","","","","","","","6367","amb","Practice diganostic trial","","j","practice","1","false","0","RIGHT","j","1","","","","","",""
"","html-keyboard-response","10","192876","0.0-14.0","r35stz2p","1366","768","","","","","","","","","","","null","+","Fixation - short","","null","","","","","","","","","","","","",""
"","html-keyboard-response","11","194982","0.0-15.0","r35stz2p","1366","768","","","","","","","","","","","2104","amb","Practice diganostic trial","","f","practice","2","false","1","LEFT","f","1","","","","","",""
"","html-keyboard-response","12","195744","0.0-18.0","r35stz2p","1366","768","","","","","","","","","","","null","+","Fixation - short","","null","","","","","","","","","","","","",""
"","html-keyboard-response","13","196960","0.0-19.0","r35stz2p","1366","768","","","","","","","","","","","1214","amb","Practice diganostic trial","","f","practice","3","false","1","LEFT","f","1","","","","","",""
"","html-keyboard-response","14","197726","0.0-22.0","r35stz2p","1366","768","","","","","","","","","","","null","+","Fixation - short","","null","","","","","","","","","","","","",""
"","html-keyboard-response","15","198388","0.0-23.0","r35stz2p","1366","768","","","","","","","","","","","660","amb","Practice diganostic trial","","j","practice","4","false","0","RIGHT","j","1","","","","","",""
"","html-keyboard-response","16","199146","0.0-26.0","r35stz2p","1366","768","","","","","","","","","","","null","+","Fixation - short","","null","","","","","","","","","","","","",""
"","html-keyboard-response","17","201319","0.0-27.0","r35stz2p","1366","768","","","","","","","","","","","2171","amb","Practice diganostic trial","","j","practice","5","false","0","RIGHT","j","1","","","","","",""
"","html-keyboard-response","18","202079","0.0-30.0","r35stz2p","1366","768","","","","","","","","","","","null","+","Fixation - short","","null","","","","","","","","","","","","",""
"","html-keyboard-response","19","204818","0.0-31.0","r35stz2p","1366","768","","","","","","","","","","","2737","hlb","Practice diganostic trial","","f","practice","6","false","1","LEFT","f","1","","","","","",""
"","html-keyboard-response","20","205585","0.0-34.0","r35stz2p","1366","768","","","","","","","","","","","null","+","Fixation - short","","null","","","","","","","","","","","","",""
"","html-keyboard-response","21","206501","0.0-35.0","r35stz2p","1366","768","","","","","","","","","","","914","hlb","Practice diganostic trial","","f","practice","7","false","1","LEFT","f","1","","","","","",""
"","html-keyboard-response","22","207259","0.0-38.0","r35stz2p","1366","768","","","","","","","","","","","null","+","Fixation - short","","null","","","","","","","","","","","","",""
"","html-keyboard-response","23","208034","0.0-39.0","r35stz2p","1366","768","","","","","","","","","","","773","hlb","Practice diganostic trial","","j","practice","8","false","0","RIGHT","j","1","","","","","",""
"","html-keyboard-response","24","208792","0.0-42.0","r35stz2p","1366","768","","","","","","","","","","","null","+","Fixation - short","","null","","","","","","","","","","","","",""
"","html-keyboard-response","25","211214","0.0-43.0","r35stz2p","1366","768","","","","","","","","","","","2420","amb","Practice diganostic trial","","f","practice","9","false","1","LEFT","f","1","","","","","",""
"","html-keyboard-response","26","211976","0.0-46.0","r35stz2p","1366","768","","","","","","","","","","","null","+","Fixation - short","","null","","","","","","","","","","","","",""
"","html-keyboard-response","27","212427","0.0-47.0","r35stz2p","1366","768","","","","","","","","","","","449","hlb","Practice diganostic trial","","f","practice","10","false","1","LEFT","f","1","","","","","",""
"","html-keyboard-response","28","213192","0.0-50.0","r35stz2p","1366","768","","","","","","","","","","","null","+","Fixation - short","","null","","","","","","","","","","","","",""
"","html-keyboard-response","29","213752","0.0-51.0","r35stz2p","1366","768","","","","","","","","","","","557","amb","Practice diganostic trial","","j","practice","11","false","0","RIGHT","j","1","","","","","",""
"","html-keyboard-response","30","214509","0.0-54.0","r35stz2p","1366","768","","","","","","","","","","","null","+","Fixation - short","","null","","","","","","","","","","","","",""
"","html-keyboard-response","31","217625","0.0-55.0","r35stz2p","1366","768","","","","","","","","","","","3113","amb","Practice diganostic trial","","f","practice","12","false","1","LEFT","f","1","","","","","",""
"","html-keyboard-response","32","218391","0.0-58.0","r35stz2p","1366","768","","","","","","","","","","","null","+","Fixation - short","","null","","","","","","","","","","","","",""
"","html-keyboard-response","33","218994","0.0-59.0","r35stz2p","1366","768","","","","","","","","","","","600","amb","Practice diganostic trial","","f","practice","13","false","1","LEFT","f","1","","","","","",""
"","html-keyboard-response","34","219759","0.0-62.0","r35stz2p","1366","768","","","","","","","","","","","null","+","Fixation - short","","null","","","","","","","","","","","","",""
"","html-keyboard-response","35","220296","0.0-63.0","r35stz2p","1366","768","","","","","","","","","","","535","amb","Practice diganostic trial","","j","practice","14","false","0","RIGHT","j","1","","","","","",""
"","html-keyboard-response","36","221058","0.0-66.0","r35stz2p","1366","768","","","","","","","","","","","null","+","Fixation - short","","null","","","","","","","","","","","","",""
"","html-keyboard-response","37","222338","0.0-67.0","r35stz2p","1366","768","","","","","","","","","","","1277","hlb","Practice diganostic trial","","j","practice","15","false","0","RIGHT","j","1","","","","","",""
"","html-keyboard-response","38","223092","0.0-70.0","r35stz2p","1366","768","","","","","","","","","","","null","+","Fixation - short","","null","","","","","","","","","","","","",""
"","instructions","39","245855","0.0-71.0","r35stz2p","1366","768","","","","","","","","","","[{""page_index"":0,""viewing_time"":22759}]","22760","Instructions","Final experiment explanation","","","","","","","","","","","","","","",""
"","html-keyboard-response","40","259905","0.0-72.0","r35stz2p","1366","768","","","","","","","","","","","12544","If edc press LEFT | If ofa press RIGHT","Practice inducer instructions",""," ","practice","","","","","","","","","","","",""
"","html-keyboard-response","41","261982","0.0-73.0","r35stz2p","1366","768","","","","","","","","","","","2073","","Practice inducer trial","","f","practice","","true","","","f","1","LEFT","","","","",""
"","html-keyboard-response","42","262740","0.0-76.0","r35stz2p","1366","768","","","","","","","","","","","null","+","Fixation - short","","null","","","","","","","","","","","","",""
"","html-keyboard-response","43","270764","0.0-77.0","r35stz2p","1366","768","","","","","","","","","","","8021","If jsf press LEFT | If vsc press RIGHT","Practice inducer instructions",""," ","practice","","","","","","","","","","","",""
"","html-keyboard-response","44","271863","0.0-78.0","r35stz2p","1366","768","","","","","","","","","","","1097","","Practice inducer trial","","f","practice","","true","","","f","1","LEFT","","","","",""
"","html-keyboard-response","45","272624","0.0-81.0","r35stz2p","1366","768","","","","","","","","","","","null","+","Fixation - short","","null","","","","","","","","","","","","",""
"","html-keyboard-response","46","277991","0.0-82.0","r35stz2p","1366","768","","","","","","","","","","","5364","If cmj press LEFT | If tkb press RIGHT","Practice inducer instructions",""," ","practice","","","","","","","","","","","",""
"","html-keyboard-response","47","279893","0.0-83.0","r35stz2p","1366","768","","","","","","","","","","","1900","","Practice inducer trial","","j","practice","","true","","","j","1","RIGHT","","","","",""
"","html-keyboard-response","48","280657","0.0-86.0","r35stz2p","1366","768","","","","","","","","","","","null","+","Fixation - short","","null","","","","","","","","","","","","",""
"","html-keyboard-response","49","285294","0.0-87.0","r35stz2p","1366","768","","","","","","","","","","","4636","If cui press LEFT | If dgv press RIGHT","Practice inducer instructions",""," ","practice","","","","","","","","","","","",""
"","html-keyboard-response","50","286697","0.0-88.0","r35stz2p","1366","768","","","","","","","","","","","1400","","Practice inducer trial","","j","practice","","true","","","j","1","RIGHT","","","","",""
"","html-keyboard-response","51","287457","0.0-91.0","r35stz2p","1366","768","","","","","","","","","","","null","+","Fixation - short","","null","","","","","","","","","","","","",""
"","html-keyboard-response","52","293463","0.0-92.0","r35stz2p","1366","768","","","","","","","","","","","6003","If kmh press LEFT | If frn press RIGHT","Practice inducer instructions",""," ","practice","","","","","","","","","","","",""
"","html-keyboard-response","53","295573","0.0-93.0","r35stz2p","1366","768","","","","","","","","","","","2109","","Practice inducer trial","","f","practice","","true","","","f","1","LEFT","","","","",""
"","html-keyboard-response","54","296338","0.0-96.0","r35stz2p","1366","768","","","","","","","","","","","null","+","Fixation - short","","null","","","","","","","","","","","","",""
"","html-keyboard-response","55","302750","0.0-97.0","r35stz2p","1366","768","","","","","","","","","","","6409","If vib press LEFT | If uus press RIGHT","Practice inducer instructions",""," ","practice","","","","","","","","","","","",""
"","html-keyboard-response","56","303524","0.0-98.0","r35stz2p","1366","768","","","","","","","","","","","771","","Practice inducer trial","","j","practice","","true","","","j","1","RIGHT","","","","",""
"","html-keyboard-response","57","304288","0.0-101.0","r35stz2p","1366","768","","","","","","","","","","","null","+","Fixation - short","","null","","","","","","","","","","","","",""
"","html-keyboard-response","58","352667","0.0-102.0","r35stz2p","1366","768","","","","","","","","","","","48380","End practice","End of practice",""," ","","","","","","","","","","","","",""
"","html-keyboard-response","59","354182","0.0-103.0","r35stz2p","1366","768","","","","","","","","","","","null","+","Fixation - long","","null","","","","","","","","","","","","",""
"","html-keyboard-response","60","359620","0.0-104.0","r35stz2p","1366","768","","","","","","","","","","","5435","If snx press LEFT | If vbt press RIGHT","Inducer instructions",""," ","0","","","","","","","","","","","",""
"","html-keyboard-response","61","360383","0.0-105.0","r35stz2p","1366","768","","","","","","","","","","","null","+","Fixation - short","","null","","","","","","","","","","","","",""
"","html-keyboard-response","62","362303","0.0-106.0","r35stz2p","1366","768","","","","","","","","","","","1918","vbt","Diagnostic trial","","j","0","0","false","false","RIGHT","j","1","","RIGHT","true","","",""
"","html-keyboard-response","63","363065","0.0-109.0","r35stz2p","1366","768","","","","","","","","","","","null","+","Fixation - short","","null","","","","","","","","","","","","",""
"","html-keyboard-response","64","364973","0.0-110.0","r35stz2p","1366","768","","","","","","","","","","","1905","snx","Diagnostic trial","","f","0","1","false","true","LEFT","f","1","","LEFT","true","","",""
"","html-keyboard-response","65","365732","0.0-113.0","r35stz2p","1366","768","","","","","","","","","","","null","+","Fixation - short","","null","","","","","","","","","","","","",""
"","html-keyboard-response","66","366410","0.0-114.0","r35stz2p","1366","768","","","","","","","","","","","676","snx","Diagnostic trial","","f","0","2","false","false","RIGHT","j","0","","LEFT","false","","",""
"","call-function","67","366412","0.0-116.0-0.0","r35stz2p","","","","","","","","","","","","","","","","","","","","","","","","","","","","","",""
"","html-keyboard-response","68","366730","0.0-116.0-1.0","r35stz2p","1366","768","","","","","","","","","","","null","Wrong","Feedback","","null","","","","","","","","","","","","",""
"","call-function","69","366732","0.0-116.0-2.0","r35stz2p","","","","","","","","","","","","","","","","","","","","","","","","","","","","","",""
"","html-keyboard-response","70","367499","0.0-117.0","r35stz2p","1366","768","","","","","","","","","","","null","+","Fixation - short","","null","","","","","","","","","","","","",""
"","html-keyboard-response","71","368208","0.0-118.0","r35stz2p","1366","768","","","","","","","","","","","706","snx","Diagnostic trial","","j","0","3","false","false","RIGHT","j","1","","LEFT","false","","",""
"","html-keyboard-response","72","368965","0.0-121.0","r35stz2p","1366","768","","","","","","","","","","","null","+","Fixation - short","","null","","","","","","","","","","","","",""
"","html-keyboard-response","73","370849","0.0-122.0","r35stz2p","1366","768","","","","","","","","","","","1882","vbt","Diagnostic trial","","f","0","4","false","true","LEFT","f","1","","RIGHT","false","","",""
"","html-keyboard-response","74","371614","0.0-125.0","r35stz2p","1366","768","","","","","","","","","","","null","+","Fixation - short","","null","","","","","","","","","","","","",""
"","html-keyboard-response","75","373320","0.0-126.0","r35stz2p","1366","768","","","","","","","","","","","1704","vbt","Diagnostic trial","","f","0","5","false","true","LEFT","f","1","","RIGHT","false","","",""
"","html-keyboard-response","76","374082","0.0-129.0","r35stz2p","1366","768","","","","","","","","","","","null","+","Fixation - short","","null","","","","","","","","","","","","",""
"","html-keyboard-response","77","374954","0.0-130.0","r35stz2p","1366","768","","","","","","","","","","","870","vbt","Diagnostic trial","","j","0","6","false","false","RIGHT","j","1","","RIGHT","true","","",""
"","html-keyboard-response","78","375715","0.0-133.0","r35stz2p","1366","768","","","","","","","","","","","null","+","Fixation - short","","null","","","","","","","","","","","","",""
"","html-keyboard-response","79","376706","0.0-134.0","r35stz2p","1366","768","","","","","","","","","","","989","vbt","Diagnostic trial","","f","0","7","false","true","LEFT","f","1","","RIGHT","false","","",""
"","html-keyboard-response","80","377465","0.0-137.0","r35stz2p","1366","768","","","","","","","","","","","null","+","Fixation - short","","null","","","","","","","","","","","","",""
"","html-keyboard-response","81","378358","0.0-138.0","r35stz2p","1366","768","","","","","","","","","","","890","vbt","Diagnostic trial","","j","0","8","false","false","RIGHT","j","1","","RIGHT","true","","",""
"","html-keyboard-response","82","379114","0.0-141.0","r35stz2p","1366","768","","","","","","","","","","","null","+","Fixation - short","","null","","","","","","","","","","","","",""
"","html-keyboard-response","83","380310","0.0-142.0","r35stz2p","1366","768","","","","","","","","","","","1194","vbt","Diagnostic trial","","f","0","9","false","true","LEFT","f","1","","RIGHT","false","","",""
"","html-keyboard-response","84","381065","0.0-145.0","r35stz2p","1366","768","","","","","","","","","","","null","+","Fixation - short","","null","","","","","","","","","","","","",""
"","html-keyboard-response","85","383080","0.0-146.0","r35stz2p","1366","768","","","","","","","","","","","null","snx","Diagnostic trial","","null","0","10","false","false","RIGHT","j","NaN","","LEFT","false","","",""
"","call-function","86","383081","0.0-147.0-0.0","r35stz2p","","","","","","","","","","","","","","","","","","","","","","","","","","","","","",""
"","html-keyboard-response","87","383395","0.0-147.0-1.0","r35stz2p","1366","768","","","","","","","","","","","null","Slow","Feedback","","null","","","","","","","","","","","","",""
"","call-function","88","383397","0.0-147.0-2.0","r35stz2p","","","","","","","","","","","","","","","","","","","","","","","","","","","","","",""
"","html-keyboard-response","89","384165","0.0-149.0","r35stz2p","1366","768","","","","","","","","","","","null","+","Fixation - short","","null","","","","","","","","","","","","",""
"","html-keyboard-response","90","385363","0.0-150.0","r35stz2p","1366","768","","","","","","","","","","","1197","snx","Diagnostic trial","","f","0","11","false","true","LEFT","f","1","","LEFT","true","","",""
"","html-keyboard-response","91","386130","0.0-153.0","r35stz2p","1366","768","","","","","","","","","","","null","+","Fixation - short","","null","","","","","","","","","","","","",""
"","html-keyboard-response","92","386851","0.0-154.0","r35stz2p","1366","768","","","","","","","","","","","719","vbt","Diagnostic trial","","j","0","12","false","false","RIGHT","j","1","","RIGHT","true","","",""
"","html-keyboard-response","93","387613","0.0-157.0","r35stz2p","1366","768","","","","","","","","","","","null","+","Fixation - short","","null","","","","","","","","","","","","",""
"","html-keyboard-response","94","388364","0.0-158.0","r35stz2p","1366","768","","","","","","","","","","","748","vbt","Inducer trial","","j","0","","true","","","j","1","RIGHT","","","","",""
"","html-keyboard-response","95","389882","0.0-161.0","r35stz2p","1366","768","","","","","","","","","","","null","+","Fixation - long","","null","","","","","","","","","","","","",""
"","html-keyboard-response","96","401198","0.0-162.0","r35stz2p","1366","768","","","","","","","","","","","11314","If eht press LEFT | If cer press RIGHT","Inducer instructions",""," ","1","","","","","","","","","","","",""
"","html-keyboard-response","97","401963","0.0-163.0","r35stz2p","1366","768","","","","","","","","","","","null","+","Fixation - short","","null","","","","","","","","","","","","",""
"","html-keyboard-response","98","402809","0.0-164.0","r35stz2p","1366","768","","","","","","","","","","","844","cer","Diagnostic trial","","j","1","0","false","false","RIGHT","j","1","","RIGHT","true","","",""
"","html-keyboard-response","99","403565","0.0-167.0","r35stz2p","1366","768","","","","","","","","","","","null","+","Fixation - short","","null","","","","","","","","","","","","",""
"","html-keyboard-response","100","404535","0.0-168.0","r35stz2p","1366","768","","","","","","","","","","","968","eht","Diagnostic trial","","j","1","1","false","false","RIGHT","j","1","","LEFT","false","","",""
"","html-keyboard-response","101","405296","0.0-171.0","r35stz2p","1366","768","","","","","","","","","","","null","+","Fixation - short","","null","","","","","","","","","","","","",""
"","html-keyboard-response","102","406240","0.0-172.0","r35stz2p","1366","768","","","","","","","","","","","942","eht","Diagnostic trial","","f","1","2","false","true","LEFT","f","1","","LEFT","true","","",""
"","html-keyboard-response","103","406996","0.0-175.0","r35stz2p","1366","768","","","","","","","","","","","null","+","Fixation - short","","null","","","","","","","","","","","","",""
"","html-keyboard-response","104","407990","0.0-176.0","r35stz2p","1366","768","","","","","","","","","","","991","cer","Diagnostic trial","","f","1","3","false","true","LEFT","f","1","","RIGHT","false","","",""
"","html-keyboard-response","105","408747","0.0-179.0","r35stz2p","1366","768","","","","","","","","","","","null","+","Fixation - short","","null","","","","","","","","","","","","",""
"","html-keyboard-response","106","409284","0.0-180.0","r35stz2p","1366","768","","","","","","","","","","","535","cer","Diagnostic trial","","f","1","4","false","true","LEFT","f","1","","RIGHT","false","","",""
"","html-keyboard-response","107","410046","0.0-183.0","r35stz2p","1366","768","","","","","","","","","","","null","+","Fixation - short","","null","","","","","","","","","","","","",""
"","html-keyboard-response","108","410411","0.0-184.0","r35stz2p","1366","768","","","","","","","","","","","364","cer","Diagnostic trial","","f","1","5","false","false","RIGHT","j","0","","RIGHT","true","","",""
"","call-function","109","410412","0.0-186.0-0.0","r35stz2p","","","","","","","","","","","","","","","","","","","","","","","","","","","","","",""
"","html-keyboard-response","110","410728","0.0-186.0-1.0","r35stz2p","1366","768","","","","","","","","","","","null","Wrong","Feedback","","null","","","","","","","","","","","","",""
"","call-function","111","410729","0.0-186.0-2.0","r35stz2p","","","","","","","","","","","","","","","","","","","","","","","","","","","","","",""
"","html-keyboard-response","112","411497","0.0-187.0","r35stz2p","1366","768","","","","","","","","","","","null","+","Fixation - short","","null","","","","","","","","","","","","",""
"","html-keyboard-response","113","412952","0.0-188.0","r35stz2p","1366","768","","","","","","","","","","","1454","eht","Diagnostic trial","","j","1","6","false","false","RIGHT","j","1","","LEFT","false","","",""
"","html-keyboard-response","114","413713","0.0-191.0","r35stz2p","1366","768","","","","","","","","","","","null","+","Fixation - short","","null","","","","","","","","","","","","",""
"","html-keyboard-response","115","414321","0.0-192.0","r35stz2p","1366","768","","","","","","","","","","","606","eht","Diagnostic trial","","f","1","7","false","true","LEFT","f","1","","LEFT","true","","",""
"","html-keyboard-response","116","415078","0.0-195.0","r35stz2p","1366","768","","","","","","","","","","","null","+","Fixation - short","","null","","","","","","","","","","","","",""
"","html-keyboard-response","117","417094","0.0-196.0","r35stz2p","1366","768","","","","","","","","","","","null","cer","Diagnostic trial","","null","1","8","false","false","RIGHT","j","NaN","","RIGHT","true","","",""
"","call-function","118","417095","0.0-197.0-0.0","r35stz2p","","","","","","","","","","","","","","","","","","","","","","","","","","","","","",""
"","html-keyboard-response","119","417410","0.0-197.0-1.0","r35stz2p","1366","768","","","","","","","","","","","null","Slow","Feedback","","null","","","","","","","","","","","","",""
"","call-function","120","417411","0.0-197.0-2.0","r35stz2p","","","","","","","","","","","","","","","","","","","","","","","","","","","","","",""
"","html-keyboard-response","121","418179","0.0-199.0","r35stz2p","1366","768","","","","","","","","","","","null","+","Fixation - short","","null","","","","","","","","","","","","",""
"","html-keyboard-response","122","419620","0.0-200.0","r35stz2p","1366","768","","","","","","","","","","","1439","eht","Diagnostic trial","","j","1","9","false","false","RIGHT","j","1","","LEFT","false","","",""
"","html-keyboard-response","123","420379","0.0-203.0","r35stz2p","1366","768","","","","","","","","","","","null","+","Fixation - short","","null","","","","","","","","","","","","",""
"","html-keyboard-response","124","420986","0.0-204.0","r35stz2p","1366","768","","","","","","","","","","","605","cer","Diagnostic trial","","f","1","10","false","false","RIGHT","j","0","","RIGHT","true","","",""
"","call-function","125","420987","0.0-206.0-0.0","r35stz2p","","","","","","","","","","","","","","","","","","","","","","","","","","","","","",""
"","html-keyboard-response","126","421293","0.0-206.0-1.0","r35stz2p","1366","768","","","","","","","","","","","null","Wrong","Feedback","","null","","","","","","","","","","","","",""
"","call-function","127","421294","0.0-206.0-2.0","r35stz2p","","","","","","","","","","","","","","","","","","","","","","","","","","","","","",""
"","html-keyboard-response","128","422047","0.0-207.0","r35stz2p","1366","768","","","","","","","","","","","null","+","Fixation - short","","null","","","","","","","","","","","","",""
"","html-keyboard-response","129","423018","0.0-208.0","r35stz2p","1366","768","","","","","","","","","","","969","eht","Diagnostic trial","","j","1","11","false","false","RIGHT","j","1","","LEFT","false","","",""
"","html-keyboard-response","130","423779","0.0-211.0","r35stz2p","1366","768","","","","","","","","","","","null","+","Fixation - short","","null","","","","","","","","","","","","",""
"","html-keyboard-response","131","424156","0.0-212.0","r35stz2p","1366","768","","","","","","","","","","","375","eht","Diagnostic trial","","j","1","12","false","false","RIGHT","j","1","","LEFT","false","","",""
"","html-keyboard-response","132","424914","0.0-215.0","r35stz2p","1366","768","","","","","","","","","","","null","+","Fixation - short","","null","","","","","","","","","","","","",""
"","html-keyboard-response","133","425958","0.0-216.0","r35stz2p","1366","768","","","","","","","","","","","1043","cer","Diagnostic trial","","j","1","13","false","false","RIGHT","j","1","","RIGHT","true","","",""
"","html-keyboard-response","134","426712","0.0-219.0","r35stz2p","1366","768","","","","","","","","","","","null","+","Fixation - short","","null","","","","","","","","","","","","",""
"","html-keyboard-response","135","427696","0.0-220.0","r35stz2p","1366","768","","","","","","","","","","","982","cer","Diagnostic trial","","f","1","14","false","true","LEFT","f","1","","RIGHT","false","","",""
"","html-keyboard-response","136","428461","0.0-223.0","r35stz2p","1366","768","","","","","","","","","","","null","+","Fixation - short","","null","","","","","","","","","","","","",""
"","html-keyboard-response","137","428944","0.0-224.0","r35stz2p","1366","768","","","","","","","","","","","481","cer","Diagnostic trial","","f","1","15","false","true","LEFT","f","1","","RIGHT","false","","",""
"","html-keyboard-response","138","429712","0.0-227.0","r35stz2p","1366","768","","","","","","","","","","","null","+","Fixation - short","","null","","","","","","","","","","","","",""
"","html-keyboard-response","139","430841","0.0-228.0","r35stz2p","1366","768","","","","","","","","","","","1128","eht","Inducer trial","","j","1","","true","","","f","0","LEFT","","","","",""
"","call-function","140","430843","0.0-230.0-0.0","r35stz2p","","","","","","","","","","","","","","","","","","","","","","","","","","","","","",""
"","html-keyboard-response","141","431158","0.0-230.0-1.0","r35stz2p","1366","768","","","","","","","","","","","null","Wrong","Feedback","","null","","","","","","","","","","","","",""
"","call-function","142","431160","0.0-230.0-2.0","r35stz2p","","","","","","","","","","","","","","","","","","","","","","","","","","","","","",""
"","html-keyboard-response","143","432662","0.0-231.0","r35stz2p","1366","768","","","","","","","","","","","null","+","Fixation - long","","null","","","","","","","","","","","","",""
"","html-keyboard-response","144","447413","0.0-232.0","r35stz2p","1366","768","","","","","","","","","","","14748","If nga press LEFT | If afp press RIGHT","Inducer instructions",""," ","2","","","","","","","","","","","",""
"","html-keyboard-response","145","448176","0.0-233.0","r35stz2p","1366","768","","","","","","","","","","","null","+","Fixation - short","","null","","","","","","","","","","","","",""
"","html-keyboard-response","146","448654","0.0-234.0","r35stz2p","1366","768","","","","","","","","","","","476","nga","Diagnostic trial","","f","2","0","false","false","RIGHT","j","0","","LEFT","false","","",""
"","call-function","147","448655","0.0-236.0-0.0","r35stz2p","","","","","","","","","","","","","","","","","","","","","","","","","","","","","",""
"","html-keyboard-response","148","448959","0.0-236.0-1.0","r35stz2p","1366","768","","","","","","","","","","","null","Wrong","Feedback","","null","","","","","","","","","","","","",""
"","call-function","149","448960","0.0-236.0-2.0","r35stz2p","","","","","","","","","","","","","","","","","","","","","","","","","","","","","",""
"","html-keyboard-response","150","449728","0.0-237.0","r35stz2p","1366","768","","","","","","","","","","","null","+","Fixation - short","","null","","","","","","","","","","","","",""
"","html-keyboard-response","151","450303","0.0-238.0","r35stz2p","1366","768","","","","","","","","","","","573","nga","Diagnostic trial","","f","2","1","false","false","RIGHT","j","0","","LEFT","false","","",""
"","call-function","152","450304","0.0-240.0-0.0","r35stz2p","","","","","","","","","","","","","","","","","","","","","","","","","","","","","",""
"","html-keyboard-response","153","450619","0.0-240.0-1.0","r35stz2p","1366","768","","","","","","","","","","","null","Wrong","Feedback","","null","","","","","","","","","","","","",""
"","call-function","154","450620","0.0-240.0-2.0","r35stz2p","","","","","","","","","","","","","","","","","","","","","","","","","","","","","",""
"","html-keyboard-response","155","451379","0.0-241.0","r35stz2p","1366","768","","","","","","","","","","","null","+","Fixation - short","","null","","","","","","","","","","","","",""
"","html-keyboard-response","156","452820","0.0-242.0","r35stz2p","1366","768","","","","","","","","","","","1439","nga","Diagnostic trial","","f","2","2","false","true","LEFT","f","1","","LEFT","true","","",""
"","html-keyboard-response","157","453577","0.0-245.0","r35stz2p","1366","768","","","","","","","","","","","null","+","Fixation - short","","null","","","","","","","","","","","","",""
"","html-keyboard-response","158","455594","0.0-246.0","r35stz2p","1366","768","","","","","","","","","","","null","afp","Diagnostic trial","","null","2","3","false","true","LEFT","f","NaN","","RIGHT","false","","",""
"","call-function","159","455595","0.0-247.0-0.0","r35stz2p","","","","","","","","","","","","","","","","","","","","","","","","","","","","","",""
"","html-keyboard-response","160","455909","0.0-247.0-1.0","r35stz2p","1366","768","","","","","","","","","","","null","Slow","Feedback","","null","","","","","","","","","","","","",""
"","call-function","161","455910","0.0-247.0-2.0","r35stz2p","","","","","","","","","","","","","","","","","","","","","","","","","","","","","",""
"","html-keyboard-response","162","456677","0.0-249.0","r35stz2p","1366","768","","","","","","","","","","","null","+","Fixation - short","","null","","","","","","","","","","","","",""
"","html-keyboard-response","163","457546","0.0-250.0","r35stz2p","1366","768","","","","","","","","","","","867","afp","Diagnostic trial","","f","2","4","false","false","RIGHT","j","0","","RIGHT","true","","",""
"","call-function","164","457548","0.0-252.0-0.0","r35stz2p","","","","","","","","","","","","","","","","","","","","","","","","","","","","","",""
"","html-keyboard-response","165","457858","0.0-252.0-1.0","r35stz2p","1366","768","","","","","","","","","","","null","Wrong","Feedback","","null","","","","","","","","","","","","",""
"","call-function","166","457859","0.0-252.0-2.0","r35stz2p","","","","","","","","","","","","","","","","","","","","","","","","","","","","","",""
"","html-keyboard-response","167","458611","0.0-253.0","r35stz2p","1366","768","","","","","","","","","","","null","+","Fixation - short","","null","","","","","","","","","","","","",""
"","html-keyboard-response","168","460627","0.0-254.0","r35stz2p","1366","768","","","","","","","","","","","null","afp","Inducer trial","","null","2","","true","","","j","NaN","RIGHT","","","","",""
"","call-function","169","460629","0.0-255.0-0.0","r35stz2p","","","","","","","","","","","","","","","","","","","","","","","","","","","","","",""
"","html-keyboard-response","170","460941","0.0-255.0-1.0","r35stz2p","1366","768","","","","","","","","","","","null","Slow","Feedback","","null","","","","","","","","","","","","",""
"","call-function","171","460942","0.0-255.0-2.0","r35stz2p","","","","","","","","","","","","","","","","","","","","","","","","","","","","","",""
"","html-keyboard-response","172","462445","0.0-257.0","r35stz2p","1366","768","","","","","","","","","","","null","+","Fixation - long","","null","","","","","","","","","","","","",""
"","html-keyboard-response","173","477126","0.0-258.0","r35stz2p","1366","768","","","","","","","","","","","14676","If sjn press LEFT | If pmf press RIGHT","Inducer instructions",""," ","3","","","","","","","","","","","",""
"","html-keyboard-response","174","477878","0.0-259.0","r35stz2p","1366","768","","","","","","","","","","","null","+","Fixation - short","","null","","","","","","","","","","","","",""
"","html-keyboard-response","175","479749","0.0-260.0","r35stz2p","1366","768","","","","","","","","","","","1869","pmf","Diagnostic trial","","j","3","0","false","false","RIGHT","j","1","","RIGHT","true","","",""
"","html-keyboard-response","176","480511","0.0-263.0","r35stz2p","1366","768","","","","","","","","","","","null","+","Fixation - short","","null","","","","","","","","","","","","",""
"","html-keyboard-response","177","481492","0.0-264.0","r35stz2p","1366","768","","","","","","","","","","","979","pmf","Diagnostic trial","","j","3","1","false","true","LEFT","f","0","","RIGHT","false","","",""
"","call-function","178","481493","0.0-266.0-0.0","r35stz2p","","","","","","","","","","","","","","","","","","","","","","","","","","","","","",""
"","html-keyboard-response","179","481810","0.0-266.0-1.0","r35stz2p","1366","768","","","","","","","","","","","null","Wrong","Feedback","","null","","","","","","","","","","","","",""
"","call-function","180","481811","0.0-266.0-2.0","r35stz2p","","","","","","","","","","","","","","","","","","","","","","","","","","","","","",""
"","html-keyboard-response","181","482564","0.0-267.0","r35stz2p","1366","768","","","","","","","","","","","null","+","Fixation - short","","null","","","","","","","","","","","","",""
"","html-keyboard-response","182","483249","0.0-268.0","r35stz2p","1366","768","","","","","","","","","","","684","pmf","Diagnostic trial","","j","3","2","false","false","RIGHT","j","1","","RIGHT","true","","",""
"","html-keyboard-response","183","484010","0.0-271.0","r35stz2p","1366","768","","","","","","","","","","","null","+","Fixation - short","","null","","","","","","","","","","","","",""
"","html-keyboard-response","184","485023","0.0-272.0","r35stz2p","1366","768","","","","","","","","","","","1011","sjn","Diagnostic trial","","f","3","3","false","true","LEFT","f","1","","LEFT","true","","",""
"","html-keyboard-response","185","485779","0.0-275.0","r35stz2p","1366","768","","","","","","","","","","","null","+","Fixation - short","","null","","","","","","","","","","","","",""
"","html-keyboard-response","186","486355","0.0-276.0","r35stz2p","1366","768","","","","","","","","","","","574","sjn","Diagnostic trial","","f","3","4","false","true","LEFT","f","1","","LEFT","true","","",""
"","html-keyboard-response","187","487112","0.0-279.0","r35stz2p","1366","768","","","","","","","","","","","null","+","Fixation - short","","null","","","","","","","","","","","","",""
"","html-keyboard-response","188","487599","0.0-280.0","r35stz2p","1366","768","","","","","","","","","","","485","sjn","Diagnostic trial","","f","3","5","false","true","LEFT","f","1","","LEFT","true","","",""
"","html-keyboard-response","189","488361","0.0-283.0","r35stz2p","1366","768","","","","","","","","","","","null","+","Fixation - short","","null","","","","","","","","","","","","",""
"","html-keyboard-response","190","488897","0.0-284.0","r35stz2p","1366","768","","","","","","","","","","","534","pmf","Diagnostic trial","","j","3","6","false","false","RIGHT","j","1","","RIGHT","true","","",""
"","html-keyboard-response","191","489661","0.0-287.0","r35stz2p","1366","768","","","","","","","","","","","null","+","Fixation - short","","null","","","","","","","","","","","","",""
"","html-keyboard-response","192","489995","0.0-288.0","r35stz2p","1366","768","","","","","","","","","","","332","pmf","Diagnostic trial","","j","3","7","false","true","LEFT","f","0","","RIGHT","false","","",""
"","call-function","193","489996","0.0-290.0-0.0","r35stz2p","","","","","","","","","","","","","","","","","","","","","","","","","","","","","",""
"","html-keyboard-response","194","490310","0.0-290.0-1.0","r35stz2p","1366","768","","","","","","","","","","","null","Wrong","Feedback","","null","","","","","","","","","","","","",""
"","call-function","195","490311","0.0-290.0-2.0","r35stz2p","","","","","","","","","","","","","","","","","","","","","","","","","","","","","",""
"","html-keyboard-response","196","491063","0.0-291.0","r35stz2p","1366","768","","","","","","","","","","","null","+","Fixation - short","","null","","","","","","","","","","","","",""
"","html-keyboard-response","197","491634","0.0-292.0","r35stz2p","1366","768","","","","","","","","","","","569","pmf","Diagnostic trial","","j","3","8","false","true","LEFT","f","0","","RIGHT","false","","",""
"","call-function","198","491635","0.0-294.0-0.0","r35stz2p","","","","","","","","","","","","","","","","","","","","","","","","","","","","","",""
"","html-keyboard-response","199","491944","0.0-294.0-1.0","r35stz2p","1366","768","","","","","","","","","","","null","Wrong","Feedback","","null","","","","","","","","","","","","",""
"","call-function","200","491945","0.0-294.0-2.0","r35stz2p","","","","","","","","","","","","","","","","","","","","","","","","","","","","","",""
"","html-keyboard-response","201","492712","0.0-295.0","r35stz2p","1366","768","","","","","","","","","","","null","+","Fixation - short","","null","","","","","","","","","","","","",""
"","html-keyboard-response","202","493156","0.0-296.0","r35stz2p","1366","768","","","","","","","","","","","442","pmf","Diagnostic trial","","j","3","9","false","true","LEFT","f","0","","RIGHT","false","","",""
"","call-function","203","493157","0.0-298.0-0.0","r35stz2p","","","","","","","","","","","","","","","","","","","","","","","","","","","","","",""
"","html-keyboard-response","204","493461","0.0-298.0-1.0","r35stz2p","1366","768","","","","","","","","","","","null","Wrong","Feedback","","null","","","","","","","","","","","","",""
"","call-function","205","493462","0.0-298.0-2.0","r35stz2p","","","","","","","","","","","","","","","","","","","","","","","","","","","","","",""
"","html-keyboard-response","206","494228","0.0-299.0","r35stz2p","1366","768","","","","","","","","","","","null","+","Fixation - short","","null","","","","","","","","","","","","",""
"","html-keyboard-response","207","494909","0.0-300.0","r35stz2p","1366","768","","","","","","","","","","","678","sjn","Diagnostic trial","","f","3","10","false","true","LEFT","f","1","","LEFT","true","","",""
"","html-keyboard-response","208","495661","0.0-303.0","r35stz2p","1366","768","","","","","","","","","","","null","+","Fixation - short","","null","","","","","","","","","","","","",""
"","html-keyboard-response","209","496921","0.0-304.0","r35stz2p","1366","768","","","","","","","","","","","1257","pmf","Diagnostic trial","","f","3","11","false","true","LEFT","f","1","","RIGHT","false","","",""
"","html-keyboard-response","210","497679","0.0-307.0","r35stz2p","1366","768","","","","","","","","","","","null","+","Fixation - short","","null","","","","","","","","","","","","",""
"","html-keyboard-response","211","498486","0.0-308.0","r35stz2p","1366","768","","","","","","","","","","","805","sjn","Diagnostic trial","","f","3","12","false","true","LEFT","f","1","","LEFT","true","","",""
"","html-keyboard-response","212","499245","0.0-311.0","r35stz2p","1366","768","","","","","","","","","","","null","+","Fixation - short","","null","","","","","","","","","","","","",""
"","html-keyboard-response","213","500351","0.0-312.0","r35stz2p","1366","768","","","","","","","","","","","1104","pmf","Inducer trial","","j","3","","true","","","j","1","RIGHT","","","","",""
"","html-keyboard-response","214","501862","0.0-315.0","r35stz2p","1366","768","","","","","","","","","","","null","+","Fixation - long","","null","","","","","","","","","","","","",""
"","html-keyboard-response","215","505241","0.0-316.0","r35stz2p","1366","768","","","","","","","","","","","3376","If ufc press LEFT | If ydi press RIGHT","Inducer instructions",""," ","4","","","","","","","","","","","",""
"","html-keyboard-response","216","505994","0.0-317.0","r35stz2p","1366","768","","","","","","","","","","","null","+","Fixation - short","","null","","","","","","","","","","","","",""
"","html-keyboard-response","217","506573","0.0-318.0","r35stz2p","1366","768","","","","","","","","","","","576","ydi","Diagnostic trial","","j","4","0","false","true","LEFT","f","0","","RIGHT","false","","",""
"","call-function","218","506574","0.0-320.0-0.0","r35stz2p","","","","","","","","","","","","","","","","","","","","","","","","","","","","","",""
"","html-keyboard-response","219","506877","0.0-320.0-1.0","r35stz2p","1366","768","","","","","","","","","","","null","Wrong","Feedback","","null","","","","","","","","","","","","",""
"","call-function","220","506878","0.0-320.0-2.0","r35stz2p","","","","","","","","","","","","","","","","","","","","","","","","","","","","","",""
"","html-keyboard-response","221","507645","0.0-321.0","r35stz2p","1366","768","","","","","","","","","","","null","+","Fixation - short","","null","","","","","","","","","","","","",""
"","html-keyboard-response","222","508176","0.0-322.0","r35stz2p","1366","768","","","","","","","","","","","529","ufc","Diagnostic trial","","f","4","1","false","true","LEFT","f","1","","LEFT","true","","",""
"","html-keyboard-response","223","508943","0.0-325.0","r35stz2p","1366","768","","","","","","","","","","","null","+","Fixation - short","","null","","","","","","","","","","","","",""
"","html-keyboard-response","224","509379","0.0-326.0","r35stz2p","1366","768","","","","","","","","","","","435","ufc","Diagnostic trial","","f","4","2","false","true","LEFT","f","1","","LEFT","true","","",""
"","html-keyboard-response","225","510144","0.0-329.0","r35stz2p","1366","768","","","","","","","","","","","null","+","Fixation - short","","null","","","","","","","","","","","","",""
"","html-keyboard-response","226","510952","0.0-330.0","r35stz2p","1366","768","","","","","","","","","","","806","ydi","Diagnostic trial","","j","4","3","false","false","RIGHT","j","1","","RIGHT","true","","",""
"","html-keyboard-response","227","511710","0.0-333.0","r35stz2p","1366","768","","","","","","","","","","","null","+","Fixation - short","","null","","","","","","","","","","","","",""
"","html-keyboard-response","228","512504","0.0-334.0","r35stz2p","1366","768","","","","","","","","","","","791","ufc","Diagnostic trial","","f","4","4","false","true","LEFT","f","1","","LEFT","true","","",""
"","html-keyboard-response","229","513261","0.0-337.0","r35stz2p","1366","768","","","","","","","","","","","null","+","Fixation - short","","null","","","","","","","","","","","","",""
"","html-keyboard-response","230","514317","0.0-338.0","r35stz2p","1366","768","","","","","","","","","","","1054","ufc","Diagnostic trial","","j","4","5","false","false","RIGHT","j","1","","LEFT","false","","",""
"","html-keyboard-response","231","515078","0.0-341.0","r35stz2p","1366","768","","","","","","","","","","","null","+","Fixation - short","","null","","","","","","","","","","","","",""
"","html-keyboard-response","232","515700","0.0-342.0","r35stz2p","1366","768","","","","","","","","","","","620","ydi","Diagnostic trial","","f","4","6","false","true","LEFT","f","1","","RIGHT","false","","",""
"","html-keyboard-response","233","516461","0.0-345.0","r35stz2p","1366","768","","","","","","","","","","","null","+","Fixation - short","","null","","","","","","","","","","","","",""
"","html-keyboard-response","234","517033","0.0-346.0","r35stz2p","1366","768","","","","","","","","","","","570","ydi","Diagnostic trial","","f","4","7","false","false","RIGHT","j","0","","RIGHT","true","","",""
"","call-function","235","517034","0.0-348.0-0.0","r35stz2p","","","","","","","","","","","","","","","","","","","","","","","","","","","","","",""
"","html-keyboard-response","236","517342","0.0-348.0-1.0","r35stz2p","1366","768","","","","","","","","","","","null","Wrong","Feedback","","null","","","","","","","","","","","","",""
"","call-function","237","517343","0.0-348.0-2.0","r35stz2p","","","","","","","","","","","","","","","","","","","","","","","","","","","","","",""
"","html-keyboard-response","238","518111","0.0-349.0","r35stz2p","1366","768","","","","","","","","","","","null","+","Fixation - short","","null","","","","","","","","","","","","",""
"","html-keyboard-response","239","518872","0.0-350.0","r35stz2p","1366","768","","","","","","","","","","","759","ydi","Diagnostic trial","","j","4","8","false","false","RIGHT","j","1","","RIGHT","true","","",""
"","html-keyboard-response","240","519627","0.0-353.0","r35stz2p","1366","768","","","","","","","","","","","null","+","Fixation - short","","null","","","","","","","","","","","","",""
"","html-keyboard-response","241","520575","0.0-354.0","r35stz2p","1366","768","","","","","","","","","","","946","ydi","Diagnostic trial","","f","4","9","false","true","LEFT","f","1","","RIGHT","false","","",""
"","html-keyboard-response","242","521342","0.0-357.0","r35stz2p","1366","768","","","","","","","","","","","null","+","Fixation - short","","null","","","","","","","","","","","","",""
"","html-keyboard-response","243","522151","0.0-358.0","r35stz2p","1366","768","","","","","","","","","","","807","ufc","Diagnostic trial","","j","4","10","false","false","RIGHT","j","1","","LEFT","false","","",""
"","html-keyboard-response","244","522911","0.0-361.0","r35stz2p","1366","768","","","","","","","","","","","null","+","Fixation - short","","null","","","","","","","","","","","","",""
"","html-keyboard-response","245","523845","0.0-362.0","r35stz2p","1366","768","","","","","","","","","","","932","ufc","Diagnostic trial","","j","4","11","false","false","RIGHT","j","1","","LEFT","false","","",""
"","html-keyboard-response","246","524608","0.0-365.0","r35stz2p","1366","768","","","","","","","","","","","null","+","Fixation - short","","null","","","","","","","","","","","","",""
"","html-keyboard-response","247","525078","0.0-366.0","r35stz2p","1366","768","","","","","","","","","","","467","ufc","Diagnostic trial","","j","4","12","false","false","RIGHT","j","1","","LEFT","false","","",""
"","html-keyboard-response","248","525842","0.0-369.0","r35stz2p","1366","768","","","","","","","","","","","null","+","Fixation - short","","null","","","","","","","","","","","","",""
"","html-keyboard-response","249","526655","0.0-370.0","r35stz2p","1366","768","","","","","","","","","","","811","ufc","Inducer trial","","j","4","","true","","","f","0","LEFT","","","","",""
"","call-function","250","526656","0.0-372.0-0.0","r35stz2p","","","","","","","","","","","","","","","","","","","","","","","","","","","","","",""
"","html-keyboard-response","251","526974","0.0-372.0-1.0","r35stz2p","1366","768","","","","","","","","","","","null","Wrong","Feedback","","null","","","","","","","","","","","","",""
"","call-function","252","526975","0.0-372.0-2.0","r35stz2p","","","","","","","","","","","","","","","","","","","","","","","","","","","","","",""
"","html-keyboard-response","253","528478","0.0-373.0","r35stz2p","1366","768","","","","","","","","","","","null","+","Fixation - long","","null","","","","","","","","","","","","",""
"","html-keyboard-response","254","538261","0.0-374.0","r35stz2p","1366","768","","","","","","","","","","","9792","If hfs press LEFT | If hrc press RIGHT","Inducer instructions",""," ","5","","","","","","","","","","","",""
"","html-keyboard-response","255","539015","0.0-375.0","r35stz2p","1366","768","","","","","","","","","","","null","+","Fixation - short","","null","","","","","","","","","","","","",""
"","html-keyboard-response","256","539796","0.0-376.0","r35stz2p","1366","768","","","","","","","","","","","778","hrc","Diagnostic trial","","j","5","0","false","false","RIGHT","j","1","","RIGHT","true","","",""
"","html-keyboard-response","257","540563","0.0-379.0","r35stz2p","1366","768","","","","","","","","","","","null","+","Fixation - short","","null","","","","","","","","","","","","",""
"","html-keyboard-response","258","541409","0.0-380.0","r35stz2p","1366","768","","","","","","","","","","","843","hfs","Diagnostic trial","","j","5","1","false","false","RIGHT","j","1","","LEFT","false","","",""
"","html-keyboard-response","259","542166","0.0-383.0","r35stz2p","1366","768","","","","","","","","","","","null","+","Fixation - short","","null","","","","","","","","","","","","",""
"","html-keyboard-response","260","542597","0.0-384.0","r35stz2p","1366","768","","","","","","","","","","","429","hfs","Diagnostic trial","","j","5","2","false","false","RIGHT","j","1","","LEFT","false","","",""
"","html-keyboard-response","261","543363","0.0-387.0","r35stz2p","1366","768","","","","","","","","","","","null","+","Fixation - short","","null","","","","","","","","","","","","",""
"","html-keyboard-response","262","544145","0.0-388.0","r35stz2p","1366","768","","","","","","","","","","","779","hfs","Diagnostic trial","","f","5","3","false","true","LEFT","f","1","","LEFT","true","","",""
"","html-keyboard-response","263","544899","0.0-391.0","r35stz2p","1366","768","","","","","","","","","","","null","+","Fixation - short","","null","","","","","","","","","","","","",""
"","html-keyboard-response","264","545732","0.0-392.0","r35stz2p","1366","768","","","","","","","","","","","832","hfs","Diagnostic trial","","j","5","4","false","false","RIGHT","j","1","","LEFT","false","","",""
"","html-keyboard-response","265","546497","0.0-395.0","r35stz2p","1366","768","","","","","","","","","","","null","+","Fixation - short","","null","","","","","","","","","","","","",""
"","html-keyboard-response","266","547774","0.0-396.0","r35stz2p","1366","768","","","","","","","","","","","1275","hrc","Diagnostic trial","","f","5","5","false","true","LEFT","f","1","","RIGHT","false","","",""
"","html-keyboard-response","267","548531","0.0-399.0","r35stz2p","1366","768","","","","","","","","","","","null","+","Fixation - short","","null","","","","","","","","","","","","",""
"","html-keyboard-response","268","550549","0.0-400.0","r35stz2p","1366","768","","","","","","","","","","","null","hrc","Diagnostic trial","","null","5","6","false","false","RIGHT","j","NaN","","RIGHT","true","","",""
"","call-function","269","550550","0.0-401.0-0.0","r35stz2p","","","","","","","","","","","","","","","","","","","","","","","","","","","","","",""
"","html-keyboard-response","270","550862","0.0-401.0-1.0","r35stz2p","1366","768","","","","","","","","","","","null","Slow","Feedback","","null","","","","","","","","","","","","",""
"","call-function","271","550863","0.0-401.0-2.0","r35stz2p","","","","","","","","","","","","","","","","","","","","","","","","","","","","","",""
"","html-keyboard-response","272","551616","0.0-403.0","r35stz2p","1366","768","","","","","","","","","","","null","+","Fixation - short","","null","","","","","","","","","","","","",""
"","html-keyboard-response","273","552574","0.0-404.0","r35stz2p","1366","768","","","","","","","","","","","956","hfs","Inducer trial","","j","5","","true","","","f","0","LEFT","","","","",""
"","call-function","274","552575","0.0-406.0-0.0","r35stz2p","","","","","","","","","","","","","","","","","","","","","","","","","","","","","",""
"","html-keyboard-response","275","552880","0.0-406.0-1.0","r35stz2p","1366","768","","","","","","","","","","","null","Wrong","Feedback","","null","","","","","","","","","","","","",""
"","call-function","276","552881","0.0-406.0-2.0","r35stz2p","","","","","","","","","","","","","","","","","","","","","","","","","","","","","",""
"","html-keyboard-response","277","554398","0.0-407.0","r35stz2p","1366","768","","","","","","","","","","","null","+","Fixation - long","","null","","","","","","","","","","","","",""
"","html-keyboard-response","278","560427","0.0-408.0","r35stz2p","1366","768","","","","","","","","","","","6027","If glp press LEFT | If ivr press RIGHT","Inducer instructions",""," ","6","","","","","","","","","","","",""
"","html-keyboard-response","279","561181","0.0-409.0","r35stz2p","1366","768","","","","","","","","","","","null","+","Fixation - short","","null","","","","","","","","","","","","",""
"","html-keyboard-response","280","561825","0.0-410.0","r35stz2p","1366","768","","","","","","","","","","","641","glp","Diagnostic trial","","f","6","0","false","true","LEFT","f","1","","LEFT","true","","",""
"","html-keyboard-response","281","562583","0.0-413.0","r35stz2p","1366","768","","","","","","","","","","","null","+","Fixation - short","","null","","","","","","","","","","","","",""
"","html-keyboard-response","282","563093","0.0-414.0","r35stz2p","1366","768","","","","","","","","","","","509","ivr","Diagnostic trial","","j","6","1","false","false","RIGHT","j","1","","RIGHT","true","","",""
"","html-keyboard-response","283","563847","0.0-417.0","r35stz2p","1366","768","","","","","","","","","","","null","+","Fixation - short","","null","","","","","","","","","","","","",""
"","html-keyboard-response","284","564496","0.0-418.0","r35stz2p","1366","768","","","","","","","","","","","647","ivr","Diagnostic trial","","j","6","2","false","false","RIGHT","j","1","","RIGHT","true","","",""
"","html-keyboard-response","285","565263","0.0-421.0","r35stz2p","1366","768","","","","","","","","","","","null","+","Fixation - short","","null","","","","","","","","","","","","",""
"","html-keyboard-response","286","565775","0.0-422.0","r35stz2p","1366","768","","","","","","","","","","","509","glp","Diagnostic trial","","f","6","3","false","true","LEFT","f","1","","LEFT","true","","",""
"","html-keyboard-response","287","566532","0.0-425.0","r35stz2p","1366","768","","","","","","","","","","","null","+","Fixation - short","","null","","","","","","","","","","","","",""
"","html-keyboard-response","288","567032","0.0-426.0","r35stz2p","1366","768","","","","","","","","","","","498","ivr","Diagnostic trial","","j","6","4","false","true","LEFT","f","0","","RIGHT","false","","",""
"","call-function","289","567035","0.0-428.0-0.0","r35stz2p","","","","","","","","","","","","","","","","","","","","","","","","","","","","","",""
"","html-keyboard-response","290","567344","0.0-428.0-1.0","r35stz2p","1366","768","","","","","","","","","","","null","Wrong","Feedback","","null","","","","","","","","","","","","",""
"","call-function","291","567345","0.0-428.0-2.0","r35stz2p","","","","","","","","","","","","","","","","","","","","","","","","","","","","","",""
"","html-keyboard-response","292","568099","0.0-429.0","r35stz2p","1366","768","","","","","","","","","","","null","+","Fixation - short","","null","","","","","","","","","","","","",""
"","html-keyboard-response","293","568955","0.0-430.0","r35stz2p","1366","768","","","","","","","","","","","854","ivr","Diagnostic trial","","j","6","5","false","false","RIGHT","j","1","","RIGHT","true","","",""
"","html-keyboard-response","294","569714","0.0-433.0","r35stz2p","1366","768","","","","","","","","","","","null","+","Fixation - short","","null","","","","","","","","","","","","",""
"","html-keyboard-response","295","570464","0.0-434.0","r35stz2p","1366","768","","","","","","","","","","","747","ivr","Diagnostic trial","","f","6","6","false","true","LEFT","f","1","","RIGHT","false","","",""
"","html-keyboard-response","296","571229","0.0-437.0","r35stz2p","1366","768","","","","","","","","","","","null","+","Fixation - short","","null","","","","","","","","","","","","",""
"","html-keyboard-response","297","572310","0.0-438.0","r35stz2p","1366","768","","","","","","","","","","","1078","ivr","Diagnostic trial","","j","6","7","false","false","RIGHT","j","1","","RIGHT","true","","",""
"","html-keyboard-response","298","573064","0.0-441.0","r35stz2p","1366","768","","","","","","","","","","","null","+","Fixation - short","","null","","","","","","","","","","","","",""
"","html-keyboard-response","299","573694","0.0-442.0","r35stz2p","1366","768","","","","","","","","","","","628","ivr","Diagnostic trial","","f","6","8","false","true","LEFT","f","1","","RIGHT","false","","",""
"","html-keyboard-response","300","574462","0.0-445.0","r35stz2p","1366","768","","","","","","","","","","","null","+","Fixation - short","","null","","","","","","","","","","","","",""
"","html-keyboard-response","301","574861","0.0-446.0","r35stz2p","1366","768","","","","","","","","","","","397","ivr","Diagnostic trial","","f","6","9","false","true","LEFT","f","1","","RIGHT","false","","",""
"","html-keyboard-response","302","575629","0.0-449.0","r35stz2p","1366","768","","","","","","","","","","","null","+","Fixation - short","","null","","","","","","","","","","","","",""
"","html-keyboard-response","303","576064","0.0-450.0","r35stz2p","1366","768","","","","","","","","","","","434","ivr","Diagnostic trial","","f","6","10","false","true","LEFT","f","1","","RIGHT","false","","",""
"","html-keyboard-response","304","576829","0.0-453.0","r35stz2p","1366","768","","","","","","","","","","","null","+","Fixation - short","","null","","","","","","","","","","","","",""
"","html-keyboard-response","305","577442","0.0-454.0","r35stz2p","1366","768","","","","","","","","","","","611","glp","Diagnostic trial","","f","6","11","false","true","LEFT","f","1","","LEFT","true","","",""
"","html-keyboard-response","306","578196","0.0-457.0","r35stz2p","1366","768","","","","","","","","","","","null","+","Fixation - short","","null","","","","","","","","","","","","",""
"","html-keyboard-response","307","578576","0.0-458.0","r35stz2p","1366","768","","","","","","","","","","","378","glp","Diagnostic trial","","f","6","12","false","true","LEFT","f","1","","LEFT","true","","",""
"","html-keyboard-response","308","579330","0.0-461.0","r35stz2p","1366","768","","","","","","","","","","","null","+","Fixation - short","","null","","","","","","","","","","","","",""
"","html-keyboard-response","309","579699","0.0-462.0","r35stz2p","1366","768","","","","","","","","","","","367","glp","Diagnostic trial","","f","6","13","false","false","RIGHT","j","0","","LEFT","false","","",""
"","call-function","310","579700","0.0-464.0-0.0","r35stz2p","","","","","","","","","","","","","","","","","","","","","","","","","","","","","",""
"","html-keyboard-response","311","580012","0.0-464.0-1.0","r35stz2p","1366","768","","","","","","","","","","","null","Wrong","Feedback","","null","","","","","","","","","","","","",""
"","call-function","312","580013","0.0-464.0-2.0","r35stz2p","","","","","","","","","","","","","","","","","","","","","","","","","","","","","",""
"","html-keyboard-response","313","580766","0.0-465.0","r35stz2p","1366","768","","","","","","","","","","","null","+","Fixation - short","","null","","","","","","","","","","","","",""
"","html-keyboard-response","314","581537","0.0-466.0","r35stz2p","1366","768","","","","","","","","","","","769","glp","Inducer trial","","j","6","","true","","","f","0","LEFT","","","","",""
"","call-function","315","581538","0.0-468.0-0.0","r35stz2p","","","","","","","","","","","","","","","","","","","","","","","","","","","","","",""
"","html-keyboard-response","316","581844","0.0-468.0-1.0","r35stz2p","1366","768","","","","","","","","","","","null","Wrong","Feedback","","null","","","","","","","","","","","","",""
"","call-function","317","581845","0.0-468.0-2.0","r35stz2p","","","","","","","","","","","","","","","","","","","","","","","","","","","","","",""
"","html-keyboard-response","318","583348","0.0-469.0","r35stz2p","1366","768","","","","","","","","","","","null","+","Fixation - long","","null","","","","","","","","","","","","",""
"","html-keyboard-response","319","587754","0.0-470.0","r35stz2p","1366","768","","","","","","","","","","","4404","If ttm press LEFT | If prg press RIGHT","Inducer instructions",""," ","7","","","","","","","","","","","",""
"","html-keyboard-response","320","588513","0.0-471.0","r35stz2p","1366","768","","","","","","","","","","","null","+","Fixation - short","","null","","","","","","","","","","","","",""
"","html-keyboard-response","321","589366","0.0-472.0","r35stz2p","1366","768","","","","","","","","","","","851","prg","Diagnostic trial","","f","7","0","false","true","LEFT","f","1","","RIGHT","false","","",""
"","html-keyboard-response","322","590128","0.0-475.0","r35stz2p","1366","768","","","","","","","","","","","null","+","Fixation - short","","null","","","","","","","","","","","","",""
"","html-keyboard-response","323","590654","0.0-476.0","r35stz2p","1366","768","","","","","","","","","","","524","ttm","Diagnostic trial","","j","7","1","false","false","RIGHT","j","1","","LEFT","false","","",""
"","html-keyboard-response","324","591412","0.0-479.0","r35stz2p","1366","768","","","","","","","","","","","null","+","Fixation - short","","null","","","","","","","","","","","","",""
"","html-keyboard-response","325","591903","0.0-480.0","r35stz2p","1366","768","","","","","","","","","","","488","prg","Diagnostic trial","","j","7","2","false","false","RIGHT","j","1","","RIGHT","true","","",""
"","html-keyboard-response","326","592663","0.0-483.0","r35stz2p","1366","768","","","","","","","","","","","null","+","Fixation - short","","null","","","","","","","","","","","","",""
"","html-keyboard-response","327","593067","0.0-484.0","r35stz2p","1366","768","","","","","","","","","","","402","prg","Diagnostic trial","","j","7","3","false","false","RIGHT","j","1","","RIGHT","true","","",""
"","html-keyboard-response","328","593827","0.0-487.0","r35stz2p","1366","768","","","","","","","","","","","null","+","Fixation - short","","null","","","","","","","","","","","","",""
"","html-keyboard-response","329","594295","0.0-488.0","r35stz2p","1366","768","","","","","","","","","","","466","ttm","Diagnostic trial","","j","7","4","false","false","RIGHT","j","1","","LEFT","false","","",""
"","html-keyboard-response","330","595061","0.0-491.0","r35stz2p","1366","768","","","","","","","","","","","null","+","Fixation - short","","null","","","","","","","","","","","","",""
"","html-keyboard-response","331","595492","0.0-492.0","r35stz2p","1366","768","","","","","","","","","","","429","prg","Diagnostic trial","","f","7","5","false","true","LEFT","f","1","","RIGHT","false","","",""
"","html-keyboard-response","332","596255","0.0-495.0","r35stz2p","1366","768","","","","","","","","","","","null","+","Fixation - short","","null","","","","","","","","","","","","",""
"","html-keyboard-response","333","596771","0.0-496.0","r35stz2p","1366","768","","","","","","","","","","","514","ttm","Diagnostic trial","","j","7","6","false","false","RIGHT","j","1","","LEFT","false","","",""
"","html-keyboard-response","334","597538","0.0-499.0","r35stz2p","1366","768","","","","","","","","","","","null","+","Fixation - short","","null","","","","","","","","","","","","",""
"","html-keyboard-response","335","598025","0.0-500.0","r35stz2p","1366","768","","","","","","","","","","","485","ttm","Diagnostic trial","","j","7","7","false","false","RIGHT","j","1","","LEFT","false","","",""
"","html-keyboard-response","336","598793","0.0-503.0","r35stz2p","1366","768","","","","","","","","","","","null","+","Fixation - short","","null","","","","","","","","","","","","",""
"","html-keyboard-response","337","599312","0.0-504.0","r35stz2p","1366","768","","","","","","","","","","","517","prg","Diagnostic trial","","f","7","8","false","true","LEFT","f","1","","RIGHT","false","","",""
"","html-keyboard-response","338","600076","0.0-507.0","r35stz2p","1366","768","","","","","","","","","","","null","+","Fixation - short","","null","","","","","","","","","","","","",""
"","html-keyboard-response","339","600571","0.0-508.0","r35stz2p","1366","768","","","","","","","","","","","492","ttm","Diagnostic trial","","j","7","9","false","false","RIGHT","j","1","","LEFT","false","","",""
"","html-keyboard-response","340","601328","0.0-511.0","r35stz2p","1366","768","","","","","","","","","","","null","+","Fixation - short","","null","","","","","","","","","","","","",""
"","html-keyboard-response","341","601903","0.0-512.0","r35stz2p","1366","768","","","","","","","","","","","573","ttm","Diagnostic trial","","f","7","10","false","true","LEFT","f","1","","LEFT","true","","",""
"","html-keyboard-response","342","602659","0.0-515.0","r35stz2p","1366","768","","","","","","","","","","","null","+","Fixation - short","","null","","","","","","","","","","","","",""
"","html-keyboard-response","343","603320","0.0-516.0","r35stz2p","1366","768","","","","","","","","","","","659","prg","Diagnostic trial","","f","7","11","false","true","LEFT","f","1","","RIGHT","false","","",""
"","html-keyboard-response","344","604077","0.0-519.0","r35stz2p","1366","768","","","","","","","","","","","null","+","Fixation - short","","null","","","","","","","","","","","","",""
"","html-keyboard-response","345","604584","0.0-520.0","r35stz2p","1366","768","","","","","","","","","","","504","prg","Diagnostic trial","","f","7","12","false","true","LEFT","f","1","","RIGHT","false","","",""
"","html-keyboard-response","346","605343","0.0-523.0","r35stz2p","1366","768","","","","","","","","","","","null","+","Fixation - short","","null","","","","","","","","","","","","",""
"","html-keyboard-response","347","605837","0.0-524.0","r35stz2p","1366","768","","","","","","","","","","","492","ttm","Diagnostic trial","","j","7","13","false","false","RIGHT","j","1","","LEFT","false","","",""
"","html-keyboard-response","348","606593","0.0-527.0","r35stz2p","1366","768","","","","","","","","","","","null","+","Fixation - short","","null","","","","","","","","","","","","",""
"","html-keyboard-response","349","607050","0.0-528.0","r35stz2p","1366","768","","","","","","","","","","","456","prg","Diagnostic trial","","f","7","14","false","true","LEFT","f","1","","RIGHT","false","","",""
"","html-keyboard-response","350","607809","0.0-531.0","r35stz2p","1366","768","","","","","","","","","","","null","+","Fixation - short","","null","","","","","","","","","","","","",""
"","html-keyboard-response","351","608224","0.0-532.0","r35stz2p","1366","768","","","","","","","","","","","414","ttm","Diagnostic trial","","f","7","15","false","true","LEFT","f","1","","LEFT","true","","",""
"","html-keyboard-response","352","608991","0.0-535.0","r35stz2p","1366","768","","","","","","","","","","","null","+","Fixation - short","","null","","","","","","","","","","","","",""
"","html-keyboard-response","353","609447","0.0-536.0","r35stz2p","1366","768","","","","","","","","","","","454","ttm","Inducer trial","","j","7","","true","","","f","0","LEFT","","","","",""
"","call-function","354","609448","0.0-538.0-0.0","r35stz2p","","","","","","","","","","","","","","","","","","","","","","","","","","","","","",""
"","html-keyboard-response","355","609757","0.0-538.0-1.0","r35stz2p","1366","768","","","","","","","","","","","null","Wrong","Feedback","","null","","","","","","","","","","","","",""
"","call-function","356","609759","0.0-538.0-2.0","r35stz2p","","","","","","","","","","","","","","","","","","","","","","","","","","","","","",""
"","html-keyboard-response","357","611261","0.0-539.0","r35stz2p","1366","768","","","","","","","","","","","null","+","Fixation - long","","null","","","","","","","","","","","","",""
"","html-keyboard-response","358","617856","0.0-540.0","r35stz2p","1366","768","","","","","","","","","","","6593","If csp press LEFT | If swr press RIGHT","Inducer instructions",""," ","8","","","","","","","","","","","",""
"","html-keyboard-response","359","618624","0.0-541.0","r35stz2p","1366","768","","","","","","","","","","","null","+","Fixation - short","","null","","","","","","","","","","","","",""
"","html-keyboard-response","360","619269","0.0-542.0","r35stz2p","1366","768","","","","","","","","","","","643","csp","Diagnostic trial","","f","8","0","false","true","LEFT","f","1","","LEFT","true","","",""
"","html-keyboard-response","361","620025","0.0-545.0","r35stz2p","1366","768","","","","","","","","","","","null","+","Fixation - short","","null","","","","","","","","","","","","",""
"","html-keyboard-response","362","620638","0.0-546.0","r35stz2p","1366","768","","","","","","","","","","","610","csp","Diagnostic trial","","j","8","1","false","false","RIGHT","j","1","","LEFT","false","","",""
"","html-keyboard-response","363","621392","0.0-549.0","r35stz2p","1366","768","","","","","","","","","","","null","+","Fixation - short","","null","","","","","","","","","","","","",""
"","html-keyboard-response","364","622150","0.0-550.0","r35stz2p","1366","768","","","","","","","","","","","755","csp","Diagnostic trial","","j","8","2","false","false","RIGHT","j","1","","LEFT","false","","",""
"","html-keyboard-response","365","622909","0.0-553.0","r35stz2p","1366","768","","","","","","","","","","","null","+","Fixation - short","","null","","","","","","","","","","","","",""
"","html-keyboard-response","366","623418","0.0-554.0","r35stz2p","1366","768","","","","","","","","","","","507","csp","Diagnostic trial","","j","8","3","false","false","RIGHT","j","1","","LEFT","false","","",""
"","html-keyboard-response","367","624175","0.0-557.0","r35stz2p","1366","768","","","","","","","","","","","null","+","Fixation - short","","null","","","","","","","","","","","","",""
"","html-keyboard-response","368","624607","0.0-558.0","r35stz2p","1366","768","","","","","","","","","","","430","swr","Diagnostic trial","","f","8","4","false","true","LEFT","f","1","","RIGHT","false","","",""
"","html-keyboard-response","369","625374","0.0-561.0","r35stz2p","1366","768","","","","","","","","","","","null","+","Fixation - short","","null","","","","","","","","","","","","",""
"","html-keyboard-response","370","625796","0.0-562.0","r35stz2p","1366","768","","","","","","","","","","","419","csp","Inducer trial","","j","8","","true","","","f","0","LEFT","","","","",""
"","call-function","371","625797","0.0-564.0-0.0","r35stz2p","","","","","","","","","","","","","","","","","","","","","","","","","","","","","",""
"","html-keyboard-response","372","626107","0.0-564.0-1.0","r35stz2p","1366","768","","","","","","","","","","","null","Wrong","Feedback","","null","","","","","","","","","","","","",""
"","call-function","373","626108","0.0-564.0-2.0","r35stz2p","","","","","","","","","","","","","","","","","","","","","","","","","","","","","",""
"","html-keyboard-response","374","627625","0.0-565.0","r35stz2p","1366","768","","","","","","","","","","","null","+","Fixation - long","","null","","","","","","","","","","","","",""
"","html-keyboard-response","375","629661","0.0-566.0","r35stz2p","1366","768","","","","","","","","","","","2034","If wrz press LEFT | If iei press RIGHT","Inducer instructions",""," ","9","","","","","","","","","","","",""
"","html-keyboard-response","376","630422","0.0-567.0","r35stz2p","1366","768","","","","","","","","","","","null","+","Fixation - short","","null","","","","","","","","","","","","",""
"","html-keyboard-response","377","630947","0.0-568.0","r35stz2p","1366","768","","","","","","","","","","","523","iei","Diagnostic trial","","j","9","0","false","true","LEFT","f","0","","RIGHT","false","","",""
"","call-function","378","630948","0.0-570.0-0.0","r35stz2p","","","","","","","","","","","","","","","","","","","","","","","","","","","","","",""
"","html-keyboard-response","379","631256","0.0-570.0-1.0","r35stz2p","1366","768","","","","","","","","","","","null","Wrong","Feedback","","null","","","","","","","","","","","","",""
"","call-function","380","631257","0.0-570.0-2.0","r35stz2p","","","","","","","","","","","","","","","","","","","","","","","","","","","","","",""
"","html-keyboard-response","381","632025","0.0-571.0","r35stz2p","1366","768","","","","","","","","","","","null","+","Fixation - short","","null","","","","","","","","","","","","",""
"","html-keyboard-response","382","632650","0.0-572.0","r35stz2p","1366","768","","","","","","","","","","","624","iei","Diagnostic trial","","f","9","1","false","true","LEFT","f","1","","RIGHT","false","","",""
"","html-keyboard-response","383","633410","0.0-575.0","r35stz2p","1366","768","","","","","","","","","","","null","+","Fixation - short","","null","","","","","","","","","","","","",""
"","html-keyboard-response","384","633973","0.0-576.0","r35stz2p","1366","768","","","","","","","","","","","561","iei","Diagnostic trial","","j","9","2","false","false","RIGHT","j","1","","RIGHT","true","","",""
"","html-keyboard-response","385","634740","0.0-579.0","r35stz2p","1366","768","","","","","","","","","","","null","+","Fixation - short","","null","","","","","","","","","","","","",""
"","html-keyboard-response","386","635482","0.0-580.0","r35stz2p","1366","768","","","","","","","","","","","740","wrz","Diagnostic trial","","f","9","3","false","true","LEFT","f","1","","LEFT","true","","",""
"","html-keyboard-response","387","636242","0.0-583.0","r35stz2p","1366","768","","","","","","","","","","","null","+","Fixation - short","","null","","","","","","","","","","","","",""
"","html-keyboard-response","388","638259","0.0-584.0","r35stz2p","1366","768","","","","","","","","","","","null","wrz","Diagnostic trial","","null","9","4","false","false","RIGHT","j","NaN","","LEFT","false","","",""
"","call-function","389","638260","0.0-585.0-0.0","r35stz2p","","","","","","","","","","","","","","","","","","","","","","","","","","","","","",""
"","html-keyboard-response","390","638571","0.0-585.0-1.0","r35stz2p","1366","768","","","","","","","","","","","null","Slow","Feedback","","null","","","","","","","","","","","","",""
"","call-function","391","638573","0.0-585.0-2.0","r35stz2p","","","","","","","","","","","","","","","","","","","","","","","","","","","","","",""
"","html-keyboard-response","392","639326","0.0-587.0","r35stz2p","1366","768","","","","","","","","","","","null","+","Fixation - short","","null","","","","","","","","","","","","",""
"","html-keyboard-response","393","640175","0.0-588.0","r35stz2p","1366","768","","","","","","","","","","","847","wrz","Inducer trial","","j","9","","true","","","f","0","LEFT","","","","",""
"","call-function","394","640177","0.0-590.0-0.0","r35stz2p","","","","","","","","","","","","","","","","","","","","","","","","","","","","","",""
"","html-keyboard-response","395","640488","0.0-590.0-1.0","r35stz2p","1366","768","","","","","","","","","","","null","Wrong","Feedback","","null","","","","","","","","","","","","",""
"","call-function","396","640488","0.0-590.0-2.0","r35stz2p","","","","","","","","","","","","","","","","","","","","","","","","","","","","","",""
"","html-keyboard-response","397","641991","0.0-591.0","r35stz2p","1366","768","","","","","","","","","","","null","+","Fixation - long","","null","","","","","","","","","","","","",""
"","html-keyboard-response","398","644319","0.0-592.0","r35stz2p","1366","768","","","","","","","","","","","2325","If saj press LEFT | If jup press RIGHT","Inducer instructions",""," ","10","","","","","","","","","","","",""
"","html-keyboard-response","399","645074","0.0-593.0","r35stz2p","1366","768","","","","","","","","","","","null","+","Fixation - short","","null","","","","","","","","","","","","",""
"","html-keyboard-response","400","645731","0.0-594.0","r35stz2p","1366","768","","","","","","","","","","","656","jup","Diagnostic trial","","f","10","0","false","true","LEFT","f","1","","RIGHT","false","","",""
"","html-keyboard-response","401","646490","0.0-597.0","r35stz2p","1366","768","","","","","","","","","","","null","+","Fixation - short","","null","","","","","","","","","","","","",""
"","html-keyboard-response","402","647480","0.0-598.0","r35stz2p","1366","768","","","","","","","","","","","988","jup","Diagnostic trial","","j","10","1","false","false","RIGHT","j","1","","RIGHT","true","","",""
"","html-keyboard-response","403","648241","0.0-601.0","r35stz2p","1366","768","","","","","","","","","","","null","+","Fixation - short","","null","","","","","","","","","","","","",""
"","html-keyboard-response","404","648773","0.0-602.0","r35stz2p","1366","768","","","","","","","","","","","530","jup","Diagnostic trial","","j","10","2","false","false","RIGHT","j","1","","RIGHT","true","","",""
"","html-keyboard-response","405","649539","0.0-605.0","r35stz2p","1366","768","","","","","","","","","","","null","+","Fixation - short","","null","","","","","","","","","","","","",""
"","html-keyboard-response","406","649967","0.0-606.0","r35stz2p","1366","768","","","","","","","","","","","426","jup","Diagnostic trial","","j","10","3","false","false","RIGHT","j","1","","RIGHT","true","","",""
"","html-keyboard-response","407","650723","0.0-609.0","r35stz2p","1366","768","","","","","","","","","","","null","+","Fixation - short","","null","","","","","","","","","","","","",""
"","html-keyboard-response","408","651419","0.0-610.0","r35stz2p","1366","768","","","","","","","","","","","694","saj","Diagnostic trial","","f","10","4","false","true","LEFT","f","1","","LEFT","true","","",""
"","html-keyboard-response","409","652174","0.0-613.0","r35stz2p","1366","768","","","","","","","","","","","null","+","Fixation - short","","null","","","","","","","","","","","","",""
"","html-keyboard-response","410","652622","0.0-614.0","r35stz2p","1366","768","","","","","","","","","","","446","saj","Diagnostic trial","","f","10","5","false","true","LEFT","f","1","","LEFT","true","","",""
"","html-keyboard-response","411","653390","0.0-617.0","r35stz2p","1366","768","","","","","","","","","","","null","+","Fixation - short","","null","","","","","","","","","","","","",""
"","html-keyboard-response","412","653902","0.0-618.0","r35stz2p","1366","768","","","","","","","","","","","510","jup","Diagnostic trial","","f","10","6","false","true","LEFT","f","1","","RIGHT","false","","",""
"","html-keyboard-response","413","654657","0.0-621.0","r35stz2p","1366","768","","","","","","","","","","","null","+","Fixation - short","","null","","","","","","","","","","","","",""
"","html-keyboard-response","414","655065","0.0-622.0","r35stz2p","1366","768","","","","","","","","","","","406","jup","Diagnostic trial","","f","10","7","false","true","LEFT","f","1","","RIGHT","false","","",""
"","html-keyboard-response","415","655824","0.0-625.0","r35stz2p","1366","768","","","","","","","","","","","null","+","Fixation - short","","null","","","","","","","","","","","","",""
"","html-keyboard-response","416","656303","0.0-626.0","r35stz2p","1366","768","","","","","","","","","","","477","saj","Diagnostic trial","","j","10","8","false","false","RIGHT","j","1","","LEFT","false","","",""
"","html-keyboard-response","417","657056","0.0-629.0","r35stz2p","1366","768","","","","","","","","","","","null","+","Fixation - short","","null","","","","","","","","","","","","",""
"","html-keyboard-response","418","657601","0.0-630.0","r35stz2p","1366","768","","","","","","","","","","","542","jup","Diagnostic trial","","f","10","9","false","false","RIGHT","j","0","","RIGHT","true","","",""
"","call-function","419","657602","0.0-632.0-0.0","r35stz2p","","","","","","","","","","","","","","","","","","","","","","","","","","","","","",""
"","html-keyboard-response","420","657906","0.0-632.0-1.0","r35stz2p","1366","768","","","","","","","","","","","null","Wrong","Feedback","","null","","","","","","","","","","","","",""
"","call-function","421","657908","0.0-632.0-2.0","r35stz2p","","","","","","","","","","","","","","","","","","","","","","","","","","","","","",""
"","html-keyboard-response","422","658674","0.0-633.0","r35stz2p","1366","768","","","","","","","","","","","null","+","Fixation - short","","null","","","","","","","","","","","","",""
"","html-keyboard-response","423","659173","0.0-634.0","r35stz2p","1366","768","","","","","","","","","","","497","saj","Diagnostic trial","","j","10","10","false","false","RIGHT","j","1","","LEFT","false","","",""
"","html-keyboard-response","424","659938","0.0-637.0","r35stz2p","1366","768","","","","","","","","","","","null","+","Fixation - short","","null","","","","","","","","","","","","",""
"","html-keyboard-response","425","660532","0.0-638.0","r35stz2p","1366","768","","","","","","","","","","","591","saj","Diagnostic trial","","f","10","11","false","true","LEFT","f","1","","LEFT","true","","",""
"","html-keyboard-response","426","661289","0.0-641.0","r35stz2p","1366","768","","","","","","","","","","","null","+","Fixation - short","","null","","","","","","","","","","","","",""
"","html-keyboard-response","427","661816","0.0-642.0","r35stz2p","1366","768","","","","","","","","","","","525","jup","Diagnostic trial","","f","10","12","false","true","LEFT","f","1","","RIGHT","false","","",""
"","html-keyboard-response","428","662574","0.0-645.0","r35stz2p","1366","768","","","","","","","","","","","null","+","Fixation - short","","null","","","","","","","","","","","","",""
"","html-keyboard-response","429","662938","0.0-646.0","r35stz2p","1366","768","","","","","","","","","","","363","jup","Diagnostic trial","","f","10","13","false","true","LEFT","f","1","","RIGHT","false","","",""
"","html-keyboard-response","430","663705","0.0-649.0","r35stz2p","1366","768","","","","","","","","","","","null","+","Fixation - short","","null","","","","","","","","","","","","",""
"","html-keyboard-response","431","664126","0.0-650.0","r35stz2p","1366","768","","","","","","","","","","","420","saj","Inducer trial","","j","10","","true","","","f","0","LEFT","","","","",""
"","call-function","432","664127","0.0-652.0-0.0","r35stz2p","","","","","","","","","","","","","","","","","","","","","","","","","","","","","",""
"","html-keyboard-response","433","664437","0.0-652.0-1.0","r35stz2p","1366","768","","","","","","","","","","","null","Wrong","Feedback","","null","","","","","","","","","","","","",""
"","call-function","434","664438","0.0-652.0-2.0","r35stz2p","","","","","","","","","","","","","","","","","","","","","","","","","","","","","",""
"","html-keyboard-response","435","665941","0.0-653.0","r35stz2p","1366","768","","","","","","","","","","","null","+","Fixation - long","","null","","","","","","","","","","","","",""
"","html-keyboard-response","436","670692","0.0-654.0","r35stz2p","1366","768","","","","","","","","","","","4749","If cpt press LEFT | If flh press RIGHT","Inducer instructions",""," ","11","","","","","","","","","","","",""
"","html-keyboard-response","437","671454","0.0-655.0","r35stz2p","1366","768","","","","","","","","","","","null","+","Fixation - short","","null","","","","","","","","","","","","",""
"","html-keyboard-response","438","672380","0.0-656.0","r35stz2p","1366","768","","","","","","","","","","","924","flh","Diagnostic trial","","f","11","0","false","true","LEFT","f","1","","RIGHT","false","","",""
"","html-keyboard-response","439","673139","0.0-659.0","r35stz2p","1366","768","","","","","","","","","","","null","+","Fixation - short","","null","","","","","","","","","","","","",""
"","html-keyboard-response","440","673757","0.0-660.0","r35stz2p","1366","768","","","","","","","","","","","616","cpt","Diagnostic trial","","f","11","1","false","true","LEFT","f","1","","LEFT","true","","",""
"","html-keyboard-response","441","674521","0.0-663.0","r35stz2p","1366","768","","","","","","","","","","","null","+","Fixation - short","","null","","","","","","","","","","","","",""
"","html-keyboard-response","442","674886","0.0-664.0","r35stz2p","1366","768","","","","","","","","","","","363","flh","Diagnostic trial","","f","11","2","false","true","LEFT","f","1","","RIGHT","false","","",""
"","html-keyboard-response","443","675655","0.0-667.0","r35stz2p","1366","768","","","","","","","","","","","null","+","Fixation - short","","null","","","","","","","","","","","","",""
"","html-keyboard-response","444","676016","0.0-668.0","r35stz2p","1366","768","","","","","","","","","","","359","flh","Diagnostic trial","","f","11","3","false","true","LEFT","f","1","","RIGHT","false","","",""
"","html-keyboard-response","445","676772","0.0-671.0","r35stz2p","1366","768","","","","","","","","","","","null","+","Fixation - short","","null","","","","","","","","","","","","",""
"","html-keyboard-response","446","677098","0.0-672.0","r35stz2p","1366","768","","","","","","","","","","","324","flh","Diagnostic trial","","j","11","4","false","false","RIGHT","j","1","","RIGHT","true","","",""
"","html-keyboard-response","447","677856","0.0-675.0","r35stz2p","1366","768","","","","","","","","","","","null","+","Fixation - short","","null","","","","","","","","","","","","",""
"","html-keyboard-response","448","678233","0.0-676.0","r35stz2p","1366","768","","","","","","","","","","","375","cpt","Diagnostic trial","","j","11","5","false","true","LEFT","f","0","","LEFT","true","","",""
"","call-function","449","678234","0.0-678.0-0.0","r35stz2p","","","","","","","","","","","","","","","","","","","","","","","","","","","","","",""
"","html-keyboard-response","450","678538","0.0-678.0-1.0","r35stz2p","1366","768","","","","","","","","","","","null","Wrong","Feedback","","null","","","","","","","","","","","","",""
"","call-function","451","678539","0.0-678.0-2.0","r35stz2p","","","","","","","","","","","","","","","","","","","","","","","","","","","","","",""
"","html-keyboard-response","452","679291","0.0-679.0","r35stz2p","1366","768","","","","","","","","","","","null","+","Fixation - short","","null","","","","","","","","","","","","",""
"","html-keyboard-response","453","679850","0.0-680.0","r35stz2p","1366","768","","","","","","","","","","","557","flh","Diagnostic trial","","f","11","6","false","true","LEFT","f","1","","RIGHT","false","","",""
"","html-keyboard-response","454","680606","0.0-683.0","r35stz2p","1366","768","","","","","","","","","","","null","+","Fixation - short","","null","","","","","","","","","","","","",""
"","html-keyboard-response","455","680968","0.0-684.0","r35stz2p","1366","768","","","","","","","","","","","360","flh","Diagnostic trial","","f","11","7","false","false","RIGHT","j","0","","RIGHT","true","","",""
"","call-function","456","680969","0.0-686.0-0.0","r35stz2p","","","","","","","","","","","","","","","","","","","","","","","","","","","","","",""
"","html-keyboard-response","457","681286","0.0-686.0-1.0","r35stz2p","1366","768","","","","","","","","","","","null","Wrong","Feedback","","null","","","","","","","","","","","","",""
"","call-function","458","681287","0.0-686.0-2.0","r35stz2p","","","","","","","","","","","","","","","","","","","","","","","","","","","","","",""
"","html-keyboard-response","459","682040","0.0-687.0","r35stz2p","1366","768","","","","","","","","","","","null","+","Fixation - short","","null","","","","","","","","","","","","",""
"","html-keyboard-response","460","682452","0.0-688.0","r35stz2p","1366","768","","","","","","","","","","","410","cpt","Inducer trial","","j","11","","true","","","f","0","LEFT","","","","",""
"","call-function","461","682453","0.0-690.0-0.0","r35stz2p","","","","","","","","","","","","","","","","","","","","","","","","","","","","","",""
"","html-keyboard-response","462","682768","0.0-690.0-1.0","r35stz2p","1366","768","","","","","","","","","","","null","Wrong","Feedback","","null","","","","","","","","","","","","",""
"","call-function","463","682769","0.0-690.0-2.0","r35stz2p","","","","","","","","","","","","","","","","","","","","","","","","","","","","","",""
"","html-keyboard-response","464","684274","0.0-691.0","r35stz2p","1366","768","","","","","","","","","","","null","+","Fixation - long","","null","","","","","","","","","","","","",""
"","html-keyboard-response","465","690579","0.0-692.0","r35stz2p","1366","768","","","","","","","","","","","6303","If goj press LEFT | If yoy press RIGHT","Inducer instructions",""," ","12","","","","","","","","","","","",""
"","html-keyboard-response","466","691338","0.0-693.0","r35stz2p","1366","768","","","","","","","","","","","null","+","Fixation - short","","null","","","","","","","","","","","","",""
"","html-keyboard-response","467","691938","0.0-694.0","r35stz2p","1366","768","","","","","","","","","","","598","yoy","Diagnostic trial","","f","12","0","false","false","RIGHT","j","0","","RIGHT","true","","",""
"","call-function","468","691939","0.0-696.0-0.0","r35stz2p","","","","","","","","","","","","","","","","","","","","","","","","","","","","","",""
"","html-keyboard-response","469","692252","0.0-696.0-1.0","r35stz2p","1366","768","","","","","","","","","","","null","Wrong","Feedback","","null","","","","","","","","","","","","",""
"","call-function","470","692253","0.0-696.0-2.0","r35stz2p","","","","","","","","","","","","","","","","","","","","","","","","","","","","","",""
"","html-keyboard-response","471","693021","0.0-697.0","r35stz2p","1366","768","","","","","","","","","","","null","+","Fixation - short","","null","","","","","","","","","","","","",""
"","html-keyboard-response","472","693770","0.0-698.0","r35stz2p","1366","768","","","","","","","","","","","748","goj","Diagnostic trial","","j","12","1","false","false","RIGHT","j","1","","LEFT","false","","",""
"","html-keyboard-response","473","694528","0.0-701.0","r35stz2p","1366","768","","","","","","","","","","","null","+","Fixation - short","","null","","","","","","","","","","","","",""
"","html-keyboard-response","474","695127","0.0-702.0","r35stz2p","1366","768","","","","","","","","","","","597","yoy","Diagnostic trial","","f","12","2","false","true","LEFT","f","1","","RIGHT","false","","",""
"","html-keyboard-response","475","695887","0.0-705.0","r35stz2p","1366","768","","","","","","","","","","","null","+","Fixation - short","","null","","","","","","","","","","","","",""
"","html-keyboard-response","476","696296","0.0-706.0","r35stz2p","1366","768","","","","","","","","","","","407","goj","Diagnostic trial","","f","12","3","false","true","LEFT","f","1","","LEFT","true","","",""
"","html-keyboard-response","477","697055","0.0-709.0","r35stz2p","1366","768","","","","","","","","","","","null","+","Fixation - short","","null","","","","","","","","","","","","",""
"","html-keyboard-response","478","697724","0.0-710.0","r35stz2p","1366","768","","","","","","","","","","","667","goj","Diagnostic trial","","j","12","4","false","false","RIGHT","j","1","","LEFT","false","","",""
"","html-keyboard-response","479","698487","0.0-713.0","r35stz2p","1366","768","","","","","","","","","","","null","+","Fixation - short","","null","","","","","","","","","","","","",""
"","html-keyboard-response","480","698977","0.0-714.0","r35stz2p","1366","768","","","","","","","","","","","488","goj","Diagnostic trial","","j","12","5","false","false","RIGHT","j","1","","LEFT","false","","",""
"","html-keyboard-response","481","699738","0.0-717.0","r35stz2p","1366","768","","","","","","","","","","","null","+","Fixation - short","","null","","","","","","","","","","","","",""
"","html-keyboard-response","482","700265","0.0-718.0","r35stz2p","1366","768","","","","","","","","","","","525","goj","Diagnostic trial","","f","12","6","false","true","LEFT","f","1","","LEFT","true","","",""
"","html-keyboard-response","483","701022","0.0-721.0","r35stz2p","1366","768","","","","","","","","","","","null","+","Fixation - short","","null","","","","","","","","","","","","",""
"","html-keyboard-response","484","701603","0.0-722.0","r35stz2p","1366","768","","","","","","","","","","","579","yoy","Diagnostic trial","","f","12","7","false","true","LEFT","f","1","","RIGHT","false","","",""
"","html-keyboard-response","485","702370","0.0-725.0","r35stz2p","1366","768","","","","","","","","","","","null","+","Fixation - short","","null","","","","","","","","","","","","",""
"","html-keyboard-response","486","702956","0.0-726.0","r35stz2p","1366","768","","","","","","","","","","","584","goj","Inducer trial","","j","12","","true","","","f","0","LEFT","","","","",""
"","call-function","487","702957","0.0-728.0-0.0","r35stz2p","","","","","","","","","","","","","","","","","","","","","","","","","","","","","",""
"","html-keyboard-response","488","703268","0.0-728.0-1.0","r35stz2p","1366","768","","","","","","","","","","","null","Wrong","Feedback","","null","","","","","","","","","","","","",""
"","call-function","489","703270","0.0-728.0-2.0","r35stz2p","","","","","","","","","","","","","","","","","","","","","","","","","","","","","",""
"","html-keyboard-response","490","704787","0.0-729.0","r35stz2p","1366","768","","","","","","","","","","","null","+","Fixation - long","","null","","","","","","","","","","","","",""
"","html-keyboard-response","491","709463","0.0-730.0","r35stz2p","1366","768","","","","","","","","","","","4673","If ume press LEFT | If efg press RIGHT","Inducer instructions",""," ","13","","","","","","","","","","","",""
"","html-keyboard-response","492","710223","0.0-731.0","r35stz2p","1366","768","","","","","","","","","","","null","+","Fixation - short","","null","","","","","","","","","","","","",""
"","html-keyboard-response","493","710745","0.0-732.0","r35stz2p","1366","768","","","","","","","","","","","520","ume","Diagnostic trial","","j","13","0","false","true","LEFT","f","0","","LEFT","true","","",""
"","call-function","494","710746","0.0-734.0-0.0","r35stz2p","","","","","","","","","","","","","","","","","","","","","","","","","","","","","",""
"","html-keyboard-response","495","711052","0.0-734.0-1.0","r35stz2p","1366","768","","","","","","","","","","","null","Wrong","Feedback","","null","","","","","","","","","","","","",""
"","call-function","496","711053","0.0-734.0-2.0","r35stz2p","","","","","","","","","","","","","","","","","","","","","","","","","","","","","",""
"","html-keyboard-response","497","711820","0.0-735.0","r35stz2p","1366","768","","","","","","","","","","","null","+","Fixation - short","","null","","","","","","","","","","","","",""
"","html-keyboard-response","498","712298","0.0-736.0","r35stz2p","1366","768","","","","","","","","","","","476","efg","Diagnostic trial","","j","13","1","false","true","LEFT","f","0","","RIGHT","false","","",""
"","call-function","499","712299","0.0-738.0-0.0","r35stz2p","","","","","","","","","","","","","","","","","","","","","","","","","","","","","",""
"","html-keyboard-response","500","712603","0.0-738.0-1.0","r35stz2p","1366","768","","","","","","","","","","","null","Wrong","Feedback","","null","","","","","","","","","","","","",""
"","call-function","501","712604","0.0-738.0-2.0","r35stz2p","","","","","","","","","","","","","","","","","","","","","","","","","","","","","",""
"","html-keyboard-response","502","713370","0.0-739.0","r35stz2p","1366","768","","","","","","","","","","","null","+","Fixation - short","","null","","","","","","","","","","","","",""
"","html-keyboard-response","503","713871","0.0-740.0","r35stz2p","1366","768","","","","","","","","","","","498","ume","Diagnostic trial","","f","13","2","false","true","LEFT","f","1","","LEFT","true","","",""
"","html-keyboard-response","504","714635","0.0-743.0","r35stz2p","1366","768","","","","","","","","","","","null","+","Fixation - short","","null","","","","","","","","","","","","",""
"","html-keyboard-response","505","715319","0.0-744.0","r35stz2p","1366","768","","","","","","","","","","","681","ume","Diagnostic trial","","j","13","3","false","false","RIGHT","j","1","","LEFT","false","","",""
"","html-keyboard-response","506","716085","0.0-747.0","r35stz2p","1366","768","","","","","","","","","","","null","+","Fixation - short","","null","","","","","","","","","","","","",""
"","html-keyboard-response","507","716651","0.0-748.0","r35stz2p","1366","768","","","","","","","","","","","564","ume","Diagnostic trial","","j","13","4","false","false","RIGHT","j","1","","LEFT","false","","",""
"","html-keyboard-response","508","717419","0.0-751.0","r35stz2p","1366","768","","","","","","","","","","","null","+","Fixation - short","","null","","","","","","","","","","","","",""
"","html-keyboard-response","509","718089","0.0-752.0","r35stz2p","1366","768","","","","","","","","","","","668","efg","Diagnostic trial","","j","13","5","false","false","RIGHT","j","1","","RIGHT","true","","",""
"","html-keyboard-response","510","718853","0.0-755.0","r35stz2p","1366","768","","","","","","","","","","","null","+","Fixation - short","","null","","","","","","","","","","","","",""
"","html-keyboard-response","511","719258","0.0-756.0","r35stz2p","1366","768","","","","","","","","","","","402","efg","Diagnostic trial","","f","13","6","false","true","LEFT","f","1","","RIGHT","false","","",""
"","html-keyboard-response","512","720019","0.0-759.0","r35stz2p","1366","768","","","","","","","","","","","null","+","Fixation - short","","null","","","","","","","","","","","","",""
"","html-keyboard-response","513","720597","0.0-760.0","r35stz2p","1366","768","","","","","","","","","","","576","efg","Diagnostic trial","","f","13","7","false","true","LEFT","f","1","","RIGHT","false","","",""
"","html-keyboard-response","514","721353","0.0-763.0","r35stz2p","1366","768","","","","","","","","","","","null","+","Fixation - short","","null","","","","","","","","","","","","",""
