subject	blocknum	blocktype	preDT	trialnum	trialtype	congruency	response	correct	latency	stimulusnumber1	Mcorrect	RelTrial	RunType
1	12	2	0	4	0	0	47	1	1027	1	1	1	0
1	12	2	0	5	0	0	47	1	605	1	1	1	0
1	12	2	0	6	0	0	49	1	576	1	1	1	0
1	12	2	0	7	0	0	47	1	740	1	1	1	0
1	12	2	0	8	0	1	49	1	677	1	1	1	0
1	12	2	0	9	0	1	49	1	494	1	1	1	0
1	12	2	0	10	0	1	47	1	614	1	1	1	0
1	12	2	0	11	0	1	47	1	772	1	1	1	0
1	12	2	0	12	0	0	49	1	613	1	1	1	0
1	12	2	0	13	0	1	47	1	1107	1	1	1	0
1	12	2	0	14	0	1	49	1	666	1	1	1	0
1	12	2	0	15	0	0	49	1	780	1	1	1	0
1	12	2	0	16	1	666	47	1	789	1	1	0	0
1	18	2	0	4	0	1	47	1	936	1	1	1	0
1	18	2	0	5	0	0	49	1	718	1	1	1	0
1	18	2	0	6	0	0	47	1	1115	1	1	1	0
1	18	2	0	7	0	1	49	1	506	1	1	1	0
1	18	2	0	8	0	1	49	1	549	1	1	1	0
1	18	2	0	9	0	0	49	0	420	1	1	1	0
1	18	2	0	11	0	1	47	1	596	1	1	1	0
1	18	2	0	12	0	1	47	1	652	1	1	1	0
1	18	2	0	13	0	1	49	1	411	1	1	1	0
1	18	2	0	14	0	0	49	1	753	1	1	1	0
1	18	2	0	15	0	0	47	1	444	1	1	1	0
1	18	2	0	16	0	0	49	1	811	1	1	1	0
1	18	2	0	17	1	666	47	1	869	1	1	0	0
1	25	2	0	4	0	0	49	1	701	1	1	1	0
1	25	2	0	5	0	1	49	1	988	1	1	1	0
1	25	2	0	6	0	0	47	1	598	1	1	1	0
1	25	2	0	7	0	0	47	1	789	1	1	1	0
1	25	2	0	8	0	1	47	1	1330	1	1	1	0
1	25	2	0	9	0	1	49	1	820	1	1	1	0
1	25	2	0	10	0	1	49	1	718	1	1	1	0
1	25	2	0	11	0	1	47	1	652	1	1	1	0
1	25	2	0	12	0	1	47	1	571	1	1	1	0
1	25	2	0	13	0	0	47	1	748	1	1	1	0
1	25	2	0	14	0	0	49	1	544	1	1	1	0
1	25	2	0	15	0	0	49	1	595	1	1	1	0
1	25	2	0	16	1	666	49	1	1267	1	1	0	0
1	34	2	0	4	0	1	47	1	778	1	1	1	0
1	34	2	0	5	0	0	49	1	828	1	1	1	0
1	34	2	0	6	0	1	49	1	609	1	1	1	0
1	34	2	0	7	0	0	49	1	580	1	1	1	0
1	34	2	0	8	0	0	47	1	657	1	1	1	0
1	34	2	0	9	0	0	49	1	527	1	1	1	0
1	34	2	0	10	0	1	49	1	552	1	1	1	0
1	34	2	0	11	0	0	47	1	631	1	1	1	0
1	34	2	0	12	0	1	49	1	759	1	1	1	0
1	34	2	0	13	0	1	47	1	686	1	1	1	0
1	34	2	0	14	0	1	47	1	610	1	1	1	0
1	34	2	0	15	0	0	47	1	629	1	1	1	0
1	34	2	0	16	1	666	47	1	1326	1	1	0	0
1	40	2	0	4	0	1	47	1	740	1	1	1	0
1	40	2	0	5	0	1	49	1	501	1	1	1	0
1	40	2	0	6	0	1	49	1	552	1	1	1	0
1	40	2	0	7	0	0	49	1	534	1	1	1	0
1	40	2	0	8	0	1	47	1	786	1	1	1	0
1	40	2	0	9	0	0	47	1	831	1	1	1	0
1	40	2	0	10	0	0	49	1	500	1	1	1	0
1	40	2	0	11	0	1	49	1	599	1	1	1	0
1	40	2	0	12	0	0	47	1	455	1	1	1	0
1	40	2	0	13	0	0	49	1	557	1	1	1	0
1	40	2	0	14	0	1	47	1	596	1	1	1	0
1	40	2	0	15	0	0	47	1	732	1	1	1	0
1	40	2	0	16	1	666	49	1	708	1	1	0	0
1	47	2	0	4	0	0	47	1	852	1	1	1	0
1	47	2	0	5	0	1	49	1	567	1	1	1	0
1	47	2	0	6	0	0	47	1	593	1	1	1	0
1	47	2	0	7	0	1	49	0	1417	1	1	1	0
1	47	2	0	9	0	1	49	1	772	1	1	1	0
1	47	2	0	10	0	1	47	1	798	1	1	1	0
1	47	2	0	11	0	1	47	1	837	1	1	1	0
1	47	2	0	12	0	0	49	1	694	1	1	1	0
1	47	2	0	13	0	0	47	1	557	1	1	1	0
1	47	2	0	14	0	1	49	1	476	1	1	1	0
1	47	2	0	15	0	0	49	1	481	1	1	1	0
1	47	2	0	16	0	0	49	1	502	1	1	1	0
1	47	2	0	17	1	666	47	1	1040	1	1	0	0
1	56	2	0	4	0	1	49	1	517	1	1	1	0
1	56	2	0	5	0	1	49	1	667	1	1	1	0
1	56	2	0	6	0	0	47	1	469	1	1	1	0
1	56	2	0	7	0	0	49	1	623	1	1	1	0
1	56	2	0	8	0	1	47	1	644	1	1	1	0
1	56	2	0	9	0	1	47	1	608	1	1	1	0
1	56	2	0	10	0	0	49	1	539	1	1	1	0
1	56	2	0	11	0	1	49	1	590	1	1	1	0
1	56	2	0	12	0	0	47	1	638	1	1	1	0
1	56	2	0	13	0	1	47	1	639	1	1	1	0
1	56	2	0	14	0	0	47	1	794	1	1	1	0
1	56	2	0	15	0	0	49	1	434	1	1	1	0
1	56	2	0	16	1	666	47	1	582	1	1	0	0
1	10	0	0	3	1	666	49	1	746	1	1	0	1
1	21	0	0	3	1	666	47	1	874	1	1	0	1
1	27	0	0	3	1	666	47	0	894	1	0	0	1
1	35	0	0	3	1	666	47	1	833	1	1	0	1
1	37	0	0	3	1	666	47	1	580	1	1	0	1
1	46	0	0	3	1	666	49	1	1092	1	1	0	1
1	54	0	0	3	1	666	47	1	909	1	1	0	1
1	9	1	0	5	0	1	47	1	997	1	1	1	2
1	9	1	0	6	0	0	47	1	809	1	1	1	2
1	9	1	0	7	0	1	49	1	787	1	1	1	2
1	9	1	0	8	0	1	49	1	992	1	1	1	2
1	9	1	0	9	0	0	49	1	716	1	1	1	2
1	9	1	0	10	0	1	47	1	498	1	1	1	2
1	9	1	0	11	0	0	49	1	917	1	1	1	2
1	9	1	0	12	0	1	49	1	487	1	1	1	2
1	9	1	0	13	0	0	49	1	447	1	1	1	2
1	9	1	0	14	0	1	47	1	509	1	1	1	2
1	9	1	0	15	0	0	47	1	675	1	1	1	2
1	9	1	0	16	0	0	47	1	677	1	1	1	2
1	9	1	0	17	1	666	47	1	887	1	1	0	2
1	16	1	0	5	0	0	47	1	717	1	1	1	2
1	16	1	0	6	0	0	49	1	851	1	1	1	2
1	16	1	0	7	0	1	47	1	630	1	1	1	2
1	16	1	0	8	0	0	49	1	527	1	1	1	2
1	16	1	0	9	0	0	47	1	503	1	1	1	2
1	16	1	0	10	0	0	49	1	730	1	1	1	2
1	16	1	0	11	0	1	49	1	963	1	1	1	2
1	16	1	0	12	0	0	47	1	902	1	1	1	2
1	16	1	0	13	0	1	49	1	629	1	1	1	2
1	16	1	0	14	0	1	49	1	494	1	1	1	2
1	16	1	0	15	0	1	47	1	590	1	1	1	2
1	16	1	0	16	0	1	47	1	766	1	1	1	2
1	16	1	0	17	1	666	47	1	1388	1	1	0	2
1	24	1	0	5	0	1	47	1	1230	1	1	1	2
1	24	1	0	6	0	1	47	1	752	1	1	1	2
1	24	1	0	7	0	0	49	1	731	1	1	1	2
1	24	1	0	8	0	1	49	1	948	1	1	1	2
1	24	1	0	9	0	0	47	1	596	1	1	1	2
1	24	1	0	10	0	1	47	1	564	1	1	1	2
1	24	1	0	11	0	1	49	1	885	1	1	1	2
1	24	1	0	12	0	0	47	1	890	1	1	1	2
1	24	1	0	13	0	1	49	1	534	1	1	1	2
1	24	1	0	14	0	0	49	1	610	1	1	1	2
1	24	1	0	15	0	0	47	1	725	1	1	1	2
1	24	1	0	16	0	0	49	1	562	1	1	1	2
1	24	1	0	17	1	666	49	1	1084	1	1	0	2
1	32	1	0	5	0	0	49	1	665	1	1	1	2
1	32	1	0	6	0	0	47	1	427	1	1	1	2
1	32	1	0	7	0	1	49	1	636	1	1	1	2
1	32	1	0	8	0	1	49	1	604	1	1	1	2
1	32	1	0	9	0	1	47	1	927	1	1	1	2
1	32	1	0	10	0	1	47	1	692	1	1	1	2
1	32	1	0	11	0	0	49	1	460	1	1	1	2
1	32	1	0	12	0	0	49	1	886	1	1	1	2
1	32	1	0	13	0	0	47	1	858	1	1	1	2
1	32	1	0	14	0	1	49	1	526	1	1	1	2
1	32	1	0	15	0	1	47	1	479	1	1	1	2
1	32	1	0	16	0	0	47	1	539	1	1	1	2
1	32	1	0	17	1	666	49	1	1263	1	1	0	2
1	38	1	0	5	0	1	47	1	1089	1	0	1	2
1	38	1	0	6	0	0	49	1	506	1	0	1	2
1	38	1	0	7	0	0	47	1	573	1	0	1	2
1	38	1	0	8	0	0	47	1	582	1	0	1	2
1	38	1	0	9	0	0	49	1	515	1	0	1	2
1	38	1	0	10	0	1	47	1	633	1	0	1	2
1	38	1	0	11	0	1	49	1	449	1	0	1	2
1	38	1	0	12	0	1	47	1	640	1	0	1	2
1	38	1	0	13	0	0	49	1	436	1	0	1	2
1	38	1	0	14	0	1	49	1	528	1	0	1	2
1	38	1	0	15	0	0	47	1	513	1	0	1	2
1	38	1	0	16	0	1	49	1	502	1	0	1	2
1	38	1	0	17	1	666	47	0	1457	1	0	0	2
1	45	1	0	5	0	1	47	1	870	1	1	1	2
1	45	1	0	6	0	1	49	1	628	1	1	1	2
1	45	1	0	7	0	1	47	1	709	1	1	1	2
1	45	1	0	8	0	0	49	1	760	1	1	1	2
1	45	1	0	9	0	1	49	1	622	1	1	1	2
1	45	1	0	10	0	1	49	1	524	1	1	1	2
1	45	1	0	11	0	0	47	1	517	1	1	1	2
1	45	1	0	12	0	1	47	1	658	1	1	1	2
1	45	1	0	13	0	0	49	1	577	1	1	1	2
1	45	1	0	14	0	0	47	1	502	1	1	1	2
1	45	1	0	15	0	0	47	1	513	1	1	1	2
1	45	1	0	16	0	0	49	1	734	1	1	1	2
1	45	1	0	17	1	666	47	1	1119	1	1	0	2
1	55	1	0	5	0	1	49	0	912	1	1	1	2
1	55	1	0	7	0	1	47	1	634	1	1	1	2
1	55	1	0	8	0	1	49	1	539	1	1	1	2
1	55	1	0	9	0	0	49	1	599	1	1	1	2
1	55	1	0	10	0	1	49	1	470	1	1	1	2
1	55	1	0	11	0	0	47	1	571	1	1	1	2
1	55	1	0	12	0	0	49	1	645	1	1	1	2
1	55	1	0	13	0	1	47	1	769	1	1	1	2
1	55	1	0	14	0	1	49	1	650	1	1	1	2
1	55	1	0	15	0	0	47	1	598	1	1	1	2
1	55	1	0	16	0	0	49	1	509	1	1	1	2
1	55	1	0	17	0	0	47	1	619	1	1	1	2
1	55	1	0	18	1	666	49	1	913	1	1	0	2
1	13	2	4	3	0	1	49	1	826	1	1	0	0
1	13	2	4	4	0	1	47	1	951	1	1	0	0
1	13	2	4	5	0	0	47	1	587	1	1	0	0
1	13	2	4	6	0	0	49	1	458	1	1	0	0
1	13	2	4	8	0	1	47	1	1025	1	1	1	0
1	13	2	4	9	0	0	49	1	907	1	1	1	0
1	13	2	4	10	0	1	47	1	1034	1	1	1	0
1	13	2	4	11	0	1	49	1	568	1	1	1	0
1	13	2	4	12	0	0	49	1	505	1	1	1	0
1	13	2	4	13	0	0	49	1	540	1	1	1	0
1	13	2	4	14	0	0	47	1	744	1	1	1	0
1	13	2	4	15	0	1	49	1	563	1	1	1	0
1	13	2	4	16	0	0	47	1	1637	1	1	1	0
1	13	2	4	17	0	1	47	1	604	1	1	1	0
1	13	2	4	18	0	1	49	1	798	1	1	1	0
1	13	2	4	19	0	0	47	1	1166	1	1	1	0
1	13	2	4	20	1	666	49	1	777	1	1	0	0
1	19	2	4	3	0	0	47	1	847	1	0	0	0
1	19	2	4	4	0	1	47	1	874	1	0	0	0
1	19	2	4	5	0	1	49	1	475	1	0	0	0
1	19	2	4	6	0	0	49	1	440	1	0	0	0
1	19	2	4	8	0	1	47	1	786	1	0	1	0
1	19	2	4	9	0	1	49	1	647	1	0	1	0
1	19	2	4	10	0	1	49	1	538	1	0	1	0
1	19	2	4	11	0	1	47	1	1078	1	0	1	0
1	19	2	4	12	0	0	49	1	860	1	0	1	0
1	19	2	4	13	0	0	47	1	1067	1	0	1	0
1	19	2	4	14	0	0	49	1	702	1	0	1	0
1	19	2	4	15	0	0	49	1	534	1	0	1	0
1	19	2	4	16	0	0	47	1	494	1	0	1	0
1	19	2	4	17	0	1	49	1	510	1	0	1	0
1	19	2	4	18	0	1	47	1	620	1	0	1	0
1	19	2	4	19	0	0	47	1	618	1	0	1	0
1	19	2	4	20	1	666	49	0	1447	1	0	0	0
1	23	2	4	3	0	0	47	1	984	1	1	0	0
1	23	2	4	4	0	0	49	1	666	1	1	0	0
1	23	2	4	5	0	1	47	1	971	1	1	0	0
1	23	2	4	6	0	1	49	1	410	1	1	0	0
1	23	2	4	8	0	0	49	1	751	1	1	1	0
1	23	2	4	9	0	0	49	1	562	1	1	1	0
1	23	2	4	10	0	1	47	1	724	1	1	1	0
1	23	2	4	11	0	0	47	1	713	1	1	1	0
1	23	2	4	12	0	1	49	1	524	1	1	1	0
1	23	2	4	13	0	0	47	1	717	1	1	1	0
1	23	2	4	14	0	0	47	1	554	1	1	1	0
1	23	2	4	15	0	1	49	1	521	1	1	1	0
1	23	2	4	16	0	1	49	1	706	1	1	1	0
1	23	2	4	17	0	1	47	1	532	1	1	1	0
1	23	2	4	18	0	1	47	1	589	1	1	1	0
1	23	2	4	19	0	0	49	1	621	1	1	1	0
1	23	2	4	20	1	666	47	1	938	1	1	0	0
1	33	2	4	3	0	0	49	0	715	1	0	0	0
1	33	2	4	5	0	1	47	1	517	1	0	0	0
1	33	2	4	6	0	1	49	1	707	1	0	0	0
1	33	2	4	7	0	0	49	1	493	1	0	0	0
1	33	2	4	9	0	0	49	1	807	1	0	1	0
1	33	2	4	10	0	1	49	1	582	1	0	1	0
1	33	2	4	11	0	1	49	1	539	1	0	1	0
1	33	2	4	12	0	0	47	1	679	1	0	1	0
1	33	2	4	13	0	1	47	1	1043	1	0	1	0
1	33	2	4	14	0	1	47	1	500	1	0	1	0
1	33	2	4	15	0	0	47	1	558	1	0	1	0
1	33	2	4	16	0	1	49	1	589	1	0	1	0
1	33	2	4	17	0	0	49	1	589	1	0	1	0
1	33	2	4	18	0	0	47	1	452	1	0	1	0
1	33	2	4	19	0	1	47	1	547	1	0	1	0
1	33	2	4	20	0	0	47	0	458	1	0	1	0
1	33	2	4	22	1	666	47	0	812	1	0	0	0
1	41	2	4	3	0	0	49	1	539	1	1	0	0
1	41	2	4	4	0	1	49	1	535	1	1	0	0
1	41	2	4	5	0	1	47	1	554	1	1	0	0
1	41	2	4	6	0	0	47	1	649	1	1	0	0
1	41	2	4	8	0	0	47	1	558	1	1	1	0
1	41	2	4	9	0	0	47	1	589	1	1	1	0
1	41	2	4	10	0	0	49	1	420	1	1	1	0
1	41	2	4	11	0	1	49	1	533	1	1	1	0
1	41	2	4	12	0	0	49	1	446	1	1	1	0
1	41	2	4	13	0	0	47	1	525	1	1	1	0
1	41	2	4	14	0	1	49	1	958	1	1	1	0
1	41	2	4	15	0	1	47	1	577	1	1	1	0
1	41	2	4	16	0	1	47	1	526	1	1	1	0
1	41	2	4	17	0	0	49	1	526	1	1	1	0
1	41	2	4	18	0	1	47	1	511	1	1	1	0
1	41	2	4	19	0	1	49	1	541	1	1	1	0
1	41	2	4	20	1	666	49	1	1657	1	1	0	0
1	48	2	4	3	0	0	49	0	787	1	1	0	0
1	48	2	4	5	0	0	49	1	743	1	1	0	0
1	48	2	4	6	0	1	47	1	683	1	1	0	0
1	48	2	4	7	0	1	49	1	503	1	1	0	0
1	48	2	4	9	0	1	49	1	564	1	1	1	0
1	48	2	4	10	0	0	49	1	597	1	1	1	0
1	48	2	4	11	0	1	49	1	477	1	1	1	0
1	48	2	4	12	0	0	47	1	586	1	1	1	0
1	48	2	4	13	0	1	49	1	826	1	1	1	0
1	48	2	4	14	0	0	49	1	519	1	1	1	0
1	48	2	4	15	0	0	47	1	597	1	1	1	0
1	48	2	4	16	0	1	47	1	685	1	1	1	0
1	48	2	4	17	0	1	47	1	537	1	1	1	0
1	48	2	4	18	0	1	47	1	453	1	1	1	0
1	48	2	4	19	0	0	47	1	580	1	1	1	0
1	48	2	4	20	0	0	49	1	592	1	1	1	0
1	48	2	4	21	1	666	47	1	728	1	1	0	0
1	52	2	4	3	0	1	47	1	893	1	0	0	0
1	52	2	4	4	0	0	49	1	658	1	0	0	0
1	52	2	4	5	0	1	49	1	544	1	0	0	0
1	52	2	4	6	0	0	47	1	476	1	0	0	0
1	52	2	4	8	0	0	47	1	960	1	0	1	0
1	52	2	4	9	0	0	47	1	531	1	0	1	0
1	52	2	4	10	0	1	49	1	476	1	0	1	0
1	52	2	4	11	0	1	47	1	497	1	0	1	0
1	52	2	4	12	0	1	47	1	492	1	0	1	0
1	52	2	4	13	0	0	49	1	588	1	0	1	0
1	52	2	4	14	0	1	49	1	619	1	0	1	0
1	52	2	4	15	0	1	49	1	465	1	0	1	0
1	52	2	4	16	0	0	47	1	747	1	0	1	0
1	52	2	4	17	0	0	49	1	534	1	0	1	0
1	52	2	4	18	0	1	47	1	554	1	0	1	0
1	52	2	4	19	0	0	49	1	617	1	0	1	0
1	52	2	4	20	1	666	47	0	1350	1	0	0	0
1	14	0	4	3	0	1	47	1	927	1	1	0	1
1	14	0	4	4	0	1	49	1	588	1	1	0	1
1	14	0	4	5	0	0	47	1	932	1	1	0	1
1	14	0	4	6	0	0	49	1	833	1	1	0	1
1	14	0	4	7	1	666	49	1	1018	1	1	0	1
1	20	0	4	3	0	0	49	1	877	1	1	0	1
1	20	0	4	4	0	0	47	1	478	1	1	0	1
1	20	0	4	5	0	1	49	1	867	1	1	0	1
1	20	0	4	6	0	1	47	1	601	1	1	0	1
1	20	0	4	7	1	666	47	1	1220	1	1	0	1
1	26	0	4	3	0	1	49	1	660	1	1	0	1
1	26	0	4	4	0	0	49	1	1083	1	1	0	1
1	26	0	4	5	0	0	47	1	748	1	1	0	1
1	26	0	4	6	0	1	47	1	679	1	1	0	1
1	26	0	4	7	1	666	47	1	1308	1	1	0	1
1	30	0	4	3	0	1	49	1	492	1	1	0	1
1	30	0	4	4	0	0	49	1	1044	1	1	0	1
1	30	0	4	5	0	0	47	1	500	1	1	0	1
1	30	0	4	6	0	1	47	1	551	1	1	0	1
1	30	0	4	7	1	666	47	1	1022	1	1	0	1
1	39	0	4	3	0	1	49	1	833	1	1	0	1
1	39	0	4	4	0	1	47	1	614	1	1	0	1
1	39	0	4	5	0	0	49	1	436	1	1	0	1
1	39	0	4	6	0	0	47	1	528	1	1	0	1
1	39	0	4	7	1	666	47	1	1297	1	1	0	1
1	44	0	4	3	0	1	47	1	802	1	1	0	1
1	44	0	4	4	0	0	49	1	394	1	1	0	1
1	44	0	4	5	0	1	49	1	604	1	1	0	1
1	44	0	4	6	0	0	47	1	511	1	1	0	1
1	44	0	4	7	1	666	47	1	749	1	1	0	1
1	51	0	4	3	0	0	49	1	618	1	1	0	1
1	51	0	4	4	0	1	49	1	688	1	1	0	1
1	51	0	4	5	0	1	47	1	485	1	1	0	1
1	51	0	4	6	0	0	47	1	604	1	1	0	1
1	51	0	4	7	1	666	47	1	1103	1	1	0	1
1	11	1	4	3	0	0	49	1	575	1	1	0	2
1	11	1	4	4	0	1	47	1	604	1	1	0	2
1	11	1	4	5	0	1	49	1	487	1	1	0	2
1	11	1	4	6	0	0	47	1	1023	1	1	0	2
1	11	1	4	9	0	1	47	1	779	1	1	1	2
1	11	1	4	10	0	1	49	1	421	1	1	1	2
1	11	1	4	11	0	1	47	1	437	1	1	1	2
1	11	1	4	12	0	1	49	1	465	1	1	1	2
1	11	1	4	13	0	0	47	1	563	1	1	1	2
1	11	1	4	14	0	1	49	1	693	1	1	1	2
1	11	1	4	15	0	0	49	1	532	1	1	1	2
1	11	1	4	16	0	0	49	1	541	1	1	1	2
1	11	1	4	17	0	0	49	1	537	1	1	1	2
1	11	1	4	18	0	0	47	1	533	1	1	1	2
1	11	1	4	19	0	0	47	1	717	1	1	1	2
1	11	1	4	20	0	1	47	1	571	1	1	1	2
1	11	1	4	21	1	666	49	1	989	1	1	0	2
1	17	1	4	3	0	1	49	0	982	1	1	0	2
1	17	1	4	5	0	0	47	1	615	1	1	0	2
1	17	1	4	6	0	1	49	1	469	1	1	0	2
1	17	1	4	7	0	0	49	1	534	1	1	0	2
1	17	1	4	10	0	0	49	1	954	1	1	1	2
1	17	1	4	11	0	0	49	1	806	1	1	1	2
1	17	1	4	12	0	0	47	1	789	1	1	1	2
1	17	1	4	13	0	1	47	1	834	1	1	1	2
1	17	1	4	14	0	1	49	1	794	1	1	1	2
1	17	1	4	15	0	0	47	1	975	1	1	1	2
1	17	1	4	16	0	0	47	1	1533	1	1	1	2
1	17	1	4	17	0	0	49	1	652	1	1	1	2
1	17	1	4	18	0	1	47	1	794	1	1	1	2
1	17	1	4	19	0	1	49	1	538	1	1	1	2
1	17	1	4	20	0	1	47	1	598	1	1	1	2
1	17	1	4	21	0	1	49	1	573	1	1	1	2
1	17	1	4	22	1	666	47	1	1066	1	1	0	2
1	28	1	4	3	0	0	49	1	1060	1	0	0	2
1	28	1	4	4	0	1	49	1	943	1	0	0	2
1	28	1	4	5	0	0	47	1	943	1	0	0	2
1	28	1	4	6	0	1	47	1	936	1	0	0	2
1	28	1	4	9	0	1	47	1	1253	1	0	1	2
1	28	1	4	10	0	0	49	1	565	1	0	1	2
1	28	1	4	11	0	0	47	1	1350	1	0	1	2
1	28	1	4	12	0	1	49	1	715	1	0	1	2
1	28	1	4	13	0	1	47	1	590	1	0	1	2
1	28	1	4	14	0	1	49	1	542	1	0	1	2
1	28	1	4	15	0	0	49	1	553	1	0	1	2
1	28	1	4	16	0	0	47	1	568	1	0	1	2
1	28	1	4	17	0	0	49	1	482	1	0	1	2
1	28	1	4	18	0	1	49	1	582	1	0	1	2
1	28	1	4	19	0	0	47	1	787	1	0	1	2
1	28	1	4	20	0	1	47	1	792	1	0	1	2
1	28	1	4	21	1	666	49	0	1020	1	0	0	2
1	31	1	4	3	0	1	49	0	1164	1	1	0	2
1	31	1	4	5	0	0	49	1	543	1	1	0	2
1	31	1	4	6	0	0	47	1	1035	1	1	0	2
1	31	1	4	7	0	1	49	1	672	1	1	0	2
1	31	1	4	10	0	0	49	1	835	1	1	1	2
1	31	1	4	11	0	1	49	1	1003	1	1	1	2
1	31	1	4	12	0	0	47	1	491	1	1	1	2
1	31	1	4	13	0	1	49	1	586	1	1	1	2
1	31	1	4	14	0	1	47	1	602	1	1	1	2
1	31	1	4	15	0	1	49	1	709	1	1	1	2
1	31	1	4	16	0	0	47	1	671	1	1	1	2
1	31	1	4	17	0	0	49	1	681	1	1	1	2
1	31	1	4	18	0	1	47	1	534	1	1	1	2
1	31	1	4	19	0	1	47	1	566	1	1	1	2
1	31	1	4	20	0	0	47	1	648	1	1	1	2
1	31	1	4	21	0	0	49	1	772	1	1	1	2
1	31	1	4	22	1	666	47	1	853	1	1	0	2
1	42	1	4	3	0	0	49	1	767	1	0	0	2
1	42	1	4	4	0	1	49	1	597	1	0	0	2
1	42	1	4	5	0	1	47	1	581	1	0	0	2
1	42	1	4	6	0	0	47	1	746	1	0	0	2
1	42	1	4	9	0	1	49	1	762	1	0	1	2
1	42	1	4	10	0	1	49	1	577	1	0	1	2
1	42	1	4	11	0	0	47	1	726	1	0	1	2
1	42	1	4	12	0	0	49	1	835	1	0	1	2
1	42	1	4	13	0	1	0	0	1747	1	0	1	2
1	42	1	4	15	0	1	49	1	829	1	0	1	2
1	42	1	4	16	0	1	47	1	754	1	0	1	2
1	42	1	4	17	0	0	47	1	790	1	0	1	2
1	42	1	4	18	0	0	47	1	531	1	0	1	2
1	42	1	4	19	0	1	47	1	571	1	0	1	2
1	42	1	4	20	0	0	49	1	485	1	0	1	2
1	42	1	4	21	0	0	49	1	533	1	0	1	2
1	42	1	4	22	1	666	47	0	1029	1	0	0	2
1	49	1	4	3	0	1	47	1	926	1	1	0	2
1	49	1	4	4	0	0	47	1	907	1	1	0	2
1	49	1	4	5	0	0	49	1	547	1	1	0	2
1	49	1	4	6	0	1	49	1	598	1	1	0	2
1	49	1	4	9	0	0	49	1	679	1	1	1	2
1	49	1	4	10	0	1	47	1	564	1	1	1	2
1	49	1	4	11	0	1	49	1	534	1	1	1	2
1	49	1	4	12	0	1	49	1	518	1	1	1	2
1	49	1	4	13	0	0	47	1	596	1	1	1	2
1	49	1	4	14	0	1	47	1	1076	1	1	1	2
1	49	1	4	15	0	0	49	1	690	1	1	1	2
1	49	1	4	16	0	0	49	1	498	1	1	1	2
1	49	1	4	17	0	0	47	1	796	1	1	1	2
1	49	1	4	18	0	1	49	1	540	1	1	1	2
1	49	1	4	19	0	0	47	1	624	1	1	1	2
1	49	1	4	20	0	1	47	1	637	1	1	1	2
1	49	1	4	21	1	666	49	1	1078	1	1	0	2
1	53	1	4	3	0	1	49	1	755	1	1	0	2
1	53	1	4	4	0	1	47	1	1090	1	1	0	2
1	53	1	4	5	0	0	49	1	507	1	1	0	2
1	53	1	4	6	0	0	47	1	766	1	1	0	2
1	53	1	4	9	0	1	47	1	1135	1	1	1	2
1	53	1	4	10	0	1	49	1	516	1	1	1	2
1	53	1	4	11	0	1	49	1	554	1	1	1	2
1	53	1	4	12	0	0	49	1	545	1	1	1	2
1	53	1	4	13	0	0	49	1	445	1	1	1	2
1	53	1	4	14	0	0	47	1	443	1	1	1	2
1	53	1	4	15	0	1	47	1	914	1	1	1	2
1	53	1	4	16	0	1	49	1	573	1	1	1	2
1	53	1	4	17	0	0	49	1	478	1	1	1	2
1	53	1	4	18	0	0	47	1	563	1	1	1	2
1	53	1	4	19	0	0	47	1	549	1	1	1	2
1	53	1	4	20	0	1	47	1	1059	1	1	1	2
1	53	1	4	21	1	666	49	1	871	1	1	0	2
2	10	2	0	4	0	0	49	1	763	1	1	1	0
2	10	2	0	5	0	0	49	1	370	1	1	1	0
2	10	2	0	6	0	1	49	1	507	1	1	1	0
2	10	2	0	7	0	1	49	1	691	1	1	1	0
2	10	2	0	8	0	0	49	0	365	1	1	1	0
2	10	2	0	10	0	1	47	1	841	1	1	1	0
2	10	2	0	11	0	0	49	1	635	1	1	1	0
2	10	2	0	12	0	1	47	0	471	1	1	1	0
2	10	2	0	14	0	1	47	1	753	1	1	1	0
2	10	2	0	15	0	0	47	1	799	1	1	1	0
2	10	2	0	16	0	0	47	1	406	1	1	1	0
2	10	2	0	17	0	1	47	1	398	1	1	1	0
2	10	2	0	18	1	666	49	1	508	1	1	0	0
2	18	2	0	4	0	1	0	0	1750	1	0	1	0
2	18	2	0	6	0	1	47	1	749	1	0	1	0
2	18	2	0	7	0	0	47	1	553	1	0	1	0
2	18	2	0	8	0	0	47	0	349	1	0	1	0
2	18	2	0	10	0	1	47	1	516	1	0	1	0
2	18	2	0	11	0	0	49	1	419	1	0	1	0
2	18	2	0	12	0	0	47	1	653	1	0	1	0
2	18	2	0	13	0	0	49	1	449	1	0	1	0
2	18	2	0	14	0	0	47	1	643	1	0	1	0
2	18	2	0	15	0	1	49	1	446	1	0	1	0
2	18	2	0	16	0	1	47	0	416	1	0	1	0
2	18	2	0	18	0	1	49	1	504	1	0	1	0
2	18	2	0	19	1	666	47	0	486	1	0	0	0
2	28	2	0	4	0	1	47	1	957	1	1	1	0
2	28	2	0	5	0	0	47	1	544	1	1	1	0
2	28	2	0	6	0	0	49	1	536	1	1	1	0
2	28	2	0	7	0	0	47	1	687	1	1	1	0
2	28	2	0	8	0	1	47	1	552	1	1	1	0
2	28	2	0	9	0	1	47	1	393	1	1	1	0
2	28	2	0	10	0	0	47	0	345	1	1	1	0
2	28	2	0	12	0	1	47	0	433	1	1	1	0
2	28	2	0	14	0	1	49	1	500	1	1	1	0
2	28	2	0	15	0	0	49	0	470	1	1	1	0
2	28	2	0	17	0	1	49	1	572	1	1	1	0
2	28	2	0	18	0	0	49	1	587	1	1	1	0
2	28	2	0	19	1	666	47	1	485	1	1	0	0
2	32	2	0	4	0	1	49	1	819	1	1	1	0
2	32	2	0	5	0	0	49	1	562	1	1	1	0
2	32	2	0	6	0	1	49	1	628	1	1	1	0
2	32	2	0	7	0	0	47	0	1032	1	1	1	0
2	32	2	0	9	0	1	47	1	876	1	1	1	0
2	32	2	0	10	0	1	47	1	479	1	1	1	0
2	32	2	0	11	0	1	47	1	583	1	1	1	0
2	32	2	0	12	0	0	47	1	785	1	1	1	0
2	32	2	0	13	0	1	49	1	550	1	1	1	0
2	32	2	0	14	0	0	47	1	666	1	1	1	0
2	32	2	0	15	0	0	47	1	508	1	1	1	0
2	32	2	0	16	0	0	49	1	568	1	1	1	0
2	32	2	0	17	1	666	47	1	640	1	1	0	0
2	40	2	0	4	0	0	49	1	747	1	0	1	0
2	40	2	0	5	0	1	47	1	438	1	0	1	0
2	40	2	0	6	0	1	49	1	542	1	0	1	0
2	40	2	0	7	0	1	49	1	592	1	0	1	0
2	40	2	0	8	0	0	47	1	714	1	0	1	0
2	40	2	0	9	0	0	47	1	686	1	0	1	0
2	40	2	0	10	0	1	49	1	596	1	0	1	0
2	40	2	0	11	0	1	47	1	517	1	0	1	0
2	40	2	0	12	0	0	49	1	684	1	0	1	0
2	40	2	0	13	0	0	47	1	763	1	0	1	0
2	40	2	0	14	0	1	47	1	910	1	0	1	0
2	40	2	0	15	0	0	49	1	570	1	0	1	0
2	40	2	0	16	1	666	47	0	945	1	0	0	0
2	44	2	0	4	0	0	49	1	485	1	1	1	0
2	44	2	0	5	0	0	49	1	652	1	1	1	0
2	44	2	0	6	0	1	49	1	584	1	1	1	0
2	44	2	0	7	0	1	47	1	560	1	1	1	0
2	44	2	0	8	0	1	49	0	784	1	1	1	0
2	44	2	0	10	0	0	47	1	17	1	1	1	0
2	44	2	0	11	0	0	49	1	899	1	1	1	0
2	44	2	0	12	0	1	49	1	608	1	1	1	0
2	44	2	0	13	0	0	49	0	591	1	1	1	0
2	44	2	0	15	0	1	49	1	778	1	1	1	0
2	44	2	0	16	0	0	47	1	1257	1	1	1	0
2	44	2	0	17	0	1	47	1	712	1	1	1	0
2	44	2	0	18	1	666	49	1	1045	1	1	0	0
2	52	2	0	4	0	1	49	1	596	1	1	1	0
2	52	2	0	5	0	0	49	1	685	1	1	1	0
2	52	2	0	6	0	1	49	1	528	1	1	1	0
2	52	2	0	7	0	1	47	1	560	1	1	1	0
2	52	2	0	8	0	0	47	1	603	1	1	1	0
2	52	2	0	9	0	0	47	1	586	1	1	1	0
2	52	2	0	10	0	0	49	1	495	1	1	1	0
2	52	2	0	11	0	1	47	1	706	1	1	1	0
2	52	2	0	12	0	0	47	1	667	1	1	1	0
2	52	2	0	13	0	0	49	1	729	1	1	1	0
2	52	2	0	14	0	1	47	1	538	1	1	1	0
2	52	2	0	15	0	1	49	1	497	1	1	1	0
2	52	2	0	16	1	666	47	1	596	1	1	0	0
2	14	0	0	3	1	666	49	1	679	1	1	0	1
2	17	0	0	3	1	666	49	1	643	1	1	0	1
2	23	0	0	3	1	666	0	0	1750	1	0	0	1
2	30	0	0	3	1	666	47	1	559	1	1	0	1
2	37	0	0	3	1	666	47	1	587	1	1	0	1
2	49	0	0	3	1	666	47	0	1451	1	0	0	1
2	56	0	0	3	1	666	49	0	1283	1	0	0	1
2	9	1	0	5	0	1	47	0	489	1	1	1	2
2	9	1	0	7	0	1	47	1	541	1	1	1	2
2	9	1	0	8	0	0	47	1	545	1	1	1	2
2	9	1	0	9	0	0	49	1	661	1	1	1	2
2	9	1	0	10	0	0	47	1	481	1	1	1	2
2	9	1	0	11	0	1	47	1	709	1	1	1	2
2	9	1	0	12	0	1	49	1	670	1	1	1	2
2	9	1	0	13	0	1	49	1	743	1	1	1	2
2	9	1	0	14	0	0	49	1	638	1	1	1	2
2	9	1	0	15	0	0	49	1	485	1	1	1	2
2	9	1	0	16	0	0	47	1	460	1	1	1	2
2	9	1	0	17	0	1	47	1	458	1	1	1	2
2	9	1	0	18	1	666	49	1	511	1	1	0	2
2	19	1	0	5	0	1	49	1	598	1	1	1	2
2	19	1	0	6	0	1	47	1	440	1	1	1	2
2	19	1	0	7	0	0	49	1	499	1	1	1	2
2	19	1	0	8	0	1	47	1	643	1	1	1	2
2	19	1	0	9	0	1	49	1	1030	1	1	1	2
2	19	1	0	10	0	0	49	0	551	1	1	1	2
2	19	1	0	12	0	0	47	1	512	1	1	1	2
2	19	1	0	13	0	0	47	0	887	1	1	1	2
2	19	1	0	15	0	0	47	0	628	1	1	1	2
2	19	1	0	17	0	0	47	1	613	1	1	1	2
2	19	1	0	18	0	1	49	0	584	1	1	1	2
2	19	1	0	20	0	1	47	0	613	1	1	1	2
2	19	1	0	22	1	666	47	1	536	1	1	0	2
2	27	1	0	5	0	1	49	0	561	1	1	1	2
2	27	1	0	7	0	0	47	1	354	1	1	1	2
2	27	1	0	8	0	0	49	1	486	1	1	1	2
2	27	1	0	9	0	0	49	1	506	1	1	1	2
2	27	1	0	10	0	0	47	1	498	1	1	1	2
2	27	1	0	11	0	0	49	1	507	1	1	1	2
2	27	1	0	12	0	1	47	1	567	1	1	1	2
2	27	1	0	13	0	1	47	1	696	1	1	1	2
2	27	1	0	14	0	1	49	1	516	1	1	1	2
2	27	1	0	15	0	0	47	1	654	1	1	1	2
2	27	1	0	16	0	1	49	1	508	1	1	1	2
2	27	1	0	17	0	1	47	0	354	1	1	1	2
2	27	1	0	19	1	666	47	1	584	1	1	0	2
2	31	1	0	5	0	1	49	1	706	1	0	1	2
2	31	1	0	6	0	1	49	1	802	1	0	1	2
2	31	1	0	7	0	0	47	1	584	1	0	1	2
2	31	1	0	8	0	0	49	1	684	1	0	1	2
2	31	1	0	9	0	1	47	1	538	1	0	1	2
2	31	1	0	10	0	1	49	1	396	1	0	1	2
2	31	1	0	11	0	0	47	1	527	1	0	1	2
2	31	1	0	12	0	0	47	1	571	1	0	1	2
2	31	1	0	13	0	0	49	1	485	1	0	1	2
2	31	1	0	14	0	1	47	1	550	1	0	1	2
2	31	1	0	15	0	0	49	1	470	1	0	1	2
2	31	1	0	16	0	1	47	1	463	1	0	1	2
2	31	1	0	17	1	666	47	0	696	1	0	0	2
2	39	1	0	5	0	0	47	1	879	1	0	1	2
2	39	1	0	6	0	1	49	1	528	1	0	1	2
2	39	1	0	7	0	0	49	1	603	1	0	1	2
2	39	1	0	8	0	1	47	1	608	1	0	1	2
2	39	1	0	9	0	0	49	1	501	1	0	1	2
2	39	1	0	10	0	1	47	1	662	1	0	1	2
2	39	1	0	11	0	0	49	1	594	1	0	1	2
2	39	1	0	12	0	0	49	0	638	1	0	1	2
2	39	1	0	14	0	1	47	0	482	1	0	1	2
2	39	1	0	16	0	1	47	1	730	1	0	1	2
2	39	1	0	17	0	0	49	0	382	1	0	1	2
2	39	1	0	19	0	1	49	1	583	1	0	1	2
2	39	1	0	20	1	666	47	0	774	1	0	0	2
2	48	1	0	5	0	0	47	1	500	1	0	1	2
2	48	1	0	6	0	1	49	1	537	1	0	1	2
2	48	1	0	7	0	1	49	1	677	1	0	1	2
2	48	1	0	8	0	1	47	1	637	1	0	1	2
2	48	1	0	9	0	1	47	1	924	1	0	1	2
2	48	1	0	10	0	0	49	1	578	1	0	1	2
2	48	1	0	11	0	0	47	0	661	1	0	1	2
2	48	1	0	13	0	0	49	1	556	1	0	1	2
2	48	1	0	14	0	1	47	1	588	1	0	1	2
2	48	1	0	15	0	0	47	1	655	1	0	1	2
2	48	1	0	16	0	1	49	1	531	1	0	1	2
2	48	1	0	17	0	0	47	1	518	1	0	1	2
2	48	1	0	18	1	666	47	0	708	1	0	0	2
2	55	1	0	5	0	1	49	1	590	1	0	1	2
2	55	1	0	6	0	0	49	1	701	1	0	1	2
2	55	1	0	7	0	1	47	1	561	1	0	1	2
2	55	1	0	8	0	0	49	1	593	1	0	1	2
2	55	1	0	9	0	1	49	1	525	1	0	1	2
2	55	1	0	10	0	0	47	1	602	1	0	1	2
2	55	1	0	11	0	1	47	1	663	1	0	1	2
2	55	1	0	12	0	1	49	1	628	1	0	1	2
2	55	1	0	13	0	0	47	1	786	1	0	1	2
2	55	1	0	14	0	1	49	0	674	1	0	1	2
2	55	1	0	16	0	0	47	1	800	1	0	1	2
2	55	1	0	17	0	0	49	1	492	1	0	1	2
2	55	1	0	18	1	666	47	0	771	1	0	0	2
2	13	2	4	3	0	0	49	1	504	1	1	0	0
2	13	2	4	4	0	0	47	1	541	1	1	0	0
2	13	2	4	5	0	1	49	1	534	1	1	0	0
2	13	2	4	6	0	1	47	1	909	1	1	0	0
2	13	2	4	8	0	0	47	1	709	1	1	1	0
2	13	2	4	9	0	1	49	1	648	1	1	1	0
2	13	2	4	10	0	0	47	0	597	1	1	1	0
2	13	2	4	12	0	0	47	0	1594	1	1	1	0
2	13	2	4	14	0	0	0	0	1750	1	1	1	0
2	13	2	4	16	0	1	49	1	918	1	1	1	0
2	13	2	4	17	0	0	0	0	1750	1	1	1	0
2	13	2	4	19	0	1	0	0	1750	1	1	1	0
2	13	2	4	21	0	1	49	1	770	1	1	1	0
2	13	2	4	22	0	1	47	1	631	1	1	1	0
2	13	2	4	23	0	1	49	0	562	1	1	1	0
2	13	2	4	25	0	0	47	1	513	1	1	1	0
2	13	2	4	26	1	666	47	1	393	1	1	0	0
2	16	2	4	3	0	0	47	1	398	1	1	0	0
2	16	2	4	4	0	1	49	1	417	1	1	0	0
2	16	2	4	5	0	1	47	1	549	1	1	0	0
2	16	2	4	6	0	0	49	1	621	1	1	0	0
2	16	2	4	8	0	0	47	1	463	1	1	1	0
2	16	2	4	9	0	0	49	1	516	1	1	1	0
2	16	2	4	10	0	1	49	1	531	1	1	1	0
2	16	2	4	11	0	0	49	1	518	1	1	1	0
2	16	2	4	12	0	1	49	1	741	1	1	1	0
2	16	2	4	13	0	1	47	1	646	1	1	1	0
2	16	2	4	14	0	1	49	1	696	1	1	1	0
2	16	2	4	15	0	1	0	0	1750	1	1	1	0
2	16	2	4	17	0	0	49	0	587	1	1	1	0
2	16	2	4	19	0	1	47	1	707	1	1	1	0
2	16	2	4	20	0	0	49	1	1140	1	1	1	0
2	16	2	4	21	0	0	47	1	678	1	1	1	0
2	16	2	4	22	1	666	49	1	459	1	1	0	0
2	26	2	4	3	0	0	47	1	704	1	0	0	0
2	26	2	4	4	0	1	47	0	463	1	0	0	0
2	26	2	4	6	0	1	47	1	468	1	0	0	0
2	26	2	4	7	0	0	49	1	449	1	0	0	0
2	26	2	4	9	0	0	0	0	1750	1	0	1	0
2	26	2	4	11	0	1	49	1	971	1	0	1	0
2	26	2	4	12	0	0	49	1	507	1	0	1	0
2	26	2	4	13	0	1	49	1	567	1	0	1	0
2	26	2	4	14	0	0	47	1	572	1	0	1	0
2	26	2	4	15	0	1	47	1	655	1	0	1	0
2	26	2	4	16	0	0	47	1	520	1	0	1	0
2	26	2	4	17	0	0	47	1	518	1	0	1	0
2	26	2	4	18	0	1	47	1	460	1	0	1	0
2	26	2	4	19	0	1	47	1	367	1	0	1	0
2	26	2	4	20	0	1	49	1	594	1	0	1	0
2	26	2	4	21	0	0	0	0	1750	1	0	1	0
2	26	2	4	23	1	666	49	0	1058	1	0	0	0
2	34	2	4	3	0	1	49	1	649	1	0	0	0
2	34	2	4	4	0	1	47	1	846	1	0	0	0
2	34	2	4	5	0	0	47	1	697	1	0	0	0
2	34	2	4	6	0	0	49	1	696	1	0	0	0
2	34	2	4	8	0	1	0	0	1750	1	0	1	0
2	34	2	4	10	0	1	49	1	598	1	0	1	0
2	34	2	4	11	0	1	47	1	620	1	0	1	0
2	34	2	4	12	0	1	47	1	608	1	0	1	0
2	34	2	4	13	0	0	49	1	838	1	0	1	0
2	34	2	4	14	0	1	47	0	879	1	0	1	0
2	34	2	4	16	0	0	0	0	1750	1	0	1	0
2	34	2	4	18	0	0	47	1	763	1	0	1	0
2	34	2	4	19	0	1	47	1	641	1	0	1	0
2	34	2	4	20	0	0	49	1	477	1	0	1	0
2	34	2	4	21	0	0	47	1	368	1	0	1	0
2	34	2	4	22	0	0	49	1	381	1	0	1	0
2	34	2	4	23	1	666	47	0	957	1	0	0	0
2	42	2	4	3	0	1	49	1	608	1	0	0	0
2	42	2	4	4	0	0	47	1	545	1	0	0	0
2	42	2	4	5	0	1	47	1	606	1	0	0	0
2	42	2	4	6	0	0	47	0	352	1	0	0	0
2	42	2	4	9	0	0	49	1	594	1	0	1	0
2	42	2	4	10	0	1	49	1	672	1	0	1	0
2	42	2	4	11	0	0	47	1	610	1	0	1	0
2	42	2	4	12	0	1	49	0	570	1	0	1	0
2	42	2	4	14	0	1	47	1	774	1	0	1	0
2	42	2	4	15	0	1	47	1	454	1	0	1	0
2	42	2	4	16	0	0	47	0	407	1	0	1	0
2	42	2	4	18	0	0	47	1	417	1	0	1	0
2	42	2	4	19	0	1	49	1	572	1	0	1	0
2	42	2	4	20	0	1	49	1	486	1	0	1	0
2	42	2	4	21	0	0	47	1	540	1	0	1	0
2	42	2	4	22	0	0	49	1	690	1	0	1	0
2	42	2	4	23	1	666	47	0	747	1	0	0	0
2	45	2	4	3	0	0	49	1	821	1	0	0	0
2	45	2	4	4	0	0	47	1	665	1	0	0	0
2	45	2	4	5	0	1	49	0	653	1	0	0	0
2	45	2	4	7	0	1	49	1	796	1	0	0	0
2	45	2	4	9	0	1	47	1	519	1	0	1	0
2	45	2	4	10	0	1	47	1	427	1	0	1	0
2	45	2	4	11	0	0	47	1	481	1	0	1	0
2	45	2	4	12	0	0	47	1	428	1	0	1	0
2	45	2	4	13	0	1	49	1	616	1	0	1	0
2	45	2	4	14	0	0	47	1	644	1	0	1	0
2	45	2	4	15	0	0	49	1	435	1	0	1	0
2	45	2	4	16	0	0	49	1	629	1	0	1	0
2	45	2	4	17	0	1	47	1	955	1	0	1	0
2	45	2	4	18	0	1	49	1	531	1	0	1	0
2	45	2	4	19	0	1	49	1	405	1	0	1	0
2	45	2	4	20	0	0	49	1	565	1	0	1	0
2	45	2	4	21	1	666	47	0	485	1	0	0	0
2	54	2	4	3	0	0	49	1	585	1	1	0	0
2	54	2	4	4	0	1	47	0	438	1	1	0	0
2	54	2	4	6	0	0	49	0	404	1	1	0	0
2	54	2	4	8	0	1	47	1	684	1	1	0	0
2	54	2	4	10	0	0	47	1	472	1	1	1	0
2	54	2	4	11	0	1	47	1	577	1	1	1	0
2	54	2	4	12	0	0	47	1	457	1	1	1	0
2	54	2	4	13	0	0	47	1	375	1	1	1	0
2	54	2	4	14	0	0	49	1	525	1	1	1	0
2	54	2	4	15	0	1	47	1	556	1	1	1	0
2	54	2	4	16	0	1	49	1	509	1	1	1	0
2	54	2	4	17	0	1	47	0	559	1	1	1	0
2	54	2	4	19	0	1	49	1	857	1	1	1	0
2	54	2	4	20	0	0	49	1	747	1	1	1	0
2	54	2	4	21	0	1	47	1	618	1	1	1	0
2	54	2	4	22	0	0	49	1	505	1	1	1	0
2	54	2	4	23	1	666	47	1	565	1	1	0	0
2	12	0	4	3	0	0	47	1	381	1	0	0	1
2	12	0	4	4	0	1	49	0	371	1	0	0	1
2	12	0	4	6	0	0	47	0	314	1	0	0	1
2	12	0	4	8	0	1	49	1	582	1	0	0	1
2	12	0	4	9	1	666	47	0	700	1	0	0	1
2	20	0	4	3	0	0	49	1	649	1	0	0	1
2	20	0	4	4	0	1	47	1	553	1	0	0	1
2	20	0	4	5	0	1	49	1	495	1	0	0	1
2	20	0	4	6	0	0	47	1	527	1	0	0	1
2	20	0	4	7	1	666	47	0	525	1	0	0	1
2	25	0	4	3	0	0	49	1	834	1	0	0	1
2	25	0	4	4	0	0	47	1	640	1	0	0	1
2	25	0	4	5	0	1	49	1	520	1	0	0	1
2	25	0	4	6	0	1	47	1	968	1	0	0	1
2	25	0	4	7	1	666	49	0	482	1	0	0	1
2	35	0	4	3	0	0	49	1	452	1	1	0	1
2	35	0	4	4	0	0	47	1	494	1	1	0	1
2	35	0	4	5	0	1	47	1	739	1	1	0	1
2	35	0	4	6	0	1	49	1	656	1	1	0	1
2	35	0	4	7	1	666	47	1	600	1	1	0	1
2	38	0	4	3	0	0	47	0	560	1	1	0	1
2	38	0	4	5	0	0	47	1	567	1	1	0	1
2	38	0	4	6	0	1	47	1	639	1	1	0	1
2	38	0	4	7	0	1	49	1	509	1	1	0	1
2	38	0	4	8	1	666	47	1	625	1	1	0	1
2	46	0	4	3	0	0	49	1	583	1	1	0	1
2	46	0	4	4	0	1	49	1	722	1	1	0	1
2	46	0	4	5	0	0	47	1	565	1	1	0	1
2	46	0	4	6	0	1	47	1	586	1	1	0	1
2	46	0	4	7	1	666	49	1	777	1	1	0	1
2	53	0	4	3	0	1	49	1	553	1	0	0	1
2	53	0	4	4	0	0	49	1	653	1	0	0	1
2	53	0	4	5	0	1	47	1	619	1	0	0	1
2	53	0	4	6	0	0	47	1	495	1	0	0	1
2	53	0	4	7	1	666	47	0	661	1	0	0	1
2	11	1	4	3	0	1	49	0	560	1	0	0	2
2	11	1	4	5	0	1	47	0	353	1	0	0	2
2	11	1	4	7	0	0	49	1	683	1	0	0	2
2	11	1	4	8	0	0	47	1	627	1	0	0	2
2	11	1	4	11	0	1	49	1	750	1	0	1	2
2	11	1	4	12	0	1	47	1	526	1	0	1	2
2	11	1	4	13	0	1	49	1	390	1	0	1	2
2	11	1	4	14	0	1	47	0	240	1	0	1	2
2	11	1	4	16	0	0	47	1	462	1	0	1	2
2	11	1	4	17	0	0	49	0	1090	1	0	1	2
2	11	1	4	19	0	1	47	1	585	1	0	1	2
2	11	1	4	20	0	0	47	0	371	1	0	1	2
2	11	1	4	22	0	0	47	1	448	1	0	1	2
2	11	1	4	23	0	0	49	1	395	1	0	1	2
2	11	1	4	24	0	0	49	1	571	1	0	1	2
2	11	1	4	25	0	1	47	1	474	1	0	1	2
2	11	1	4	26	1	666	49	0	691	1	0	0	2
2	21	1	4	3	0	1	47	0	469	1	1	0	2
2	21	1	4	5	0	1	47	1	1121	1	1	0	2
2	21	1	4	6	0	0	47	1	553	1	1	0	2
2	21	1	4	7	0	0	49	1	529	1	1	0	2
2	21	1	4	10	0	1	49	1	552	1	1	1	2
2	21	1	4	11	0	0	47	0	529	1	1	1	2
2	21	1	4	13	0	0	49	1	568	1	1	1	2
2	21	1	4	14	0	0	47	1	460	1	1	1	2
2	21	1	4	15	0	1	47	0	503	1	1	1	2
2	21	1	4	17	0	1	47	1	493	1	1	1	2
2	21	1	4	18	0	1	47	1	794	1	1	1	2
2	21	1	4	19	0	0	49	1	514	1	1	1	2
2	21	1	4	20	0	1	49	1	530	1	1	1	2
2	21	1	4	21	0	1	47	1	516	1	1	1	2
2	21	1	4	22	0	0	49	0	395	1	1	1	2
2	21	1	4	24	0	0	47	1	479	1	1	1	2
2	21	1	4	25	1	666	47	1	516	1	1	0	2
2	24	1	4	3	0	0	49	1	858	1	0	0	2
2	24	1	4	4	0	0	47	1	422	1	0	0	2
2	24	1	4	5	0	1	49	0	733	1	0	0	2
2	24	1	4	7	0	1	49	1	1068	1	0	0	2
2	24	1	4	10	0	0	49	1	782	1	0	1	2
2	24	1	4	11	0	1	49	0	406	1	0	1	2
2	24	1	4	13	0	0	49	1	462	1	0	1	2
2	24	1	4	14	0	1	47	1	718	1	0	1	2
2	24	1	4	15	0	1	47	0	538	1	0	1	2
2	24	1	4	17	0	0	47	1	640	1	0	1	2
2	24	1	4	18	0	1	49	1	465	1	0	1	2
2	24	1	4	19	0	1	49	1	519	1	0	1	2
2	24	1	4	20	0	0	49	1	517	1	0	1	2
2	24	1	4	21	0	0	47	1	403	1	0	1	2
2	24	1	4	22	0	1	47	1	642	1	0	1	2
2	24	1	4	23	0	0	47	1	546	1	0	1	2
2	24	1	4	24	1	666	0	0	1750	1	0	0	2
2	33	1	4	3	0	0	49	1	632	1	0	0	2
2	33	1	4	4	0	0	47	1	485	1	0	0	2
2	33	1	4	5	0	1	47	1	618	1	0	0	2
2	33	1	4	6	0	1	49	1	561	1	0	0	2
2	33	1	4	9	0	1	49	1	639	1	0	1	2
2	33	1	4	10	0	0	49	0	622	1	0	1	2
2	33	1	4	12	0	1	47	1	641	1	0	1	2
2	33	1	4	13	0	1	47	1	477	1	0	1	2
2	33	1	4	14	0	0	49	1	638	1	0	1	2
2	33	1	4	15	0	0	49	1	452	1	0	1	2
2	33	1	4	16	0	0	47	1	652	1	0	1	2
2	33	1	4	17	0	1	47	1	719	1	0	1	2
2	33	1	4	18	0	1	49	1	450	1	0	1	2
2	33	1	4	19	0	1	49	1	582	1	0	1	2
2	33	1	4	20	0	0	49	1	1329	1	0	1	2
2	33	1	4	21	0	0	47	1	740	1	0	1	2
2	33	1	4	22	1	666	47	0	803	1	0	0	2
2	41	1	4	3	0	1	47	1	826	1	1	0	2
2	41	1	4	4	0	0	49	1	467	1	1	0	2
2	41	1	4	5	0	1	47	0	537	1	1	0	2
2	41	1	4	7	0	0	47	1	426	1	1	0	2
2	41	1	4	10	0	1	49	1	674	1	1	1	2
2	41	1	4	11	0	1	49	1	546	1	1	1	2
2	41	1	4	12	0	0	49	0	526	1	1	1	2
2	41	1	4	14	0	1	47	1	533	1	1	1	2
2	41	1	4	15	0	0	49	1	565	1	1	1	2
2	41	1	4	16	0	0	49	1	541	1	1	1	2
2	41	1	4	17	0	1	47	1	613	1	1	1	2
2	41	1	4	18	0	0	47	1	718	1	1	1	2
2	41	1	4	19	0	0	47	1	561	1	1	1	2
2	41	1	4	20	0	1	49	1	560	1	1	1	2
2	41	1	4	21	0	1	47	1	491	1	1	1	2
2	41	1	4	22	0	0	49	1	590	1	1	1	2
2	41	1	4	23	1	666	47	1	915	1	1	0	2
2	47	1	4	3	0	1	49	1	880	1	1	0	2
2	47	1	4	4	0	1	47	1	437	1	1	0	2
2	47	1	4	5	0	0	49	1	925	1	1	0	2
2	47	1	4	6	0	0	47	1	601	1	1	0	2
2	47	1	4	9	0	0	47	1	1155	1	1	1	2
2	47	1	4	10	0	1	49	1	654	1	1	1	2
2	47	1	4	11	0	0	47	1	643	1	1	1	2
2	47	1	4	12	0	1	47	1	862	1	1	1	2
2	47	1	4	13	0	0	49	1	605	1	1	1	2
2	47	1	4	14	0	1	47	0	587	1	1	1	2
2	47	1	4	16	0	1	47	1	572	1	1	1	2
2	47	1	4	17	0	0	49	1	509	1	1	1	2
2	47	1	4	18	0	1	47	1	490	1	1	1	2
2	47	1	4	19	0	1	49	1	443	1	1	1	2
2	47	1	4	20	0	0	47	1	569	1	1	1	2
2	47	1	4	21	0	0	49	1	495	1	1	1	2
2	47	1	4	22	1	666	47	1	1055	1	1	0	2
2	51	1	4	3	0	1	49	0	1184	1	1	0	2
2	51	1	4	5	0	1	49	1	568	1	1	0	2
2	51	1	4	6	0	0	47	1	494	1	1	0	2
2	51	1	4	7	0	0	49	1	615	1	1	0	2
2	51	1	4	10	0	1	49	1	531	1	1	1	2
2	51	1	4	11	0	1	47	1	450	1	1	1	2
2	51	1	4	12	0	0	47	1	503	1	1	1	2
2	51	1	4	13	0	1	47	1	474	1	1	1	2
2	51	1	4	14	0	1	49	1	409	1	1	1	2
2	51	1	4	15	0	1	49	1	693	1	1	1	2
2	51	1	4	16	0	0	47	1	603	1	1	1	2
2	51	1	4	17	0	0	49	1	552	1	1	1	2
2	51	1	4	18	0	1	47	1	652	1	1	1	2
2	51	1	4	19	0	0	47	1	1259	1	1	1	2
2	51	1	4	20	0	0	49	1	489	1	1	1	2
2	51	1	4	21	0	0	47	0	869	1	1	1	2
2	51	1	4	23	1	666	47	1	841	1	1	0	2
3	14	2	0	4	0	0	47	1	606	1	1	1	0
3	14	2	0	5	0	0	49	1	558	1	1	1	0
3	14	2	0	6	0	1	47	1	1026	1	1	1	0
3	14	2	0	7	0	0	47	1	591	1	1	1	0
3	14	2	0	8	0	1	49	1	658	1	1	1	0
3	14	2	0	9	0	1	47	1	498	1	1	1	0
3	14	2	0	10	0	0	49	1	490	1	1	1	0
3	14	2	0	11	0	1	49	1	490	1	1	1	0
3	14	2	0	12	0	0	49	1	616	1	1	1	0
3	14	2	0	13	0	1	47	1	577	1	1	1	0
3	14	2	0	14	0	1	49	1	525	1	1	1	0
3	14	2	0	15	0	0	47	1	712	1	1	1	0
3	14	2	0	16	1	666	47	1	611	1	1	0	0
3	17	2	0	4	0	0	49	1	432	1	1	1	0
3	17	2	0	5	0	1	47	1	601	1	1	1	0
3	17	2	0	6	0	0	47	1	661	1	1	1	0
3	17	2	0	7	0	1	49	1	416	1	1	1	0
3	17	2	0	8	0	1	49	1	441	1	1	1	0
3	17	2	0	9	0	1	47	1	454	1	1	1	0
3	17	2	0	10	0	1	49	1	448	1	1	1	0
3	17	2	0	11	0	0	47	1	625	1	1	1	0
3	17	2	0	12	0	1	47	1	689	1	1	1	0
3	17	2	0	13	0	0	49	1	654	1	1	1	0
3	17	2	0	14	0	0	49	1	527	1	1	1	0
3	17	2	0	15	0	0	47	1	556	1	1	1	0
3	17	2	0	16	1	666	47	1	598	1	1	0	0
3	26	2	0	4	0	0	49	1	578	1	1	1	0
3	26	2	0	5	0	1	47	1	583	1	1	1	0
3	26	2	0	6	0	0	49	1	364	1	1	1	0
3	26	2	0	7	0	1	49	1	453	1	1	1	0
3	26	2	0	8	0	1	47	1	492	1	1	1	0
3	26	2	0	9	0	0	47	1	605	1	1	1	0
3	26	2	0	10	0	1	49	1	536	1	1	1	0
3	26	2	0	11	0	1	49	0	530	1	1	1	0
3	26	2	0	13	0	0	47	1	747	1	1	1	0
3	26	2	0	14	0	0	49	1	658	1	1	1	0
3	26	2	0	15	0	0	47	1	670	1	1	1	0
3	26	2	0	16	0	1	49	1	554	1	1	1	0
3	26	2	0	17	1	666	49	1	595	1	1	0	0
3	34	2	0	4	0	1	47	1	505	1	1	1	0
3	34	2	0	5	0	1	49	1	409	1	1	1	0
3	34	2	0	6	0	1	49	1	601	1	1	1	0
3	34	2	0	7	0	0	47	1	510	1	1	1	0
3	34	2	0	8	0	0	47	1	568	1	1	1	0
3	34	2	0	9	0	0	49	1	412	1	1	1	0
3	34	2	0	10	0	1	49	1	511	1	1	1	0
3	34	2	0	11	0	1	47	1	626	1	1	1	0
3	34	2	0	12	0	0	47	0	855	1	1	1	0
3	34	2	0	14	0	0	47	1	547	1	1	1	0
3	34	2	0	15	0	0	49	1	583	1	1	1	0
3	34	2	0	16	0	1	47	1	616	1	1	1	0
3	34	2	0	17	1	666	47	1	723	1	1	0	0
3	38	2	0	4	0	0	49	1	383	1	0	1	0
3	38	2	0	5	0	1	49	1	485	1	0	1	0
3	38	2	0	6	0	1	49	1	531	1	0	1	0
3	38	2	0	7	0	1	47	1	528	1	0	1	0
3	38	2	0	8	0	0	47	1	542	1	0	1	0
3	38	2	0	9	0	0	47	1	454	1	0	1	0
3	38	2	0	10	0	1	49	1	527	1	0	1	0
3	38	2	0	11	0	0	49	1	485	1	0	1	0
3	38	2	0	12	0	1	47	1	507	1	0	1	0
3	38	2	0	13	0	0	47	0	529	1	0	1	0
3	38	2	0	15	0	1	47	1	431	1	0	1	0
3	38	2	0	16	0	0	47	1	576	1	0	1	0
3	38	2	0	17	1	666	49	0	772	1	0	0	0
3	45	2	0	4	0	0	47	1	590	1	1	1	0
3	45	2	0	5	0	0	49	1	355	1	1	1	0
3	45	2	0	6	0	1	49	1	414	1	1	1	0
3	45	2	0	7	0	1	49	1	421	1	1	1	0
3	45	2	0	8	0	1	49	1	436	1	1	1	0
3	45	2	0	9	0	0	49	1	517	1	1	1	0
3	45	2	0	10	0	1	47	1	598	1	1	1	0
3	45	2	0	11	0	0	49	1	453	1	1	1	0
3	45	2	0	12	0	0	47	1	460	1	1	1	0
3	45	2	0	13	0	0	47	1	435	1	1	1	0
3	45	2	0	14	0	1	49	0	650	1	1	1	0
3	45	2	0	16	0	1	47	1	318	1	1	1	0
3	45	2	0	17	1	666	47	1	575	1	1	0	0
3	54	2	0	4	0	1	49	0	544	1	1	1	0
3	54	2	0	6	0	0	47	1	618	1	1	1	0
3	54	2	0	7	0	0	47	1	458	1	1	1	0
3	54	2	0	8	0	0	49	1	469	1	1	1	0
3	54	2	0	9	0	1	49	1	412	1	1	1	0
3	54	2	0	10	0	1	47	1	590	1	1	1	0
3	54	2	0	11	0	0	47	1	423	1	1	1	0
3	54	2	0	12	0	1	49	1	663	1	1	1	0
3	54	2	0	13	0	0	49	1	501	1	1	1	0
3	54	2	0	14	0	1	47	1	369	1	1	1	0
3	54	2	0	15	0	0	47	0	500	1	1	1	0
3	54	2	0	17	0	1	49	1	422	1	1	1	0
3	54	2	0	18	1	666	49	1	673	1	1	0	0
3	9	0	0	3	1	666	49	1	868	1	1	0	1
3	18	0	0	3	1	666	47	1	595	1	1	0	1
3	28	0	0	3	1	666	49	1	714	1	1	0	1
3	33	0	0	3	1	666	49	1	550	1	1	0	1
3	37	0	0	3	1	666	47	0	557	1	0	0	1
3	47	0	0	3	1	666	49	1	948	1	1	0	1
3	53	0	0	3	1	666	47	1	423	1	1	0	1
3	12	1	0	5	0	1	49	1	743	1	1	1	2
3	12	1	0	6	0	0	49	1	631	1	1	1	2
3	12	1	0	7	0	0	47	1	486	1	1	1	2
3	12	1	0	8	0	0	49	1	585	1	1	1	2
3	12	1	0	9	0	1	47	1	604	1	1	1	2
3	12	1	0	10	0	1	47	1	553	1	1	1	2
3	12	1	0	11	0	0	47	1	473	1	1	1	2
3	12	1	0	12	0	0	49	1	509	1	1	1	2
3	12	1	0	13	0	1	47	1	595	1	1	1	2
3	12	1	0	14	0	1	49	1	476	1	1	1	2
3	12	1	0	15	0	1	49	1	646	1	1	1	2
3	12	1	0	16	0	0	47	1	752	1	1	1	2
3	12	1	0	17	1	666	49	1	695	1	1	0	2
3	19	1	0	5	0	1	47	1	752	1	1	1	2
3	19	1	0	6	0	1	47	1	500	1	1	1	2
3	19	1	0	7	0	1	49	1	444	1	1	1	2
3	19	1	0	8	0	0	49	1	634	1	1	1	2
3	19	1	0	9	0	0	47	1	728	1	1	1	2
3	19	1	0	10	0	0	49	1	689	1	1	1	2
3	19	1	0	11	0	0	49	1	556	1	1	1	2
3	19	1	0	12	0	0	47	1	663	1	1	1	2
3	19	1	0	13	0	1	49	1	684	1	1	1	2
3	19	1	0	14	0	1	49	1	646	1	1	1	2
3	19	1	0	15	0	0	47	1	588	1	1	1	2
3	19	1	0	16	0	1	47	1	622	1	1	1	2
3	19	1	0	17	1	666	49	1	539	1	1	0	2
3	23	1	0	5	0	0	49	1	630	1	1	1	2
3	23	1	0	6	0	0	49	1	367	1	1	1	2
3	23	1	0	7	0	1	47	1	561	1	1	1	2
3	23	1	0	8	0	0	47	1	521	1	1	1	2
3	23	1	0	9	0	0	47	1	398	1	1	1	2
3	23	1	0	10	0	1	47	0	439	1	1	1	2
3	23	1	0	12	0	1	49	1	401	1	1	1	2
3	23	1	0	13	0	1	49	1	533	1	1	1	2
3	23	1	0	14	0	1	47	1	466	1	1	1	2
3	23	1	0	15	0	0	47	1	660	1	1	1	2
3	23	1	0	16	0	1	47	1	1209	1	1	1	2
3	23	1	0	17	0	0	49	1	530	1	1	1	2
3	23	1	0	18	1	666	47	1	625	1	1	0	2
3	32	1	0	5	0	1	47	1	618	1	1	1	2
3	32	1	0	6	0	0	49	1	721	1	1	1	2
3	32	1	0	7	0	1	47	1	579	1	1	1	2
3	32	1	0	8	0	1	49	1	441	1	1	1	2
3	32	1	0	9	0	0	47	1	410	1	1	1	2
3	32	1	0	10	0	1	49	1	367	1	1	1	2
3	32	1	0	11	0	0	47	1	454	1	1	1	2
3	32	1	0	12	0	1	47	1	433	1	1	1	2
3	32	1	0	13	0	1	49	1	473	1	1	1	2
3	32	1	0	14	0	0	49	1	377	1	1	1	2
3	32	1	0	15	0	0	47	1	482	1	1	1	2
3	32	1	0	16	0	0	49	1	422	1	1	1	2
3	32	1	0	17	1	666	49	1	650	1	1	0	2
3	42	1	0	5	0	0	47	1	598	1	1	1	2
3	42	1	0	6	0	0	49	1	432	1	1	1	2
3	42	1	0	7	0	1	47	1	666	1	1	1	2
3	42	1	0	8	0	1	47	1	535	1	1	1	2
3	42	1	0	9	0	1	47	1	531	1	1	1	2
3	42	1	0	10	0	1	49	1	414	1	1	1	2
3	42	1	0	11	0	0	49	1	519	1	1	1	2
3	42	1	0	12	0	1	49	1	516	1	1	1	2
3	42	1	0	13	0	0	47	1	491	1	1	1	2
3	42	1	0	14	0	1	49	1	447	1	1	1	2
3	42	1	0	15	0	0	49	1	564	1	1	1	2
3	42	1	0	16	0	0	47	1	497	1	1	1	2
3	42	1	0	17	1	666	47	1	571	1	1	0	2
3	46	1	0	5	0	1	49	1	525	1	1	1	2
3	46	1	0	6	0	0	47	1	516	1	1	1	2
3	46	1	0	7	0	1	47	1	559	1	1	1	2
3	46	1	0	8	0	0	47	1	553	1	1	1	2
3	46	1	0	9	0	0	49	1	684	1	1	1	2
3	46	1	0	10	0	1	47	1	412	1	1	1	2
3	46	1	0	11	0	0	47	1	409	1	1	1	2
3	46	1	0	12	0	0	49	1	423	1	1	1	2
3	46	1	0	13	0	0	49	1	433	1	1	1	2
3	46	1	0	14	0	1	49	1	358	1	1	1	2
3	46	1	0	15	0	1	49	1	368	1	1	1	2
3	46	1	0	16	0	1	47	1	404	1	1	1	2
3	46	1	0	17	1	666	47	1	650	1	1	0	2
3	52	1	0	5	0	1	49	1	907	1	1	1	2
3	52	1	0	6	0	0	49	0	380	1	1	1	2
3	52	1	0	8	0	1	47	1	543	1	1	1	2
3	52	1	0	9	0	0	49	1	517	1	1	1	2
3	52	1	0	10	0	0	49	1	425	1	1	1	2
3	52	1	0	11	0	1	49	0	430	1	1	1	2
3	52	1	0	13	0	0	49	1	493	1	1	1	2
3	52	1	0	14	0	1	49	1	520	1	1	1	2
3	52	1	0	15	0	0	47	1	433	1	1	1	2
3	52	1	0	16	0	0	47	1	603	1	1	1	2
3	52	1	0	17	0	1	49	0	433	1	1	1	2
3	52	1	0	19	0	1	49	1	355	1	1	1	2
3	52	1	0	20	1	666	49	1	531	1	1	0	2
3	11	2	4	3	0	0	47	1	600	1	1	0	0
3	11	2	4	4	0	1	47	1	844	1	1	0	0
3	11	2	4	5	0	0	49	1	711	1	1	0	0
3	11	2	4	6	0	1	49	1	747	1	1	0	0
3	11	2	4	8	0	1	47	1	963	1	1	1	0
3	11	2	4	9	0	0	47	1	642	1	1	1	0
3	11	2	4	10	0	1	49	1	642	1	1	1	0
3	11	2	4	11	0	0	49	1	701	1	1	1	0
3	11	2	4	12	0	1	49	1	756	1	1	1	0
3	11	2	4	13	0	0	49	1	631	1	1	1	0
3	11	2	4	14	0	1	49	1	595	1	1	1	0
3	11	2	4	15	0	0	47	1	974	1	1	1	0
3	11	2	4	16	0	0	49	1	575	1	1	1	0
3	11	2	4	17	0	1	47	1	758	1	1	1	0
3	11	2	4	18	0	0	47	1	759	1	1	1	0
3	11	2	4	19	0	1	47	1	926	1	1	1	0
3	11	2	4	20	1	666	49	1	938	1	1	0	0
3	21	2	4	3	0	0	49	1	416	1	1	0	0
3	21	2	4	4	0	1	47	1	424	1	1	0	0
3	21	2	4	5	0	0	47	1	457	1	1	0	0
3	21	2	4	6	0	1	49	1	445	1	1	0	0
3	21	2	4	8	0	1	49	1	452	1	1	1	0
3	21	2	4	9	0	0	47	1	639	1	1	1	0
3	21	2	4	10	0	0	47	1	603	1	1	1	0
3	21	2	4	11	0	1	47	1	603	1	1	1	0
3	21	2	4	12	0	0	49	1	647	1	1	1	0
3	21	2	4	13	0	1	49	1	773	1	1	1	0
3	21	2	4	14	0	1	49	1	545	1	1	1	0
3	21	2	4	15	0	0	47	1	595	1	1	1	0
3	21	2	4	16	0	1	47	1	626	1	1	1	0
3	21	2	4	17	0	0	49	1	563	1	1	1	0
3	21	2	4	18	0	0	49	1	670	1	1	1	0
3	21	2	4	19	0	1	47	1	639	1	1	1	0
3	21	2	4	20	1	666	49	1	917	1	1	0	0
3	25	2	4	3	0	0	49	1	547	1	1	0	0
3	25	2	4	4	0	0	47	1	785	1	1	0	0
3	25	2	4	5	0	1	47	1	625	1	1	0	0
3	25	2	4	6	0	1	49	1	738	1	1	0	0
3	25	2	4	8	0	1	49	1	578	1	1	1	0
3	25	2	4	9	0	0	47	1	593	1	1	1	0
3	25	2	4	10	0	0	47	1	445	1	1	1	0
3	25	2	4	11	0	1	47	1	484	1	1	1	0
3	25	2	4	12	0	1	47	1	659	1	1	1	0
3	25	2	4	13	0	0	49	1	570	1	1	1	0
3	25	2	4	14	0	0	49	1	427	1	1	1	0
3	25	2	4	15	0	0	49	1	560	1	1	1	0
3	25	2	4	16	0	1	49	1	657	1	1	1	0
3	25	2	4	17	0	1	47	1	608	1	1	1	0
3	25	2	4	18	0	1	49	1	520	1	1	1	0
3	25	2	4	19	0	0	47	1	602	1	1	1	0
3	25	2	4	20	1	666	49	1	535	1	1	0	0
3	30	2	4	3	0	0	47	1	574	1	1	0	0
3	30	2	4	4	0	1	49	1	617	1	1	0	0
3	30	2	4	5	0	1	47	1	451	1	1	0	0
3	30	2	4	6	0	0	49	1	511	1	1	0	0
3	30	2	4	8	0	1	47	1	542	1	1	1	0
3	30	2	4	9	0	1	47	1	565	1	1	1	0
3	30	2	4	10	0	0	47	1	568	1	1	1	0
3	30	2	4	11	0	0	49	1	515	1	1	1	0
3	30	2	4	12	0	0	49	1	414	1	1	1	0
3	30	2	4	13	0	1	47	1	440	1	1	1	0
3	30	2	4	14	0	1	49	1	663	1	1	1	0
3	30	2	4	15	0	1	49	1	541	1	1	1	0
3	30	2	4	16	0	0	47	1	712	1	1	1	0
3	30	2	4	17	0	0	49	1	653	1	1	1	0
3	30	2	4	18	0	0	47	1	546	1	1	1	0
3	30	2	4	19	0	1	49	1	628	1	1	1	0
3	30	2	4	20	1	666	47	1	590	1	1	0	0
3	40	2	4	3	0	0	47	1	623	1	1	0	0
3	40	2	4	4	0	0	49	1	409	1	1	0	0
3	40	2	4	5	0	1	49	0	765	1	1	0	0
3	40	2	4	7	0	1	49	1	742	1	1	0	0
3	40	2	4	9	0	0	49	1	518	1	1	1	0
3	40	2	4	10	0	0	47	1	614	1	1	1	0
3	40	2	4	11	0	1	49	1	542	1	1	1	0
3	40	2	4	12	0	0	49	1	543	1	1	1	0
3	40	2	4	13	0	1	47	1	558	1	1	1	0
3	40	2	4	14	0	1	47	1	695	1	1	1	0
3	40	2	4	15	0	1	49	1	520	1	1	1	0
3	40	2	4	16	0	1	49	1	627	1	1	1	0
3	40	2	4	17	0	0	49	1	622	1	1	1	0
3	40	2	4	18	0	1	47	1	575	1	1	1	0
3	40	2	4	19	0	0	47	1	498	1	1	1	0
3	40	2	4	20	0	0	47	1	605	1	1	1	0
3	40	2	4	21	1	666	49	1	483	1	1	0	0
3	44	2	4	3	0	0	49	1	443	1	1	0	0
3	44	2	4	4	0	1	47	1	439	1	1	0	0
3	44	2	4	5	0	0	47	1	452	1	1	0	0
3	44	2	4	6	0	1	49	1	515	1	1	0	0
3	44	2	4	8	0	1	49	1	509	1	1	1	0
3	44	2	4	9	0	1	49	1	539	1	1	1	0
3	44	2	4	10	0	1	49	1	517	1	1	1	0
3	44	2	4	11	0	1	47	1	446	1	1	1	0
3	44	2	4	12	0	1	47	1	472	1	1	1	0
3	44	2	4	13	0	0	47	1	607	1	1	1	0
3	44	2	4	14	0	0	47	1	622	1	1	1	0
3	44	2	4	15	0	0	49	1	575	1	1	1	0
3	44	2	4	16	0	0	49	1	526	1	1	1	0
3	44	2	4	17	0	0	47	1	463	1	1	1	0
3	44	2	4	18	0	0	49	1	469	1	1	1	0
3	44	2	4	19	0	1	47	1	650	1	1	1	0
3	44	2	4	20	1	666	47	1	622	1	1	0	0
3	56	2	4	3	0	0	47	1	662	1	0	0	0
3	56	2	4	4	0	0	49	1	437	1	0	0	0
3	56	2	4	5	0	1	49	1	530	1	0	0	0
3	56	2	4	6	0	1	47	1	472	1	0	0	0
3	56	2	4	8	0	1	47	1	630	1	0	1	0
3	56	2	4	9	0	0	49	1	596	1	0	1	0
3	56	2	4	10	0	1	47	0	611	1	0	1	0
3	56	2	4	12	0	1	49	1	605	1	0	1	0
3	56	2	4	13	0	1	49	1	549	1	0	1	0
3	56	2	4	14	0	0	47	1	651	1	0	1	0
3	56	2	4	15	0	1	47	1	843	1	0	1	0
3	56	2	4	16	0	0	49	1	701	1	0	1	0
3	56	2	4	17	0	0	47	1	525	1	0	1	0
3	56	2	4	18	0	1	47	1	585	1	0	1	0
3	56	2	4	19	0	0	47	1	586	1	0	1	0
3	56	2	4	20	0	0	49	1	692	1	0	1	0
3	56	2	4	21	1	666	47	0	786	1	0	0	0
3	13	0	4	3	0	1	47	1	879	1	1	0	1
3	13	0	4	4	0	0	49	1	592	1	1	0	1
3	13	0	4	5	0	1	49	1	648	1	1	0	1
3	13	0	4	6	0	0	47	1	612	1	1	0	1
3	13	0	4	7	1	666	47	1	850	1	1	0	1
3	16	0	4	3	0	0	49	1	725	1	1	0	1
3	16	0	4	4	0	0	47	1	478	1	1	0	1
3	16	0	4	5	0	1	47	1	629	1	1	0	1
3	16	0	4	6	0	1	49	1	541	1	1	0	1
3	16	0	4	7	1	666	49	1	801	1	1	0	1
3	27	0	4	3	0	0	47	1	648	1	1	0	1
3	27	0	4	4	0	0	49	1	518	1	1	0	1
3	27	0	4	5	0	1	47	0	413	1	1	0	1
3	27	0	4	7	0	1	47	1	531	1	1	0	1
3	27	0	4	8	1	666	47	1	709	1	1	0	1
3	31	0	4	3	0	1	47	1	629	1	1	0	1
3	31	0	4	4	0	0	49	1	450	1	1	0	1
3	31	0	4	5	0	0	47	1	590	1	1	0	1
3	31	0	4	6	0	1	49	1	534	1	1	0	1
3	31	0	4	7	1	666	47	1	778	1	1	0	1
3	39	0	4	3	0	0	49	1	628	1	0	0	1
3	39	0	4	4	0	1	47	1	708	1	0	0	1
3	39	0	4	5	0	0	47	1	541	1	0	0	1
3	39	0	4	6	0	1	49	1	565	1	0	0	1
3	39	0	4	7	1	666	49	0	695	1	0	0	1
3	48	0	4	3	0	0	47	1	610	1	1	0	1
3	48	0	4	4	0	1	49	1	504	1	1	0	1
3	48	0	4	5	0	0	49	1	427	1	1	0	1
3	48	0	4	6	0	1	47	1	458	1	1	0	1
3	48	0	4	7	1	666	49	1	550	1	1	0	1
3	51	0	4	3	0	1	49	0	562	1	0	0	1
3	51	0	4	5	0	0	49	1	720	1	0	0	1
3	51	0	4	6	0	1	49	1	441	1	0	0	1
3	51	0	4	7	0	0	47	1	678	1	0	0	1
3	51	0	4	8	1	666	49	0	703	1	0	0	1
3	10	1	4	3	0	1	49	1	875	1	1	0	2
3	10	1	4	4	0	0	47	1	720	1	1	0	2
3	10	1	4	5	0	1	47	1	1052	1	1	0	2
3	10	1	4	6	0	0	49	1	646	1	1	0	2
3	10	1	4	9	0	0	49	1	610	1	1	1	2
3	10	1	4	10	0	0	49	1	447	1	1	1	2
3	10	1	4	11	0	1	49	1	486	1	1	1	2
3	10	1	4	12	0	0	49	1	415	1	1	1	2
3	10	1	4	13	0	1	47	1	757	1	1	1	2
3	10	1	4	14	0	1	49	1	452	1	1	1	2
3	10	1	4	15	0	1	47	1	807	1	1	1	2
3	10	1	4	16	0	0	47	1	618	1	1	1	2
3	10	1	4	17	0	0	47	1	789	1	1	1	2
3	10	1	4	18	0	1	47	1	754	1	1	1	2
3	10	1	4	19	0	0	47	1	670	1	1	1	2
3	10	1	4	20	0	1	49	1	573	1	1	1	2
3	10	1	4	21	1	666	49	1	752	1	1	0	2
3	20	1	4	3	0	1	49	0	906	1	1	0	2
3	20	1	4	5	0	1	49	1	1106	1	1	0	2
3	20	1	4	6	0	0	49	1	608	1	1	0	2
3	20	1	4	7	0	0	47	1	661	1	1	0	2
3	20	1	4	10	0	0	47	1	610	1	1	1	2
3	20	1	4	11	0	0	49	1	590	1	1	1	2
3	20	1	4	12	0	1	47	1	621	1	1	1	2
3	20	1	4	13	0	1	49	1	447	1	1	1	2
3	20	1	4	14	0	0	47	1	540	1	1	1	2
3	20	1	4	15	0	1	47	1	617	1	1	1	2
3	20	1	4	16	0	1	49	1	616	1	1	1	2
3	20	1	4	17	0	0	47	1	753	1	1	1	2
3	20	1	4	18	0	1	49	1	498	1	1	1	2
3	20	1	4	19	0	1	47	1	426	1	1	1	2
3	20	1	4	20	0	0	49	1	458	1	1	1	2
3	20	1	4	21	0	0	49	1	431	1	1	1	2
3	20	1	4	22	1	666	47	1	595	1	1	0	2
3	24	1	4	3	0	1	47	1	589	1	1	0	2
3	24	1	4	4	0	0	49	1	440	1	1	0	2
3	24	1	4	5	0	1	47	0	532	1	1	0	2
3	24	1	4	7	0	0	47	1	667	1	1	0	2
3	24	1	4	10	0	1	49	1	590	1	1	1	2
3	24	1	4	11	0	0	49	1	486	1	1	1	2
3	24	1	4	12	0	0	47	1	474	1	1	1	2
3	24	1	4	13	0	1	47	1	674	1	1	1	2
3	24	1	4	14	0	1	49	1	437	1	1	1	2
3	24	1	4	15	0	0	49	1	470	1	1	1	2
3	24	1	4	16	0	0	49	1	510	1	1	1	2
3	24	1	4	17	0	0	47	1	643	1	1	1	2
3	24	1	4	18	0	1	47	1	551	1	1	1	2
3	24	1	4	19	0	0	47	1	585	1	1	1	2
3	24	1	4	20	0	1	49	1	551	1	1	1	2
3	24	1	4	21	0	1	47	1	528	1	1	1	2
3	24	1	4	22	1	666	49	1	602	1	1	0	2
3	35	1	4	3	0	0	49	1	616	1	1	0	2
3	35	1	4	4	0	1	49	1	895	1	1	0	2
3	35	1	4	5	0	0	47	1	537	1	1	0	2
3	35	1	4	6	0	1	47	1	585	1	1	0	2
3	35	1	4	9	0	0	49	1	595	1	1	1	2
3	35	1	4	10	0	0	49	1	629	1	1	1	2
3	35	1	4	11	0	0	47	1	530	1	1	1	2
3	35	1	4	12	0	1	49	1	547	1	1	1	2
3	35	1	4	13	0	1	47	1	867	1	1	1	2
3	35	1	4	14	0	1	49	1	708	1	1	1	2
3	35	1	4	15	0	0	49	1	637	1	1	1	2
3	35	1	4	16	0	1	47	1	786	1	1	1	2
3	35	1	4	17	0	1	47	1	697	1	1	1	2
3	35	1	4	18	0	0	47	1	609	1	1	1	2
3	35	1	4	19	0	1	49	1	549	1	1	1	2
3	35	1	4	20	0	0	47	1	610	1	1	1	2
3	35	1	4	21	1	666	49	1	587	1	1	0	2
3	41	1	4	3	0	1	49	1	600	1	1	0	2
3	41	1	4	4	0	0	49	1	450	1	1	0	2
3	41	1	4	5	0	1	47	1	545	1	1	0	2
3	41	1	4	6	0	0	47	1	409	1	1	0	2
3	41	1	4	9	0	0	47	1	1110	1	1	1	2
3	41	1	4	10	0	1	49	1	500	1	1	1	2
3	41	1	4	11	0	1	47	1	736	1	1	1	2
3	41	1	4	12	0	0	49	1	524	1	1	1	2
3	41	1	4	13	0	0	49	1	567	1	1	1	2
3	41	1	4	14	0	1	47	1	593	1	1	1	2
3	41	1	4	15	0	1	47	1	660	1	1	1	2
3	41	1	4	16	0	1	49	1	594	1	1	1	2
3	41	1	4	17	0	0	49	1	519	1	1	1	2
3	41	1	4	18	0	0	47	1	559	1	1	1	2
3	41	1	4	19	0	1	49	1	461	1	1	1	2
3	41	1	4	20	0	0	47	1	492	1	1	1	2
3	41	1	4	21	1	666	49	1	614	1	1	0	2
3	49	1	4	3	0	0	47	1	556	1	1	0	2
3	49	1	4	4	0	0	49	1	345	1	1	0	2
3	49	1	4	5	0	1	47	1	430	1	1	0	2
3	49	1	4	6	0	1	49	1	624	1	1	0	2
3	49	1	4	9	0	0	47	1	535	1	1	1	2
3	49	1	4	10	0	0	49	1	379	1	1	1	2
3	49	1	4	11	0	1	49	1	447	1	1	1	2
3	49	1	4	12	0	1	49	1	455	1	1	1	2
3	49	1	4	13	0	1	47	1	412	1	1	1	2
3	49	1	4	14	0	1	47	1	459	1	1	1	2
3	49	1	4	15	0	1	49	1	438	1	1	1	2
3	49	1	4	16	0	0	47	1	401	1	1	1	2
3	49	1	4	17	0	0	49	1	370	1	1	1	2
3	49	1	4	18	0	0	47	0	467	1	1	1	2
3	49	1	4	20	0	0	47	1	400	1	1	1	2
3	49	1	4	21	0	1	47	1	450	1	1	1	2
3	49	1	4	22	1	666	49	1	420	1	1	0	2
3	55	1	4	3	0	1	49	0	674	1	1	0	2
3	55	1	4	5	0	0	47	1	506	1	1	0	2
3	55	1	4	6	0	0	49	1	578	1	1	0	2
3	55	1	4	7	0	1	49	1	499	1	1	0	2
3	55	1	4	10	0	1	47	1	597	1	1	1	2
3	55	1	4	11	0	1	49	1	379	1	1	1	2
3	55	1	4	12	0	0	47	1	601	1	1	1	2
3	55	1	4	13	0	0	49	1	547	1	1	1	2
3	55	1	4	14	0	1	49	1	523	1	1	1	2
3	55	1	4	15	0	0	47	0	422	1	1	1	2
3	55	1	4	17	0	0	47	1	770	1	1	1	2
3	55	1	4	18	0	1	47	1	530	1	1	1	2
3	55	1	4	19	0	0	47	1	473	1	1	1	2
3	55	1	4	20	0	0	49	1	414	1	1	1	2
3	55	1	4	21	0	1	49	1	497	1	1	1	2
3	55	1	4	22	0	1	47	1	784	1	1	1	2
3	55	1	4	23	1	666	47	1	567	1	1	0	2
4	11	2	0	4	0	0	47	1	968	1	1	1	0
4	11	2	0	5	0	1	49	1	1005	1	1	1	0
4	11	2	0	6	0	1	47	1	752	1	1	1	0
4	11	2	0	7	0	1	49	1	613	1	1	1	0
4	11	2	0	8	0	0	49	1	551	1	1	1	0
4	11	2	0	9	0	1	47	1	612	1	1	1	0
4	11	2	0	10	0	0	49	1	639	1	1	1	0
4	11	2	0	11	0	0	49	1	578	1	1	1	0
4	11	2	0	12	0	1	49	1	668	1	1	1	0
4	11	2	0	13	0	0	47	1	424	1	1	1	0
4	11	2	0	14	0	1	47	1	705	1	1	1	0
4	11	2	0	15	0	0	47	1	732	1	1	1	0
4	11	2	0	16	1	666	47	1	1241	1	1	0	0
4	17	2	0	4	0	1	47	1	1038	1	1	1	0
4	17	2	0	5	0	0	47	1	677	1	1	1	0
4	17	2	0	6	0	0	49	1	407	1	1	1	0
4	17	2	0	7	0	0	47	1	437	1	1	1	0
4	17	2	0	8	0	1	49	1	369	1	1	1	0
4	17	2	0	9	0	1	49	1	478	1	1	1	0
4	17	2	0	10	0	0	49	1	478	1	1	1	0
4	17	2	0	11	0	1	47	1	581	1	1	1	0
4	17	2	0	12	0	0	49	1	561	1	1	1	0
4	17	2	0	13	0	0	47	1	410	1	1	1	0
4	17	2	0	14	0	1	49	1	570	1	1	1	0
4	17	2	0	15	0	1	47	1	620	1	1	1	0
4	17	2	0	16	1	666	47	1	889	1	1	0	0
4	28	2	0	4	0	1	49	1	564	1	1	1	0
4	28	2	0	5	0	0	47	1	502	1	1	1	0
4	28	2	0	6	0	0	49	1	484	1	1	1	0
4	28	2	0	7	0	0	47	1	456	1	1	1	0
4	28	2	0	8	0	1	49	0	396	1	1	1	0
4	28	2	0	10	0	0	49	1	552	1	1	1	0
4	28	2	0	11	0	1	49	1	656	1	1	1	0
4	28	2	0	12	0	1	47	1	572	1	1	1	0
4	28	2	0	13	0	0	49	1	661	1	1	1	0
4	28	2	0	14	0	1	49	1	655	1	1	1	0
4	28	2	0	15	0	0	47	1	517	1	1	1	0
4	28	2	0	16	0	1	49	0	590	1	1	1	0
4	28	2	0	18	1	666	47	1	1214	1	1	0	0
4	32	2	0	4	0	0	49	1	605	1	0	1	0
4	32	2	0	5	0	1	47	1	1569	1	0	1	0
4	32	2	0	6	0	0	49	1	498	1	0	1	0
4	32	2	0	7	0	1	47	1	456	1	0	1	0
4	32	2	0	8	0	0	47	1	529	1	0	1	0
4	32	2	0	9	0	1	49	1	496	1	0	1	0
4	32	2	0	10	0	1	49	1	441	1	0	1	0
4	32	2	0	11	0	0	47	1	518	1	0	1	0
4	32	2	0	12	0	1	49	0	486	1	0	1	0
4	32	2	0	14	0	0	49	1	440	1	0	1	0
4	32	2	0	15	0	0	47	1	455	1	0	1	0
4	32	2	0	16	0	1	49	1	508	1	0	1	0
4	32	2	0	17	1	666	0	0	1750	1	0	0	0
4	40	2	0	4	0	1	47	1	871	1	1	1	0
4	40	2	0	5	0	0	49	1	558	1	1	1	0
4	40	2	0	6	0	1	49	1	492	1	1	1	0
4	40	2	0	7	0	1	47	1	497	1	1	1	0
4	40	2	0	8	0	1	49	1	613	1	1	1	0
4	40	2	0	9	0	1	47	1	495	1	1	1	0
4	40	2	0	10	0	0	47	1	575	1	1	1	0
4	40	2	0	11	0	0	49	1	493	1	1	1	0
4	40	2	0	12	0	1	49	1	510	1	1	1	0
4	40	2	0	13	0	0	47	1	557	1	1	1	0
4	40	2	0	14	0	0	49	1	404	1	1	1	0
4	40	2	0	15	0	0	47	1	535	1	1	1	0
4	40	2	0	16	1	666	49	1	873	1	1	0	0
4	45	2	0	4	0	1	49	1	525	1	1	1	0
4	45	2	0	5	0	0	47	1	650	1	1	1	0
4	45	2	0	6	0	1	49	1	588	1	1	1	0
4	45	2	0	7	0	0	49	1	394	1	1	1	0
4	45	2	0	8	0	1	47	1	533	1	1	1	0
4	45	2	0	9	0	1	49	1	505	1	1	1	0
4	45	2	0	10	0	1	47	1	434	1	1	1	0
4	45	2	0	11	0	0	47	1	687	1	1	1	0
4	45	2	0	12	0	0	49	1	508	1	1	1	0
4	45	2	0	13	0	0	49	1	425	1	1	1	0
4	45	2	0	14	0	1	47	1	511	1	1	1	0
4	45	2	0	15	0	0	47	1	528	1	1	1	0
4	45	2	0	16	1	666	49	1	723	1	1	0	0
4	56	2	0	4	0	0	49	1	457	1	1	1	0
4	56	2	0	5	0	1	49	1	372	1	1	1	0
4	56	2	0	6	0	0	47	1	460	1	1	1	0
4	56	2	0	7	0	0	47	1	419	1	1	1	0
4	56	2	0	8	0	0	49	1	397	1	1	1	0
4	56	2	0	9	0	1	49	1	373	1	1	1	0
4	56	2	0	10	0	1	47	1	426	1	1	1	0
4	56	2	0	11	0	1	47	1	468	1	1	1	0
4	56	2	0	12	0	0	49	1	466	1	1	1	0
4	56	2	0	13	0	1	49	1	451	1	1	1	0
4	56	2	0	14	0	1	47	1	460	1	1	1	0
4	56	2	0	15	0	0	47	1	443	1	1	1	0
4	56	2	0	16	1	666	49	1	736	1	1	0	0
4	9	0	0	3	1	666	49	1	886	1	1	0	1
4	20	0	0	3	1	666	49	1	575	1	1	0	1
4	25	0	0	3	1	666	47	1	643	1	1	0	1
4	33	0	0	3	1	666	49	1	924	1	1	0	1
4	38	0	0	3	1	666	49	1	870	1	1	0	1
4	48	0	0	3	1	666	47	1	648	1	1	0	1
4	54	0	0	3	1	666	49	1	731	1	1	0	1
4	13	1	0	5	0	1	49	1	610	1	1	1	2
4	13	1	0	6	0	1	47	1	449	1	1	1	2
4	13	1	0	7	0	0	49	1	977	1	1	1	2
4	13	1	0	8	0	0	47	1	570	1	1	1	2
4	13	1	0	9	0	1	47	1	593	1	1	1	2
4	13	1	0	10	0	0	49	1	517	1	1	1	2
4	13	1	0	11	0	1	49	1	928	1	1	1	2
4	13	1	0	12	0	0	49	1	509	1	1	1	2
4	13	1	0	13	0	1	49	1	652	1	1	1	2
4	13	1	0	14	0	1	47	1	594	1	1	1	2
4	13	1	0	15	0	0	47	1	610	1	1	1	2
4	13	1	0	16	0	0	47	1	738	1	1	1	2
4	13	1	0	17	1	666	49	1	810	1	1	0	2
4	19	1	0	5	0	1	49	1	697	1	1	1	2
4	19	1	0	6	0	1	47	1	440	1	1	1	2
4	19	1	0	7	0	0	49	1	579	1	1	1	2
4	19	1	0	8	0	0	47	1	468	1	1	1	2
4	19	1	0	9	0	1	47	1	613	1	1	1	2
4	19	1	0	10	0	0	49	1	626	1	1	1	2
4	19	1	0	11	0	1	49	1	414	1	1	1	2
4	19	1	0	12	0	1	49	1	559	1	1	1	2
4	19	1	0	13	0	0	47	1	434	1	1	1	2
4	19	1	0	14	0	1	47	1	590	1	1	1	2
4	19	1	0	15	0	0	47	1	380	1	1	1	2
4	19	1	0	16	0	0	49	1	402	1	1	1	2
4	19	1	0	17	1	666	49	1	657	1	1	0	2
4	24	1	0	5	0	1	47	1	848	1	1	1	2
4	24	1	0	6	0	0	47	1	468	1	1	1	2
4	24	1	0	7	0	1	47	1	504	1	1	1	2
4	24	1	0	8	0	0	47	1	445	1	1	1	2
4	24	1	0	9	0	0	49	1	567	1	1	1	2
4	24	1	0	10	0	0	49	1	584	1	1	1	2
4	24	1	0	11	0	0	49	1	418	1	1	1	2
4	24	1	0	12	0	1	49	1	552	1	1	1	2
4	24	1	0	13	0	1	47	1	546	1	1	1	2
4	24	1	0	14	0	1	49	1	682	1	1	1	2
4	24	1	0	15	0	0	47	1	535	1	1	1	2
4	24	1	0	16	0	1	49	1	416	1	1	1	2
4	24	1	0	17	1	666	49	1	746	1	1	0	2
4	30	1	0	5	0	1	47	1	1214	1	1	1	2
4	30	1	0	6	0	0	0	0	1750	1	1	1	2
4	30	1	0	8	0	1	47	1	631	1	1	1	2
4	30	1	0	9	0	0	49	1	483	1	1	1	2
4	30	1	0	10	0	0	49	1	461	1	1	1	2
4	30	1	0	11	0	1	49	1	590	1	1	1	2
4	30	1	0	12	0	1	49	1	505	1	1	1	2
4	30	1	0	13	0	0	47	1	568	1	1	1	2
4	30	1	0	14	0	1	49	1	682	1	1	1	2
4	30	1	0	15	0	0	49	1	678	1	1	1	2
4	30	1	0	16	0	1	47	1	588	1	1	1	2
4	30	1	0	17	0	0	47	1	815	1	1	1	2
4	30	1	0	18	1	666	49	1	898	1	1	0	2
4	41	1	0	5	0	1	49	1	821	1	1	1	2
4	41	1	0	6	0	0	49	1	774	1	1	1	2
4	41	1	0	7	0	1	47	1	597	1	1	1	2
4	41	1	0	8	0	0	47	1	663	1	1	1	2
4	41	1	0	9	0	1	49	1	532	1	1	1	2
4	41	1	0	10	0	0	47	1	476	1	1	1	2
4	41	1	0	11	0	0	49	1	439	1	1	1	2
4	41	1	0	12	0	0	49	1	485	1	1	1	2
4	41	1	0	13	0	1	47	1	578	1	1	1	2
4	41	1	0	14	0	1	49	1	512	1	1	1	2
4	41	1	0	15	0	1	47	1	1087	1	1	1	2
4	41	1	0	16	0	0	47	1	545	1	1	1	2
4	41	1	0	17	1	666	47	1	862	1	1	0	2
4	46	1	0	5	0	0	49	1	534	1	1	1	2
4	46	1	0	6	0	1	47	1	583	1	1	1	2
4	46	1	0	7	0	1	49	1	673	1	1	1	2
4	46	1	0	8	0	0	47	1	641	1	1	1	2
4	46	1	0	9	0	0	49	1	496	1	1	1	2
4	46	1	0	10	0	0	49	1	631	1	1	1	2
4	46	1	0	11	0	0	47	1	468	1	1	1	2
4	46	1	0	12	0	1	49	1	419	1	1	1	2
4	46	1	0	13	0	0	47	1	553	1	1	1	2
4	46	1	0	14	0	1	47	1	517	1	1	1	2
4	46	1	0	15	0	1	49	1	580	1	1	1	2
4	46	1	0	16	0	1	47	1	618	1	1	1	2
4	46	1	0	17	1	666	49	1	1050	1	1	0	2
4	51	1	0	5	0	1	47	1	625	1	1	1	2
4	51	1	0	6	0	0	47	1	385	1	1	1	2
4	51	1	0	7	0	1	47	1	477	1	1	1	2
4	51	1	0	8	0	0	49	1	456	1	1	1	2
4	51	1	0	9	0	0	47	1	456	1	1	1	2
4	51	1	0	10	0	0	49	1	495	1	1	1	2
4	51	1	0	11	0	1	47	1	521	1	1	1	2
4	51	1	0	12	0	1	49	1	515	1	1	1	2
4	51	1	0	13	0	1	49	1	514	1	1	1	2
4	51	1	0	14	0	1	49	1	397	1	1	1	2
4	51	1	0	15	0	0	49	1	542	1	1	1	2
4	51	1	0	16	0	0	47	1	461	1	1	1	2
4	51	1	0	17	1	666	47	1	742	1	1	0	2
4	12	2	4	3	0	0	47	1	637	1	1	0	0
4	12	2	4	4	0	0	49	1	645	1	1	0	0
4	12	2	4	5	0	1	49	1	485	1	1	0	0
4	12	2	4	6	0	1	47	1	391	1	1	0	0
4	12	2	4	8	0	1	47	1	764	1	1	1	0
4	12	2	4	9	0	0	49	1	581	1	1	1	0
4	12	2	4	10	0	0	47	1	580	1	1	1	0
4	12	2	4	11	0	1	49	1	583	1	1	1	0
4	12	2	4	12	0	0	47	1	517	1	1	1	0
4	12	2	4	13	0	1	49	1	544	1	1	1	0
4	12	2	4	14	0	1	47	1	395	1	1	1	0
4	12	2	4	15	0	0	49	1	655	1	1	1	0
4	12	2	4	16	0	1	47	1	552	1	1	1	0
4	12	2	4	17	0	1	49	1	651	1	1	1	0
4	12	2	4	18	0	0	47	1	537	1	1	1	0
4	12	2	4	19	0	0	49	1	518	1	1	1	0
4	12	2	4	20	1	666	49	1	874	1	1	0	0
4	21	2	4	3	0	1	47	1	708	1	1	0	0
4	21	2	4	4	0	1	49	1	652	1	1	0	0
4	21	2	4	5	0	0	47	1	649	1	1	0	0
4	21	2	4	6	0	0	49	1	461	1	1	0	0
4	21	2	4	8	0	0	47	1	603	1	1	1	0
4	21	2	4	9	0	0	49	1	563	1	1	1	0
4	21	2	4	10	0	1	47	1	638	1	1	1	0
4	21	2	4	11	0	0	49	1	402	1	1	1	0
4	21	2	4	12	0	1	49	1	921	1	1	1	0
4	21	2	4	13	0	1	49	1	483	1	1	1	0
4	21	2	4	14	0	0	49	1	478	1	1	1	0
4	21	2	4	15	0	0	47	1	1663	1	1	1	0
4	21	2	4	16	0	1	49	1	622	1	1	1	0
4	21	2	4	17	0	1	47	1	1188	1	1	1	0
4	21	2	4	18	0	1	47	1	581	1	1	1	0
4	21	2	4	19	0	0	47	1	719	1	1	1	0
4	21	2	4	20	1	666	47	1	629	1	1	0	0
4	27	2	4	3	0	1	47	1	985	1	1	0	0
4	27	2	4	4	0	0	49	1	585	1	1	0	0
4	27	2	4	5	0	1	49	1	459	1	1	0	0
4	27	2	4	6	0	0	47	1	491	1	1	0	0
4	27	2	4	8	0	1	49	1	957	1	1	1	0
4	27	2	4	9	0	0	49	1	363	1	1	1	0
4	27	2	4	10	0	1	49	1	455	1	1	1	0
4	27	2	4	11	0	1	49	1	408	1	1	1	0
4	27	2	4	12	0	0	47	1	556	1	1	1	0
4	27	2	4	13	0	0	47	1	766	1	1	1	0
4	27	2	4	14	0	0	47	1	389	1	1	1	0
4	27	2	4	15	0	1	47	1	797	1	1	1	0
4	27	2	4	16	0	1	47	1	391	1	1	1	0
4	27	2	4	17	0	1	47	1	375	1	1	1	0
4	27	2	4	18	0	0	49	1	473	1	1	1	0
4	27	2	4	19	0	0	49	1	490	1	1	1	0
4	27	2	4	20	1	666	47	1	560	1	1	0	0
4	31	2	4	3	0	1	47	1	758	1	1	0	0
4	31	2	4	4	0	0	47	1	511	1	1	0	0
4	31	2	4	5	0	0	47	0	369	1	1	0	0
4	31	2	4	7	0	1	49	1	696	1	1	0	0
4	31	2	4	9	0	1	49	1	648	1	1	1	0
4	31	2	4	10	0	0	49	1	856	1	1	1	0
4	31	2	4	11	0	1	47	1	619	1	1	1	0
4	31	2	4	12	0	0	49	1	437	1	1	1	0
4	31	2	4	13	0	0	0	0	1750	1	1	1	0
4	31	2	4	15	0	0	47	1	1179	1	1	1	0
4	31	2	4	16	0	0	0	0	1750	1	1	1	0
4	31	2	4	18	0	1	47	1	620	1	1	1	0
4	31	2	4	19	0	1	49	1	635	1	1	1	0
4	31	2	4	20	0	1	49	1	429	1	1	1	0
4	31	2	4	21	0	0	49	1	422	1	1	1	0
4	31	2	4	22	0	1	49	0	378	1	1	1	0
4	31	2	4	24	1	666	49	1	695	1	1	0	0
4	42	2	4	3	0	0	47	1	670	1	1	0	0
4	42	2	4	4	0	1	47	1	614	1	1	0	0
4	42	2	4	5	0	1	49	1	472	1	1	0	0
4	42	2	4	6	0	0	49	1	420	1	1	0	0
4	42	2	4	8	0	0	47	1	514	1	1	1	0
4	42	2	4	9	0	1	49	1	628	1	1	1	0
4	42	2	4	10	0	0	47	1	549	1	1	1	0
4	42	2	4	11	0	0	47	1	544	1	1	1	0
4	42	2	4	12	0	1	47	1	389	1	1	1	0
4	42	2	4	13	0	1	47	1	447	1	1	1	0
4	42	2	4	14	0	1	49	1	395	1	1	1	0
4	42	2	4	15	0	0	49	1	498	1	1	1	0
4	42	2	4	16	0	0	49	1	452	1	1	1	0
4	42	2	4	17	0	1	47	1	545	1	1	1	0
4	42	2	4	18	0	1	49	1	491	1	1	1	0
4	42	2	4	19	0	0	49	1	481	1	1	1	0
4	42	2	4	20	1	666	47	1	643	1	1	0	0
4	47	2	4	3	0	1	47	1	1369	1	1	0	0
4	47	2	4	4	0	0	47	1	620	1	1	0	0
4	47	2	4	5	0	0	49	1	721	1	1	0	0
4	47	2	4	6	0	1	49	1	568	1	1	0	0
4	47	2	4	8	0	1	47	1	799	1	1	1	0
4	47	2	4	9	0	1	49	1	524	1	1	1	0
4	47	2	4	10	0	1	49	1	466	1	1	1	0
4	47	2	4	11	0	0	49	1	597	1	1	1	0
4	47	2	4	12	0	1	47	1	544	1	1	1	0
4	47	2	4	13	0	1	47	1	565	1	1	1	0
4	47	2	4	14	0	0	47	1	690	1	1	1	0
4	47	2	4	15	0	1	49	1	566	1	1	1	0
4	47	2	4	16	0	0	47	1	542	1	1	1	0
4	47	2	4	17	0	0	49	1	509	1	1	1	0
4	47	2	4	18	0	0	49	1	522	1	1	1	0
4	47	2	4	19	0	0	47	1	500	1	1	1	0
4	47	2	4	20	1	666	47	1	775	1	1	0	0
4	52	2	4	3	0	0	49	1	478	1	1	0	0
4	52	2	4	4	0	0	47	1	742	1	1	0	0
4	52	2	4	5	0	1	47	1	707	1	1	0	0
4	52	2	4	6	0	1	49	1	668	1	1	0	0
4	52	2	4	8	0	0	47	1	823	1	1	1	0
4	52	2	4	9	0	0	49	1	358	1	1	1	0
4	52	2	4	10	0	1	47	1	797	1	1	1	0
4	52	2	4	11	0	1	49	1	514	1	1	1	0
4	52	2	4	12	0	1	49	1	446	1	1	1	0
4	52	2	4	13	0	0	49	1	718	1	1	1	0
4	52	2	4	14	0	1	49	0	435	1	1	1	0
4	52	2	4	16	0	1	47	1	646	1	1	1	0
4	52	2	4	17	0	0	49	1	502	1	1	1	0
4	52	2	4	18	0	1	49	1	633	1	1	1	0
4	52	2	4	19	0	0	47	1	459	1	1	1	0
4	52	2	4	20	0	0	47	1	485	1	1	1	0
4	52	2	4	21	1	666	49	1	675	1	1	0	0
4	10	0	4	3	0	1	49	1	1205	1	1	0	1
4	10	0	4	4	0	0	47	1	479	1	1	0	1
4	10	0	4	5	0	0	49	1	470	1	1	0	1
4	10	0	4	6	0	1	47	1	721	1	1	0	1
4	10	0	4	7	1	666	49	1	830	1	1	0	1
4	16	0	4	3	0	0	47	1	599	1	1	0	1
4	16	0	4	4	0	1	47	1	338	1	1	0	1
4	16	0	4	5	0	1	49	1	549	1	1	0	1
4	16	0	4	6	0	0	49	1	340	1	1	0	1
4	16	0	4	7	1	666	49	1	797	1	1	0	1
4	26	0	4	3	0	0	49	1	544	1	1	0	1
4	26	0	4	4	0	0	47	1	638	1	1	0	1
4	26	0	4	5	0	1	49	1	627	1	1	0	1
4	26	0	4	6	0	1	47	1	432	1	1	0	1
4	26	0	4	7	1	666	47	1	932	1	1	0	1
4	35	0	4	3	0	1	47	1	863	1	1	0	1
4	35	0	4	4	0	0	49	1	522	1	1	0	1
4	35	0	4	5	0	1	49	1	604	1	1	0	1
4	35	0	4	6	0	0	47	1	503	1	1	0	1
4	35	0	4	7	1	666	47	1	791	1	1	0	1
4	39	0	4	3	0	0	49	1	543	1	1	0	1
4	39	0	4	4	0	1	47	1	701	1	1	0	1
4	39	0	4	5	0	1	49	1	405	1	1	0	1
4	39	0	4	6	0	0	47	1	560	1	1	0	1
4	39	0	4	7	1	666	47	1	725	1	1	0	1
4	44	0	4	3	0	1	49	1	553	1	1	0	1
4	44	0	4	4	0	0	49	1	483	1	1	0	1
4	44	0	4	5	0	1	47	1	419	1	1	0	1
4	44	0	4	6	0	0	47	1	377	1	1	0	1
4	44	0	4	7	1	666	49	1	834	1	1	0	1
4	53	0	4	3	0	0	49	1	723	1	1	0	1
4	53	0	4	4	0	1	47	1	509	1	1	0	1
4	53	0	4	5	0	1	49	1	420	1	1	0	1
4	53	0	4	6	0	0	47	1	475	1	1	0	1
4	53	0	4	7	1	666	49	1	523	1	1	0	1
4	14	1	4	3	0	1	47	1	848	1	1	0	2
4	14	1	4	4	0	0	47	1	503	1	1	0	2
4	14	1	4	5	0	0	49	1	438	1	1	0	2
4	14	1	4	6	0	1	49	1	482	1	1	0	2
4	14	1	4	9	0	1	49	1	525	1	1	1	2
4	14	1	4	10	0	0	49	1	612	1	1	1	2
4	14	1	4	11	0	0	47	1	407	1	1	1	2
4	14	1	4	12	0	0	49	1	638	1	1	1	2
4	14	1	4	13	0	1	47	1	507	1	1	1	2
4	14	1	4	14	0	1	49	1	366	1	1	1	2
4	14	1	4	15	0	0	49	0	866	1	1	1	2
4	14	1	4	17	0	1	47	1	1019	1	1	1	2
4	14	1	4	18	0	0	47	1	486	1	1	1	2
4	14	1	4	19	0	1	47	1	693	1	1	1	2
4	14	1	4	20	0	0	49	1	415	1	1	1	2
4	14	1	4	21	0	1	49	1	402	1	1	1	2
4	14	1	4	22	1	666	49	1	1709	1	1	0	2
4	18	1	4	3	0	0	47	1	663	1	1	0	2
4	18	1	4	4	0	1	47	1	449	1	1	0	2
4	18	1	4	5	0	0	49	1	499	1	1	0	2
4	18	1	4	6	0	1	49	1	417	1	1	0	2
4	18	1	4	9	0	0	49	1	619	1	1	1	2
4	18	1	4	10	0	0	49	1	623	1	1	1	2
4	18	1	4	11	0	0	47	1	572	1	1	1	2
4	18	1	4	12	0	0	49	1	608	1	1	1	2
4	18	1	4	13	0	1	49	1	589	1	1	1	2
4	18	1	4	14	0	0	47	1	522	1	1	1	2
4	18	1	4	15	0	0	47	1	575	1	1	1	2
4	18	1	4	16	0	1	49	1	502	1	1	1	2
4	18	1	4	17	0	1	47	1	851	1	1	1	2
4	18	1	4	18	0	1	47	1	546	1	1	1	2
4	18	1	4	19	0	1	47	1	582	1	1	1	2
4	18	1	4	20	0	1	49	1	493	1	1	1	2
4	18	1	4	21	1	666	47	1	1152	1	1	0	2
4	23	1	4	3	0	1	47	1	812	1	1	0	2
4	23	1	4	4	0	0	47	1	571	1	1	0	2
4	23	1	4	5	0	1	49	1	581	1	1	0	2
4	23	1	4	6	0	0	49	1	449	1	1	0	2
4	23	1	4	9	0	0	49	1	844	1	1	1	2
4	23	1	4	10	0	0	47	1	534	1	1	1	2
4	23	1	4	11	0	1	49	1	536	1	1	1	2
4	23	1	4	12	0	1	49	1	595	1	1	1	2
4	23	1	4	13	0	0	47	1	524	1	1	1	2
4	23	1	4	14	0	1	47	1	586	1	1	1	2
4	23	1	4	15	0	0	49	1	567	1	1	1	2
4	23	1	4	16	0	0	49	1	543	1	1	1	2
4	23	1	4	17	0	1	49	1	639	1	1	1	2
4	23	1	4	18	0	1	47	1	1416	1	1	1	2
4	23	1	4	19	0	1	47	1	478	1	1	1	2
4	23	1	4	20	0	0	49	0	500	1	1	1	2
4	23	1	4	22	1	666	47	1	770	1	1	0	2
4	34	1	4	3	0	1	0	0	1750	1	1	0	2
4	34	1	4	5	0	1	49	1	586	1	1	0	2
4	34	1	4	6	0	0	49	1	781	1	1	0	2
4	34	1	4	7	0	0	47	1	702	1	1	0	2
4	34	1	4	10	0	0	49	0	249	1	1	1	2
4	34	1	4	12	0	0	49	1	555	1	1	1	2
4	34	1	4	13	0	1	47	1	454	1	1	1	2
4	34	1	4	14	0	0	47	1	669	1	1	1	2
4	34	1	4	15	0	1	47	1	432	1	1	1	2
4	34	1	4	16	0	0	47	0	346	1	1	1	2
4	34	1	4	18	0	1	49	1	567	1	1	1	2
4	34	1	4	19	0	1	49	1	447	1	1	1	2
4	34	1	4	20	0	0	49	1	481	1	1	1	2
4	34	1	4	21	0	0	47	1	478	1	1	1	2
4	34	1	4	22	0	1	47	1	621	1	1	1	2
4	34	1	4	23	0	1	49	1	638	1	1	1	2
4	34	1	4	24	1	666	49	1	897	1	1	0	2
4	37	1	4	3	0	1	49	1	548	1	1	0	2
4	37	1	4	4	0	1	47	1	419	1	1	0	2
4	37	1	4	5	0	0	49	1	490	1	1	0	2
4	37	1	4	6	0	0	47	1	615	1	1	0	2
4	37	1	4	9	0	0	49	1	627	1	1	1	2
4	37	1	4	10	0	0	49	1	458	1	1	1	2
4	37	1	4	11	0	0	49	1	398	1	1	1	2
4	37	1	4	12	0	1	47	1	605	1	1	1	2
4	37	1	4	13	0	1	47	1	560	1	1	1	2
4	37	1	4	14	0	1	49	1	468	1	1	1	2
4	37	1	4	15	0	1	49	1	394	1	1	1	2
4	37	1	4	16	0	0	47	1	587	1	1	1	2
4	37	1	4	17	0	0	47	1	629	1	1	1	2
4	37	1	4	18	0	0	47	1	543	1	1	1	2
4	37	1	4	19	0	1	49	1	572	1	1	1	2
4	37	1	4	20	0	1	47	1	609	1	1	1	2
4	37	1	4	21	1	666	47	1	739	1	1	0	2
4	49	1	4	3	0	0	49	1	505	1	1	0	2
4	49	1	4	4	0	1	49	1	483	1	1	0	2
4	49	1	4	5	0	0	47	1	553	1	1	0	2
4	49	1	4	6	0	1	49	0	440	1	1	0	2
4	49	1	4	10	0	1	49	1	756	1	1	1	2
4	49	1	4	11	0	1	47	1	1194	1	1	1	2
4	49	1	4	12	0	1	49	1	620	1	1	1	2
4	49	1	4	13	0	0	49	1	544	1	1	1	2
4	49	1	4	14	0	1	49	1	604	1	1	1	2
4	49	1	4	15	0	0	49	1	535	1	1	1	2
4	49	1	4	16	0	1	47	1	505	1	1	1	2
4	49	1	4	17	0	0	47	1	487	1	1	1	2
4	49	1	4	18	0	0	47	1	534	1	1	1	2
4	49	1	4	19	0	0	49	1	564	1	1	1	2
4	49	1	4	20	0	1	47	1	807	1	1	1	2
4	49	1	4	21	0	0	47	1	661	1	1	1	2
4	49	1	4	22	1	666	47	1	769	1	1	0	2
4	55	1	4	3	0	0	47	1	616	1	1	0	2
4	55	1	4	4	0	1	47	1	418	1	1	0	2
4	55	1	4	5	0	0	49	1	564	1	1	0	2
4	55	1	4	6	0	1	49	1	347	1	1	0	2
4	55	1	4	9	0	1	49	1	596	1	1	1	2
4	55	1	4	10	0	0	47	1	542	1	1	1	2
4	55	1	4	11	0	0	47	1	670	1	1	1	2
4	55	1	4	12	0	1	49	1	538	1	1	1	2
4	55	1	4	13	0	0	49	1	616	1	1	1	2
4	55	1	4	14	0	0	49	1	385	1	1	1	2
4	55	1	4	15	0	0	49	1	376	1	1	1	2
4	55	1	4	16	0	1	47	1	506	1	1	1	2
4	55	1	4	17	0	1	49	1	399	1	1	1	2
4	55	1	4	18	0	0	47	1	520	1	1	1	2
4	55	1	4	19	0	1	47	1	534	1	1	1	2
4	55	1	4	20	0	1	47	1	357	1	1	1	2
4	55	1	4	21	1	666	49	1	800	1	1	0	2
5	13	2	0	4	0	1	47	0	512	1	1	1	0
5	13	2	0	6	0	1	49	0	516	1	1	1	0
5	13	2	0	8	0	0	47	0	623	1	1	1	0
5	13	2	0	10	0	0	47	1	385	1	1	1	0
5	13	2	0	11	0	0	47	1	409	1	1	1	0
5	13	2	0	12	0	1	49	1	587	1	1	1	0
5	13	2	0	13	0	0	49	1	603	1	1	1	0
5	13	2	0	14	0	1	47	0	619	1	1	1	0
5	13	2	0	16	0	0	47	1	497	1	1	1	0
5	13	2	0	17	0	0	49	1	491	1	1	1	0
5	13	2	0	18	0	1	49	0	570	1	1	1	0
5	13	2	0	20	0	1	47	1	848	1	1	1	0
5	13	2	0	21	1	666	47	1	514	1	1	0	0
5	20	2	0	4	0	1	47	1	485	1	0	1	0
5	20	2	0	5	0	1	49	1	536	1	0	1	0
5	20	2	0	6	0	0	49	1	510	1	0	1	0
5	20	2	0	7	0	1	49	0	540	1	0	1	0
5	20	2	0	9	0	1	47	0	510	1	0	1	0
5	20	2	0	11	0	1	49	1	303	1	0	1	0
5	20	2	0	12	0	0	47	0	468	1	0	1	0
5	20	2	0	14	0	0	49	0	243	1	0	1	0
5	20	2	0	16	0	1	47	1	352	1	0	1	0
5	20	2	0	17	0	0	47	1	267	1	0	1	0
5	20	2	0	18	0	0	47	1	163	1	0	1	0
5	20	2	0	19	0	0	47	0	60	1	0	1	0
5	20	2	0	21	1	666	49	0	170	1	0	0	0
5	26	2	0	4	0	0	49	1	564	1	1	1	0
5	26	2	0	5	0	1	47	0	457	1	1	1	0
5	26	2	0	7	0	1	49	0	621	1	1	1	0
5	26	2	0	9	0	1	47	0	587	1	1	1	0
5	26	2	0	11	0	1	47	1	587	1	1	1	0
5	26	2	0	12	0	1	47	1	483	1	1	1	0
5	26	2	0	13	0	0	47	1	685	1	1	1	0
5	26	2	0	14	0	0	47	1	464	1	1	1	0
5	26	2	0	15	0	0	49	1	635	1	1	1	0
5	26	2	0	16	0	0	49	1	458	1	1	1	0
5	26	2	0	17	0	0	47	1	445	1	1	1	0
5	26	2	0	18	0	1	47	0	436	1	1	1	0
5	26	2	0	20	1	666	47	1	687	1	1	0	0
5	31	2	0	4	0	1	47	0	432	1	1	1	0
5	31	2	0	6	0	0	47	0	665	1	1	1	0
5	31	2	0	8	0	1	47	0	553	1	1	1	0
5	31	2	0	10	0	0	47	1	1079	1	1	1	0
5	31	2	0	11	0	1	49	0	664	1	1	1	0
5	31	2	0	13	0	1	47	0	356	1	1	1	0
5	31	2	0	15	0	1	49	0	57	1	1	1	0
5	31	2	0	17	0	0	49	0	188	1	1	1	0
5	31	2	0	19	0	0	47	1	312	1	1	1	0
5	31	2	0	20	0	1	47	1	318	1	1	1	0
5	31	2	0	21	0	0	49	1	310	1	1	1	0
5	31	2	0	22	0	0	49	1	363	1	1	1	0
5	31	2	0	23	1	666	49	1	574	1	1	0	0
5	40	2	0	4	0	1	49	0	654	1	1	1	0
5	40	2	0	6	0	0	47	1	516	1	1	1	0
5	40	2	0	7	0	0	49	1	427	1	1	1	0
5	40	2	0	8	0	1	47	1	576	1	1	1	0
5	40	2	0	9	0	0	47	1	492	1	1	1	0
5	40	2	0	10	0	1	49	1	460	1	1	1	0
5	40	2	0	11	0	0	47	0	827	1	1	1	0
5	40	2	0	13	0	1	47	0	478	1	1	1	0
5	40	2	0	15	0	1	47	0	446	1	1	1	0
5	40	2	0	17	0	0	49	0	480	1	1	1	0
5	40	2	0	19	0	1	47	1	494	1	1	1	0
5	40	2	0	20	0	0	49	1	532	1	1	1	0
5	40	2	0	21	1	666	47	1	638	1	1	0	0
5	44	2	0	4	0	0	47	1	342	1	1	1	0
5	44	2	0	5	0	0	49	1	369	1	1	1	0
5	44	2	0	6	0	0	49	1	449	1	1	1	0
5	44	2	0	7	0	1	47	0	566	1	1	1	0
5	44	2	0	9	0	0	47	1	593	1	1	1	0
5	44	2	0	10	0	1	49	0	541	1	1	1	0
5	44	2	0	12	0	1	49	0	428	1	1	1	0
5	44	2	0	14	0	1	47	0	480	1	1	1	0
5	44	2	0	16	0	1	47	0	536	1	1	1	0
5	44	2	0	18	0	0	47	1	367	1	1	1	0
5	44	2	0	19	0	1	49	0	398	1	1	1	0
5	44	2	0	21	0	0	49	1	462	1	1	1	0
5	44	2	0	22	1	666	47	1	427	1	1	0	0
5	51	2	0	4	0	0	47	1	324	1	1	1	0
5	51	2	0	5	0	1	49	1	491	1	1	1	0
5	51	2	0	6	0	1	47	1	549	1	1	1	0
5	51	2	0	7	0	1	49	1	457	1	1	1	0
5	51	2	0	8	0	0	47	0	348	1	1	1	0
5	51	2	0	10	0	1	47	0	213	1	1	1	0
5	51	2	0	12	0	0	47	0	370	1	1	1	0
5	51	2	0	14	0	0	49	0	120	1	1	1	0
5	51	2	0	16	0	1	47	1	447	1	1	1	0
5	51	2	0	17	0	0	47	1	347	1	1	1	0
5	51	2	0	18	0	1	47	1	361	1	1	1	0
5	51	2	0	19	0	0	49	1	511	1	1	1	0
5	51	2	0	20	1	666	47	1	499	1	1	0	0
5	10	0	0	3	1	666	47	0	312	1	0	0	1
5	21	0	0	3	1	666	47	1	419	1	1	0	1
5	25	0	0	3	1	666	47	1	584	1	1	0	1
5	32	0	0	3	1	666	47	1	461	1	1	0	1
5	38	0	0	3	1	666	47	1	645	1	1	0	1
5	45	0	0	3	1	666	47	1	569	1	1	0	1
5	52	0	0	3	1	666	47	1	503	1	1	0	1
5	11	1	0	5	0	1	49	0	532	1	1	1	2
5	11	1	0	7	0	0	49	1	574	1	1	1	2
5	11	1	0	8	0	1	47	0	570	1	1	1	2
5	11	1	0	10	0	1	49	0	480	1	1	1	2
5	11	1	0	12	0	1	47	1	540	1	1	1	2
5	11	1	0	13	0	1	47	0	477	1	1	1	2
5	11	1	0	15	0	0	47	0	604	1	1	1	2
5	11	1	0	17	0	1	49	1	549	1	1	1	2
5	11	1	0	18	0	0	49	0	465	1	1	1	2
5	11	1	0	20	0	0	47	0	746	1	1	1	2
5	11	1	0	22	0	0	47	1	646	1	1	1	2
5	11	1	0	23	0	0	47	1	671	1	1	1	2
5	11	1	0	24	1	666	47	1	721	1	1	0	2
5	17	1	0	5	0	1	49	0	655	1	0	1	2
5	17	1	0	7	0	0	47	1	391	1	0	1	2
5	17	1	0	8	0	0	47	1	614	1	0	1	2
5	17	1	0	9	0	0	49	1	591	1	0	1	2
5	17	1	0	10	0	0	47	1	471	1	0	1	2
5	17	1	0	11	0	1	47	0	432	1	0	1	2
5	17	1	0	13	0	1	47	0	545	1	0	1	2
5	17	1	0	15	0	0	49	1	555	1	0	1	2
5	17	1	0	16	0	1	49	0	476	1	0	1	2
5	17	1	0	18	0	1	49	0	407	1	0	1	2
5	17	1	0	20	0	1	47	0	469	1	0	1	2
5	17	1	0	22	0	0	47	0	299	1	0	1	2
5	17	1	0	24	1	666	47	0	550	1	0	0	2
5	24	1	0	5	0	0	47	1	450	1	0	1	2
5	24	1	0	6	0	1	47	0	603	1	0	1	2
5	24	1	0	8	0	0	47	0	596	1	0	1	2
5	24	1	0	10	0	1	47	1	488	1	0	1	2
5	24	1	0	11	0	1	47	1	468	1	0	1	2
5	24	1	0	12	0	0	49	1	810	1	0	1	2
5	24	1	0	13	0	1	47	0	625	1	0	1	2
5	24	1	0	15	0	0	47	0	276	1	0	1	2
5	24	1	0	17	0	1	47	0	574	1	0	1	2
5	24	1	0	19	0	1	47	1	713	1	0	1	2
5	24	1	0	20	0	0	47	1	718	1	0	1	2
5	24	1	0	21	0	0	47	1	491	1	0	1	2
5	24	1	0	22	1	666	47	0	666	1	0	0	2
5	35	1	0	5	0	0	47	1	525	1	1	1	2
5	35	1	0	6	0	1	49	1	493	1	1	1	2
5	35	1	0	7	0	1	49	1	513	1	1	1	2
5	35	1	0	8	0	1	49	1	521	1	1	1	2
5	35	1	0	9	0	0	49	1	970	1	1	1	2
5	35	1	0	10	0	0	47	1	674	1	1	1	2
5	35	1	0	11	0	1	49	0	623	1	1	1	2
5	35	1	0	13	0	1	47	1	451	1	1	1	2
5	35	1	0	14	0	0	49	1	694	1	1	1	2
5	35	1	0	15	0	0	47	1	651	1	1	1	2
5	35	1	0	16	0	0	49	1	644	1	1	1	2
5	35	1	0	17	0	1	47	1	582	1	1	1	2
5	35	1	0	18	1	666	49	1	915	1	1	0	2
5	41	1	0	5	0	0	49	1	628	1	1	1	2
5	41	1	0	6	0	1	49	1	476	1	1	1	2
5	41	1	0	7	0	1	47	1	1338	1	1	1	2
5	41	1	0	8	0	0	47	1	751	1	1	1	2
5	41	1	0	9	0	0	49	1	519	1	1	1	2
5	41	1	0	10	0	0	47	1	590	1	1	1	2
5	41	1	0	11	0	1	47	0	785	1	1	1	2
5	41	1	0	13	0	1	47	1	589	1	1	1	2
5	41	1	0	14	0	0	47	1	565	1	1	1	2
5	41	1	0	15	0	1	47	1	523	1	1	1	2
5	41	1	0	16	0	1	49	1	671	1	1	1	2
5	41	1	0	17	0	0	47	0	882	1	1	1	2
5	41	1	0	19	1	666	49	1	1216	1	1	0	2
5	48	1	0	5	0	0	47	1	670	1	0	1	2
5	48	1	0	6	0	1	49	1	628	1	0	1	2
5	48	1	0	7	0	0	47	1	590	1	0	1	2
5	48	1	0	8	0	0	47	1	360	1	0	1	2
5	48	1	0	9	0	0	49	1	502	1	0	1	2
5	48	1	0	10	0	1	49	1	472	1	0	1	2
5	48	1	0	11	0	1	47	1	408	1	0	1	2
5	48	1	0	12	0	1	47	1	341	1	0	1	2
5	48	1	0	13	0	0	49	1	428	1	0	1	2
5	48	1	0	14	0	0	47	0	414	1	0	1	2
5	48	1	0	16	0	1	49	1	485	1	0	1	2
5	48	1	0	17	0	1	47	1	488	1	0	1	2
5	48	1	0	18	1	666	47	0	485	1	0	0	2
5	55	1	0	5	0	1	49	0	552	1	0	1	2
5	55	1	0	7	0	1	49	1	380	1	0	1	2
5	55	1	0	8	0	0	49	1	509	1	0	1	2
5	55	1	0	9	0	0	49	1	542	1	0	1	2
5	55	1	0	10	0	0	47	1	634	1	0	1	2
5	55	1	0	11	0	1	47	1	423	1	0	1	2
5	55	1	0	12	0	0	47	1	410	1	0	1	2
5	55	1	0	13	0	1	49	1	328	1	0	1	2
5	55	1	0	14	0	0	49	1	417	1	0	1	2
5	55	1	0	15	0	1	49	1	356	1	0	1	2
5	55	1	0	16	0	1	47	1	386	1	0	1	2
5	55	1	0	17	0	0	47	1	356	1	0	1	2
5	55	1	0	18	1	666	49	0	493	1	0	0	2
5	12	2	4	3	0	0	47	1	748	1	0	0	0
5	12	2	4	4	0	1	49	0	631	1	0	0	0
5	12	2	4	6	0	1	47	0	400	1	0	0	0
5	12	2	4	8	0	0	49	1	1016	1	0	0	0
5	12	2	4	10	0	1	49	0	540	1	0	1	0
5	12	2	4	12	0	1	47	0	461	1	0	1	0
5	12	2	4	14	0	0	47	1	427	1	0	1	0
5	12	2	4	15	0	0	49	1	544	1	0	1	0
5	12	2	4	16	0	1	49	1	454	1	0	1	0
5	12	2	4	17	0	0	49	1	453	1	0	1	0
5	12	2	4	18	0	1	49	0	480	1	0	1	0
5	12	2	4	20	0	0	47	0	392	1	0	1	0
5	12	2	4	22	0	1	47	0	746	1	0	1	0
5	12	2	4	24	0	0	47	1	556	1	0	1	0
5	12	2	4	25	0	0	47	1	486	1	0	1	0
5	12	2	4	26	0	1	49	0	523	1	0	1	0
5	12	2	4	28	1	666	47	0	539	1	0	0	0
5	18	2	4	3	0	1	49	0	585	1	0	0	0
5	18	2	4	5	0	1	47	0	391	1	0	0	0
5	18	2	4	7	0	0	47	1	424	1	0	0	0
5	18	2	4	8	0	0	49	1	757	1	0	0	0
5	18	2	4	10	0	0	49	1	629	1	0	1	0
5	18	2	4	11	0	1	49	1	565	1	0	1	0
5	18	2	4	12	0	0	49	1	552	1	0	1	0
5	18	2	4	13	0	1	49	0	774	1	0	1	0
5	18	2	4	15	0	1	47	1	1028	1	0	1	0
5	18	2	4	16	0	0	47	1	541	1	0	1	0
5	18	2	4	17	0	0	47	1	485	1	0	1	0
5	18	2	4	18	0	0	47	0	367	1	0	1	0
5	18	2	4	20	0	0	47	1	420	1	0	1	0
5	18	2	4	21	0	1	49	1	419	1	0	1	0
5	18	2	4	22	0	1	49	0	520	1	0	1	0
5	18	2	4	24	0	1	49	1	588	1	0	1	0
5	18	2	4	25	1	666	47	0	420	1	0	0	0
5	27	2	4	3	0	0	49	1	525	1	1	0	0
5	27	2	4	4	0	0	47	1	538	1	1	0	0
5	27	2	4	5	0	1	49	1	666	1	1	0	0
5	27	2	4	6	0	1	49	0	714	1	1	0	0
5	27	2	4	9	0	0	49	1	676	1	1	1	0
5	27	2	4	10	0	0	47	1	468	1	1	1	0
5	27	2	4	11	0	0	49	1	435	1	1	1	0
5	27	2	4	12	0	0	49	1	455	1	1	1	0
5	27	2	4	13	0	1	47	0	395	1	1	1	0
5	27	2	4	15	0	1	49	1	503	1	1	1	0
5	27	2	4	16	0	1	47	1	473	1	1	1	0
5	27	2	4	17	0	1	49	1	474	1	1	1	0
5	27	2	4	18	0	0	49	0	497	1	1	1	0
5	27	2	4	20	0	1	47	1	417	1	1	1	0
5	27	2	4	21	0	0	47	1	201	1	1	1	0
5	27	2	4	22	0	1	47	1	238	1	1	1	0
5	27	2	4	23	1	666	47	1	122	1	1	0	0
5	30	2	4	3	0	1	47	0	265	1	1	0	0
5	30	2	4	5	0	1	49	0	517	1	1	0	0
5	30	2	4	7	0	0	47	0	228	1	1	0	0
5	30	2	4	9	0	0	47	1	282	1	1	0	0
5	30	2	4	11	0	1	49	0	630	1	1	1	0
5	30	2	4	13	0	0	49	1	329	1	1	1	0
5	30	2	4	14	0	1	47	0	536	1	1	1	0
5	30	2	4	16	0	0	49	0	328	1	1	1	0
5	30	2	4	18	0	1	47	1	340	1	1	1	0
5	30	2	4	19	0	0	47	0	342	1	1	1	0
5	30	2	4	21	0	1	47	1	476	1	1	1	0
5	30	2	4	22	0	0	47	1	630	1	1	1	0
5	30	2	4	23	0	1	47	0	370	1	1	1	0
5	30	2	4	25	0	0	47	1	190	1	1	1	0
5	30	2	4	26	0	0	49	1	458	1	1	1	0
5	30	2	4	27	0	1	49	1	383	1	1	1	0
5	30	2	4	28	1	666	47	1	468	1	1	0	0
5	39	2	4	3	0	0	49	1	712	1	1	0	0
5	39	2	4	4	0	1	47	1	611	1	1	0	0
5	39	2	4	5	0	0	49	0	552	1	1	0	0
5	39	2	4	7	0	1	49	1	538	1	1	0	0
5	39	2	4	9	0	1	49	1	745	1	1	1	0
5	39	2	4	10	0	1	47	1	469	1	1	1	0
5	39	2	4	11	0	1	47	1	514	1	1	1	0
5	39	2	4	12	0	0	49	1	476	1	1	1	0
5	39	2	4	13	0	0	49	1	392	1	1	1	0
5	39	2	4	14	0	1	49	1	384	1	1	1	0
5	39	2	4	15	0	1	49	1	354	1	1	1	0
5	39	2	4	16	0	0	47	1	586	1	1	1	0
5	39	2	4	17	0	0	49	1	475	1	1	1	0
5	39	2	4	18	0	0	47	1	503	1	1	1	0
5	39	2	4	19	0	1	49	0	511	1	1	1	0
5	39	2	4	21	0	0	47	1	519	1	1	1	0
5	39	2	4	22	1	666	47	1	707	1	1	0	0
5	49	2	4	3	0	1	49	1	444	1	0	0	0
5	49	2	4	4	0	0	47	0	420	1	0	0	0
5	49	2	4	6	0	0	47	1	512	1	0	0	0
5	49	2	4	7	0	1	49	0	574	1	0	0	0
5	49	2	4	10	0	1	49	1	654	1	0	1	0
5	49	2	4	11	0	1	49	1	391	1	0	1	0
5	49	2	4	12	0	0	49	1	585	1	0	1	0
5	49	2	4	13	0	1	47	1	440	1	0	1	0
5	49	2	4	14	0	1	47	1	369	1	0	1	0
5	49	2	4	15	0	1	49	1	398	1	0	1	0
5	49	2	4	16	0	0	47	1	522	1	0	1	0
5	49	2	4	17	0	0	47	1	404	1	0	1	0
5	49	2	4	18	0	0	49	1	614	1	0	1	0
5	49	2	4	19	0	0	49	1	708	1	0	1	0
5	49	2	4	20	0	1	47	1	466	1	0	1	0
5	49	2	4	21	0	0	47	1	435	1	0	1	0
5	49	2	4	22	1	666	47	0	388	1	0	0	0
5	53	2	4	3	0	0	49	1	510	1	1	0	0
5	53	2	4	4	0	1	49	0	396	1	1	0	0
5	53	2	4	6	0	1	49	1	530	1	1	0	0
5	53	2	4	7	0	0	47	1	469	1	1	0	0
5	53	2	4	9	0	1	49	1	625	1	1	1	0
5	53	2	4	10	0	0	47	1	508	1	1	1	0
5	53	2	4	11	0	0	49	1	400	1	1	1	0
5	53	2	4	12	0	1	47	1	640	1	1	1	0
5	53	2	4	13	0	0	47	1	362	1	1	1	0
5	53	2	4	14	0	1	47	1	370	1	1	1	0
5	53	2	4	15	0	0	49	1	474	1	1	1	0
5	53	2	4	16	0	0	47	1	693	1	1	1	0
5	53	2	4	17	0	1	47	1	461	1	1	1	0
5	53	2	4	18	0	1	49	1	530	1	1	1	0
5	53	2	4	19	0	1	49	1	505	1	1	1	0
5	53	2	4	20	0	0	49	1	518	1	1	1	0
5	53	2	4	21	1	666	47	1	561	1	1	0	0
5	9	0	4	3	0	1	49	1	513	1	0	0	1
5	9	0	4	4	0	1	49	0	605	1	0	0	1
5	9	0	4	6	0	0	47	1	368	1	0	0	1
5	9	0	4	7	0	0	47	0	707	1	0	0	1
5	9	0	4	9	1	666	47	0	449	1	0	0	1
5	16	0	4	3	0	0	47	1	435	1	1	0	1
5	16	0	4	4	0	0	49	1	504	1	1	0	1
5	16	0	4	5	0	1	49	0	596	1	1	0	1
5	16	0	4	7	0	1	47	0	625	1	1	0	1
5	16	0	4	9	1	666	47	1	505	1	1	0	1
5	28	0	4	3	0	1	49	0	565	1	1	0	1
5	28	0	4	5	0	0	47	1	430	1	1	0	1
5	28	0	4	6	0	0	49	1	543	1	1	0	1
5	28	0	4	7	0	1	47	0	500	1	1	0	1
5	28	0	4	9	1	666	49	1	1003	1	1	0	1
5	34	0	4	3	0	0	47	1	395	1	1	0	1
5	34	0	4	4	0	1	49	0	409	1	1	0	1
5	34	0	4	6	0	0	47	0	566	1	1	0	1
5	34	0	4	8	0	1	47	0	479	1	1	0	1
5	34	0	4	10	1	666	47	1	423	1	1	0	1
5	42	0	4	3	0	1	49	0	594	1	1	0	1
5	42	0	4	5	0	0	49	1	590	1	1	0	1
5	42	0	4	6	0	1	47	0	583	1	1	0	1
5	42	0	4	8	0	0	47	1	537	1	1	0	1
5	42	0	4	9	1	666	47	1	434	1	1	0	1
5	46	0	4	3	0	0	47	1	548	1	1	0	1
5	46	0	4	4	0	1	49	0	388	1	1	0	1
5	46	0	4	6	0	1	47	0	406	1	1	0	1
5	46	0	4	8	0	0	47	0	369	1	1	0	1
5	46	0	4	10	1	666	49	1	579	1	1	0	1
5	54	0	4	3	0	0	47	1	476	1	1	0	1
5	54	0	4	4	0	1	49	0	682	1	1	0	1
5	54	0	4	6	0	1	49	1	489	1	1	0	1
5	54	0	4	7	0	0	49	1	408	1	1	0	1
5	54	0	4	8	1	666	47	1	666	1	1	0	1
5	14	1	4	3	0	0	47	1	544	1	1	0	2
5	14	1	4	4	0	0	49	1	380	1	1	0	2
5	14	1	4	5	0	1	49	0	672	1	1	0	2
5	14	1	4	7	0	1	47	0	525	1	1	0	2
5	14	1	4	11	0	0	49	0	716	1	1	1	2
5	14	1	4	13	0	1	47	0	801	1	1	1	2
5	14	1	4	15	0	0	47	1	659	1	1	1	2
5	14	1	4	16	0	0	47	1	491	1	1	1	2
5	14	1	4	17	0	1	47	1	678	1	1	1	2
5	14	1	4	18	0	0	47	0	471	1	1	1	2
5	14	1	4	20	0	1	0	0	1754	1	1	1	2
5	14	1	4	22	0	0	47	0	452	1	1	1	2
5	14	1	4	24	0	0	49	1	333	1	1	1	2
5	14	1	4	25	0	1	49	0	376	1	1	1	2
5	14	1	4	27	0	1	49	0	460	1	1	1	2
5	14	1	4	29	0	1	47	0	571	1	1	1	2
5	14	1	4	31	1	666	49	1	260	1	1	0	2
5	19	1	4	3	0	1	49	0	474	1	0	0	2
5	19	1	4	5	0	0	47	1	378	1	0	0	2
5	19	1	4	6	0	1	47	0	613	1	0	0	2
5	19	1	4	8	0	0	49	1	543	1	0	0	2
5	19	1	4	11	0	1	0	0	1754	1	0	1	2
5	19	1	4	13	0	0	47	0	625	1	0	1	2
5	19	1	4	15	0	0	49	0	202	1	0	1	2
5	19	1	4	17	0	1	47	0	257	1	0	1	2
5	19	1	4	19	0	0	0	0	1754	1	0	1	2
5	19	1	4	21	0	1	49	1	321	1	0	1	2
5	19	1	4	22	0	0	47	0	610	1	0	1	2
5	19	1	4	24	0	1	47	1	364	1	0	1	2
5	19	1	4	25	0	0	47	0	436	1	0	1	2
5	19	1	4	27	0	1	49	1	592	1	0	1	2
5	19	1	4	28	0	0	47	1	478	1	0	1	2
5	19	1	4	29	0	1	49	0	312	1	0	1	2
5	19	1	4	31	1	666	47	0	272	1	0	0	2
5	23	1	4	3	0	1	47	0	529	1	0	0	2
5	23	1	4	5	0	0	47	0	433	1	0	0	2
5	23	1	4	7	0	0	47	1	464	1	0	0	2
5	23	1	4	8	0	1	49	0	367	1	0	0	2
5	23	1	4	12	0	0	49	1	718	1	0	1	2
5	23	1	4	13	0	0	49	1	323	1	0	1	2
5	23	1	4	14	0	1	49	1	230	1	0	1	2
5	23	1	4	15	0	1	49	0	447	1	0	1	2
5	23	1	4	17	0	1	47	1	426	1	0	1	2
5	23	1	4	18	0	1	47	0	774	1	0	1	2
5	23	1	4	20	0	1	47	0	433	1	0	1	2
5	23	1	4	22	0	1	49	0	209	1	0	1	2
5	23	1	4	24	0	0	47	1	281	1	0	1	2
5	23	1	4	25	0	0	47	0	546	1	0	1	2
5	23	1	4	27	0	0	47	1	616	1	0	1	2
5	23	1	4	28	0	0	47	1	485	1	0	1	2
5	23	1	4	29	1	666	47	0	537	1	0	0	2
5	33	1	4	3	0	0	49	1	495	1	0	0	2
5	33	1	4	4	0	0	47	1	400	1	0	0	2
5	33	1	4	5	0	1	47	0	474	1	0	0	2
5	33	1	4	7	0	1	47	1	516	1	0	0	2
5	33	1	4	10	0	1	49	1	529	1	0	1	2
5	33	1	4	11	0	0	49	0	458	1	0	1	2
5	33	1	4	13	0	0	49	0	546	1	0	1	2
5	33	1	4	15	0	1	47	0	468	1	0	1	2
5	33	1	4	17	0	0	49	1	197	1	0	1	2
5	33	1	4	18	0	1	49	0	239	1	0	1	2
5	33	1	4	20	0	0	47	0	179	1	0	1	2
5	33	1	4	22	0	0	49	0	40	1	0	1	2
5	33	1	4	24	0	1	47	0	579	1	0	1	2
5	33	1	4	26	0	1	49	0	190	1	0	1	2
5	33	1	4	28	0	1	47	1	273	1	0	1	2
5	33	1	4	29	0	0	47	0	409	1	0	1	2
5	33	1	4	31	1	666	47	0	218	1	0	0	2
5	37	1	4	3	0	1	49	1	718	1	1	0	2
5	37	1	4	4	0	1	49	0	680	1	1	0	2
5	37	1	4	6	0	0	49	1	707	1	1	0	2
5	37	1	4	7	0	0	47	1	562	1	1	0	2
5	37	1	4	10	0	0	49	0	467	1	1	1	2
5	37	1	4	12	0	1	47	1	451	1	1	1	2
5	37	1	4	13	0	0	47	0	426	1	1	1	2
5	37	1	4	15	0	1	49	1	720	1	1	1	2
5	37	1	4	16	0	1	49	1	652	1	1	1	2
5	37	1	4	17	0	0	47	1	616	1	1	1	2
5	37	1	4	18	0	0	47	1	494	1	1	1	2
5	37	1	4	19	0	0	49	1	484	1	1	1	2
5	37	1	4	20	0	0	49	1	518	1	1	1	2
5	37	1	4	21	0	1	49	1	485	1	1	1	2
5	37	1	4	22	0	1	47	1	852	1	1	1	2
5	37	1	4	23	0	1	47	1	811	1	1	1	2
5	37	1	4	24	1	666	49	1	624	1	1	0	2
5	47	1	4	3	0	0	47	1	426	1	0	0	2
5	47	1	4	4	0	1	49	0	430	1	0	0	2
5	47	1	4	6	0	1	47	0	713	1	0	0	2
5	47	1	4	8	0	0	49	1	401	1	0	0	2
5	47	1	4	11	0	1	47	0	1124	1	0	1	2
5	47	1	4	13	0	1	47	1	773	1	0	1	2
5	47	1	4	14	0	0	47	0	525	1	0	1	2
5	47	1	4	16	0	1	47	1	498	1	0	1	2
5	47	1	4	17	0	1	47	0	647	1	0	1	2
5	47	1	4	19	0	1	47	0	159	1	0	1	2
5	47	1	4	21	0	0	49	1	460	1	0	1	2
5	47	1	4	22	0	0	47	1	1096	1	0	1	2
5	47	1	4	23	0	1	49	0	507	1	0	1	2
5	47	1	4	25	0	0	47	1	329	1	0	1	2
5	47	1	4	26	0	0	47	0	362	1	0	1	2
5	47	1	4	28	0	0	47	1	364	1	0	1	2
5	47	1	4	29	1	666	47	0	593	1	0	0	2
5	56	1	4	3	0	1	47	0	229	1	0	0	2
5	56	1	4	5	0	1	47	1	362	1	0	0	2
5	56	1	4	6	0	0	47	1	334	1	0	0	2
5	56	1	4	7	0	0	47	0	365	1	0	0	2
5	56	1	4	11	0	0	49	1	575	1	0	1	2
5	56	1	4	12	0	0	47	1	740	1	0	1	2
5	56	1	4	13	0	1	49	1	490	1	0	1	2
5	56	1	4	14	0	1	49	1	379	1	0	1	2
5	56	1	4	15	0	0	47	1	533	1	0	1	2
5	56	1	4	16	0	0	49	1	477	1	0	1	2
5	56	1	4	17	0	0	49	1	461	1	0	1	2
5	56	1	4	18	0	1	47	1	477	1	0	1	2
5	56	1	4	19	0	1	49	1	484	1	0	1	2
5	56	1	4	20	0	0	47	1	397	1	0	1	2
5	56	1	4	21	0	1	47	1	334	1	0	1	2
5	56	1	4	22	0	1	47	1	290	1	0	1	2
5	56	1	4	23	1	666	47	0	530	1	0	0	2
6	11	2	0	4	0	1	47	0	720	1	0	1	0
6	11	2	0	6	0	0	47	1	539	1	0	1	0
6	11	2	0	7	0	0	49	1	484	1	0	1	0
6	11	2	0	8	0	1	49	0	513	1	0	1	0
6	11	2	0	10	0	1	47	0	331	1	0	1	0
6	11	2	0	12	0	1	49	0	302	1	0	1	0
6	11	2	0	14	0	1	49	0	681	1	0	1	0
6	11	2	0	16	0	0	47	1	501	1	0	1	0
6	11	2	0	17	0	0	49	1	400	1	0	1	0
6	11	2	0	18	0	0	49	1	474	1	0	1	0
6	11	2	0	19	0	1	47	0	385	1	0	1	0
6	11	2	0	21	0	0	49	0	331	1	0	1	0
6	11	2	0	23	1	666	0	0	1750	1	0	0	0
6	17	2	0	4	0	1	47	1	900	1	0	1	0
6	17	2	0	5	0	1	49	1	542	1	0	1	0
6	17	2	0	6	0	1	47	1	519	1	0	1	0
6	17	2	0	7	0	0	49	0	330	1	0	1	0
6	17	2	0	9	0	1	49	1	632	1	0	1	0
6	17	2	0	10	0	1	47	1	358	1	0	1	0
6	17	2	0	11	0	0	47	0	500	1	0	1	0
6	17	2	0	13	0	0	47	0	431	1	0	1	0
6	17	2	0	15	0	0	49	0	361	1	0	1	0
6	17	2	0	17	0	0	49	0	539	1	0	1	0
6	17	2	0	19	0	0	47	0	678	1	0	1	0
6	17	2	0	21	0	1	49	1	516	1	0	1	0
6	17	2	0	22	1	666	49	0	713	1	0	0	0
6	23	2	0	4	0	1	47	0	825	1	1	1	0
6	23	2	0	6	0	1	49	0	372	1	1	1	0
6	23	2	0	8	0	0	47	1	468	1	1	1	0
6	23	2	0	9	0	1	47	0	533	1	1	1	0
6	23	2	0	11	0	1	49	0	428	1	1	1	0
6	23	2	0	13	0	1	49	0	528	1	1	1	0
6	23	2	0	15	0	0	49	1	661	1	1	1	0
6	23	2	0	16	0	0	47	1	418	1	1	1	0
6	23	2	0	17	0	1	47	0	409	1	1	1	0
6	23	2	0	19	0	0	49	1	345	1	1	1	0
6	23	2	0	20	0	0	47	1	667	1	1	1	0
6	23	2	0	21	0	0	49	1	331	1	1	1	0
6	23	2	0	22	1	666	49	1	653	1	1	0	0
6	30	2	0	4	0	0	47	1	717	1	0	1	0
6	30	2	0	5	0	0	49	1	364	1	0	1	0
6	30	2	0	6	0	1	47	0	558	1	0	1	0
6	30	2	0	8	0	0	49	1	791	1	0	1	0
6	30	2	0	9	0	0	47	1	494	1	0	1	0
6	30	2	0	10	0	0	49	1	424	1	0	1	0
6	30	2	0	11	0	1	47	0	417	1	0	1	0
6	30	2	0	13	0	1	49	0	270	1	0	1	0
6	30	2	0	15	0	1	47	1	201	1	0	1	0
6	30	2	0	16	0	0	47	1	599	1	0	1	0
6	30	2	0	17	0	1	49	0	236	1	0	1	0
6	30	2	0	19	0	1	47	0	545	1	0	1	0
6	30	2	0	21	1	666	49	0	217	1	0	0	0
6	41	2	0	4	0	0	49	1	1232	1	1	1	0
6	41	2	0	5	0	1	49	0	374	1	1	1	0
6	41	2	0	7	0	0	47	1	433	1	1	1	0
6	41	2	0	8	0	1	47	0	522	1	1	1	0
6	41	2	0	10	0	0	49	1	414	1	1	1	0
6	41	2	0	11	0	1	47	0	370	1	1	1	0
6	41	2	0	13	0	0	47	1	736	1	1	1	0
6	41	2	0	14	0	1	49	0	681	1	1	1	0
6	41	2	0	16	0	1	49	0	808	1	1	1	0
6	41	2	0	18	0	0	47	1	398	1	1	1	0
6	41	2	0	19	0	1	47	0	418	1	1	1	0
6	41	2	0	21	0	0	49	1	588	1	1	1	0
6	41	2	0	22	1	666	47	1	572	1	1	0	0
6	44	2	0	4	0	1	49	0	1124	1	1	1	0
6	44	2	0	6	0	1	47	0	684	1	1	1	0
6	44	2	0	8	0	1	49	0	500	1	1	1	0
6	44	2	0	10	0	1	47	0	451	1	1	1	0
6	44	2	0	12	0	0	49	1	458	1	1	1	0
6	44	2	0	13	0	0	47	1	466	1	1	1	0
6	44	2	0	14	0	1	49	0	572	1	1	1	0
6	44	2	0	16	0	1	47	0	301	1	1	1	0
6	44	2	0	18	0	0	49	0	398	1	1	1	0
6	44	2	0	20	0	0	47	1	320	1	1	1	0
6	44	2	0	21	0	0	49	1	363	1	1	1	0
6	44	2	0	22	0	0	47	0	516	1	1	1	0
6	44	2	0	24	1	666	49	1	773	1	1	0	0
6	52	2	0	4	0	0	49	1	664	1	0	1	0
6	52	2	0	5	0	1	47	0	460	1	0	1	0
6	52	2	0	7	0	0	47	1	524	1	0	1	0
6	52	2	0	8	0	1	49	0	609	1	0	1	0
6	52	2	0	10	0	1	47	0	439	1	0	1	0
6	52	2	0	12	0	1	49	0	646	1	0	1	0
6	52	2	0	14	0	0	47	1	469	1	0	1	0
6	52	2	0	15	0	1	47	0	510	1	0	1	0
6	52	2	0	17	0	0	49	1	384	1	0	1	0
6	52	2	0	18	0	0	47	1	414	1	0	1	0
6	52	2	0	19	0	0	49	1	493	1	0	1	0
6	52	2	0	20	0	1	49	0	611	1	0	1	0
6	52	2	0	22	1	666	47	0	417	1	0	0	0
6	13	0	0	3	1	666	0	0	1750	1	0	0	1
6	19	0	0	3	1	666	49	1	625	1	1	0	1
6	26	0	0	3	1	666	47	1	1739	1	1	0	1
6	32	0	0	3	1	666	49	0	980	1	0	0	1
6	40	0	0	3	1	666	47	1	509	1	1	0	1
6	47	0	0	3	1	666	49	1	595	1	1	0	1
6	51	0	0	3	1	666	47	1	542	1	1	0	1
6	10	1	0	5	0	0	49	1	945	1	0	1	2
6	10	1	0	6	0	1	47	0	570	1	0	1	2
6	10	1	0	8	0	1	49	0	694	1	0	1	2
6	10	1	0	10	0	1	49	0	640	1	0	1	2
6	10	1	0	12	0	0	47	1	350	1	0	1	2
6	10	1	0	13	0	0	47	1	413	1	0	1	2
6	10	1	0	14	0	1	47	0	417	1	0	1	2
6	10	1	0	16	0	1	47	0	424	1	0	1	2
6	10	1	0	18	0	0	47	1	432	1	0	1	2
6	10	1	0	19	0	1	49	0	621	1	0	1	2
6	10	1	0	21	0	0	49	1	364	1	0	1	2
6	10	1	0	22	0	0	49	1	338	1	0	1	2
6	10	1	0	23	1	666	47	0	934	1	0	0	2
6	21	1	0	5	0	0	47	1	942	1	0	1	2
6	21	1	0	6	0	0	49	1	421	1	0	1	2
6	21	1	0	7	0	1	49	0	521	1	0	1	2
6	21	1	0	9	0	0	49	1	569	1	0	1	2
6	21	1	0	10	0	1	49	0	496	1	0	1	2
6	21	1	0	12	0	1	47	0	911	1	0	1	2
6	21	1	0	14	0	0	47	1	470	1	0	1	2
6	21	1	0	15	0	1	47	0	405	1	0	1	2
6	21	1	0	17	0	0	47	1	576	1	0	1	2
6	21	1	0	18	0	0	49	1	502	1	0	1	2
6	21	1	0	19	0	1	47	0	638	1	0	1	2
6	21	1	0	21	0	1	49	0	541	1	0	1	2
6	21	1	0	23	1	666	49	0	1304	1	0	0	2
6	25	1	0	5	0	0	47	1	529	1	1	1	2
6	25	1	0	6	0	0	47	1	588	1	1	1	2
6	25	1	0	7	0	1	47	0	474	1	1	1	2
6	25	1	0	9	0	1	47	0	441	1	1	1	2
6	25	1	0	11	0	0	47	1	417	1	1	1	2
6	25	1	0	12	0	1	47	0	831	1	1	1	2
6	25	1	0	14	0	0	49	1	842	1	1	1	2
6	25	1	0	15	0	0	49	1	415	1	1	1	2
6	25	1	0	16	0	1	49	0	372	1	1	1	2
6	25	1	0	18	0	0	49	1	404	1	1	1	2
6	25	1	0	19	0	1	49	0	443	1	1	1	2
6	25	1	0	21	0	1	49	0	346	1	1	1	2
6	25	1	0	23	1	666	49	1	1219	1	1	0	2
6	34	1	0	5	0	1	47	0	1341	1	0	1	2
6	34	1	0	7	0	1	47	0	695	1	0	1	2
6	34	1	0	9	0	1	49	0	808	1	0	1	2
6	34	1	0	11	0	1	49	0	697	1	0	1	2
6	34	1	0	13	0	0	49	1	449	1	0	1	2
6	34	1	0	14	0	0	47	1	699	1	0	1	2
6	34	1	0	15	0	0	49	1	616	1	0	1	2
6	34	1	0	16	0	0	47	1	722	1	0	1	2
6	34	1	0	17	0	1	0	0	1750	1	0	1	2
6	34	1	0	19	0	0	49	0	1211	1	0	1	2
6	34	1	0	21	0	0	49	1	542	1	0	1	2
6	34	1	0	22	0	1	47	0	714	1	0	1	2
6	34	1	0	24	1	666	49	0	1648	1	0	0	2
6	42	1	0	5	0	1	49	0	811	1	1	1	2
6	42	1	0	7	0	1	49	0	989	1	1	1	2
6	42	1	0	9	0	1	47	0	519	1	1	1	2
6	42	1	0	11	0	1	47	0	597	1	1	1	2
6	42	1	0	13	0	0	47	1	477	1	1	1	2
6	42	1	0	14	0	1	47	0	491	1	1	1	2
6	42	1	0	16	0	0	49	1	567	1	1	1	2
6	42	1	0	17	0	0	47	1	744	1	1	1	2
6	42	1	0	18	0	0	47	1	497	1	1	1	2
6	42	1	0	19	0	0	49	1	572	1	1	1	2
6	42	1	0	20	0	1	49	0	528	1	1	1	2
6	42	1	0	22	0	0	49	1	444	1	1	1	2
6	42	1	0	23	1	666	49	1	576	1	1	0	2
6	45	1	0	5	0	1	47	0	655	1	1	1	2
6	45	1	0	7	0	1	49	0	607	1	1	1	2
6	45	1	0	9	0	0	49	1	1158	1	1	1	2
6	45	1	0	10	0	1	49	0	445	1	1	1	2
6	45	1	0	12	0	0	47	1	473	1	1	1	2
6	45	1	0	13	0	1	47	0	659	1	1	1	2
6	45	1	0	15	0	1	47	1	458	1	1	1	2
6	45	1	0	16	0	0	49	1	541	1	1	1	2
6	45	1	0	17	0	0	47	1	563	1	1	1	2
6	45	1	0	18	0	0	47	1	422	1	1	1	2
6	45	1	0	19	0	1	47	0	371	1	1	1	2
6	45	1	0	21	0	0	49	1	582	1	1	1	2
6	45	1	0	22	1	666	47	1	540	1	1	0	2
6	55	1	0	5	0	0	0	0	1750	1	1	1	2
6	55	1	0	7	0	1	49	1	683	1	1	1	2
6	55	1	0	8	0	1	47	1	533	1	1	1	2
6	55	1	0	9	0	0	47	0	361	1	1	1	2
6	55	1	0	11	0	0	49	0	344	1	1	1	2
6	55	1	0	13	0	1	49	1	341	1	1	1	2
6	55	1	0	14	0	0	49	0	304	1	1	1	2
6	55	1	0	16	0	0	49	0	176	1	1	1	2
6	55	1	0	18	0	1	49	0	237	1	1	1	2
6	55	1	0	20	0	1	49	0	363	1	1	1	2
6	55	1	0	22	0	1	49	1	101	1	1	1	2
6	55	1	0	23	0	0	49	1	232	1	1	1	2
6	55	1	0	24	1	666	47	1	1007	1	1	0	2
6	14	2	4	3	0	0	49	1	443	1	0	0	0
6	14	2	4	4	0	1	49	0	347	1	0	0	0
6	14	2	4	6	0	0	49	0	398	1	0	0	0
6	14	2	4	8	0	1	47	0	213	1	0	0	0
6	14	2	4	11	0	0	49	0	686	1	0	1	0
6	14	2	4	13	0	0	47	0	370	1	0	1	0
6	14	2	4	15	0	0	47	0	363	1	0	1	0
6	14	2	4	17	0	0	49	0	168	1	0	1	0
6	14	2	4	19	0	1	49	1	195	1	0	1	0
6	14	2	4	20	0	1	47	1	405	1	0	1	0
6	14	2	4	21	0	0	47	0	407	1	0	1	0
6	14	2	4	23	0	1	49	1	275	1	0	1	0
6	14	2	4	24	0	1	49	0	275	1	0	1	0
6	14	2	4	26	0	1	49	1	365	1	0	1	0
6	14	2	4	27	0	0	49	0	408	1	0	1	0
6	14	2	4	29	0	1	47	1	111	1	0	1	0
6	14	2	4	30	1	666	49	0	962	1	0	0	0
6	18	2	4	3	0	1	47	0	583	1	1	0	0
6	18	2	4	5	0	0	47	1	509	1	1	0	0
6	18	2	4	6	0	1	49	0	485	1	1	0	0
6	18	2	4	8	0	0	49	1	475	1	1	0	0
6	18	2	4	10	0	0	47	1	568	1	1	1	0
6	18	2	4	11	0	1	49	0	397	1	1	1	0
6	18	2	4	13	0	0	49	1	472	1	1	1	0
6	18	2	4	14	0	0	47	1	406	1	1	1	0
6	18	2	4	15	0	1	49	0	364	1	1	1	0
6	18	2	4	17	0	0	47	1	763	1	1	1	0
6	18	2	4	18	0	1	47	0	673	1	1	1	0
6	18	2	4	20	0	0	49	1	821	1	1	1	0
6	18	2	4	21	0	1	47	0	1163	1	1	1	0
6	18	2	4	23	0	1	47	0	433	1	1	1	0
6	18	2	4	25	0	1	47	1	433	1	1	1	0
6	18	2	4	26	0	0	49	1	533	1	1	1	0
6	18	2	4	27	1	666	49	1	499	1	1	0	0
6	28	2	4	3	0	0	49	1	1133	1	1	0	0
6	28	2	4	4	0	1	49	0	492	1	1	0	0
6	28	2	4	6	0	0	47	1	468	1	1	0	0
6	28	2	4	7	0	1	47	0	501	1	1	0	0
6	28	2	4	10	0	0	0	0	1750	1	1	1	0
6	28	2	4	12	0	1	49	0	500	1	1	1	0
6	28	2	4	14	0	0	47	1	430	1	1	1	0
6	28	2	4	15	0	0	47	0	387	1	1	1	0
6	28	2	4	17	0	1	49	1	343	1	1	1	0
6	28	2	4	18	0	1	47	0	262	1	1	1	0
6	28	2	4	20	0	0	47	0	400	1	1	1	0
6	28	2	4	22	0	0	49	0	527	1	1	1	0
6	28	2	4	24	0	1	49	0	805	1	1	1	0
6	28	2	4	26	0	0	47	0	331	1	1	1	0
6	28	2	4	28	0	1	49	1	688	1	1	1	0
6	28	2	4	29	0	1	49	0	738	1	1	1	0
6	28	2	4	31	1	666	47	1	682	1	1	0	0
6	31	2	4	3	0	0	49	1	1013	1	1	0	0
6	31	2	4	4	0	0	47	1	566	1	1	0	0
6	31	2	4	5	0	1	47	0	566	1	1	0	0
6	31	2	4	7	0	1	49	0	611	1	1	0	0
6	31	2	4	10	0	0	47	1	1412	1	1	1	0
6	31	2	4	11	0	1	47	0	523	1	1	1	0
6	31	2	4	13	0	0	49	1	402	1	1	1	0
6	31	2	4	14	0	1	49	0	543	1	1	1	0
6	31	2	4	16	0	1	49	1	533	1	1	1	0
6	31	2	4	17	0	1	49	0	719	1	1	1	0
6	31	2	4	19	0	0	49	1	508	1	1	1	0
6	31	2	4	20	0	0	47	1	399	1	1	1	0
6	31	2	4	21	0	1	47	0	588	1	1	1	0
6	31	2	4	23	0	0	47	1	976	1	1	1	0
6	31	2	4	24	0	0	49	1	530	1	1	1	0
6	31	2	4	25	0	1	49	0	613	1	1	1	0
6	31	2	4	27	1	666	47	1	597	1	1	0	0
6	37	2	4	3	0	0	47	1	795	1	0	0	0
6	37	2	4	4	0	0	49	1	413	1	0	0	0
6	37	2	4	5	0	1	47	0	385	1	0	0	0
6	37	2	4	7	0	1	49	0	377	1	0	0	0
6	37	2	4	10	0	0	0	0	1750	1	0	1	0
6	37	2	4	12	0	1	49	0	462	1	0	1	0
6	37	2	4	14	0	1	49	1	870	1	0	1	0
6	37	2	4	15	0	0	47	0	542	1	0	1	0
6	37	2	4	17	0	1	49	0	411	1	0	1	0
6	37	2	4	19	0	1	49	1	579	1	0	1	0
6	37	2	4	20	0	0	49	0	472	1	0	1	0
6	37	2	4	22	0	0	49	0	369	1	0	1	0
6	37	2	4	24	0	0	49	0	450	1	0	1	0
6	37	2	4	26	0	1	47	1	561	1	0	1	0
6	37	2	4	27	0	1	49	1	394	1	0	1	0
6	37	2	4	28	0	0	49	1	427	1	0	1	0
6	37	2	4	29	1	666	49	0	1050	1	0	0	0
6	46	2	4	3	0	0	47	1	871	1	1	0	0
6	46	2	4	4	0	1	49	0	651	1	1	0	0
6	46	2	4	6	0	1	47	0	376	1	1	0	0
6	46	2	4	8	0	0	49	1	422	1	1	0	0
6	46	2	4	10	0	0	0	0	1750	1	1	1	0
6	46	2	4	12	0	1	47	0	463	1	1	1	0
6	46	2	4	14	0	1	49	1	298	1	1	1	0
6	46	2	4	15	0	1	49	0	385	1	1	1	0
6	46	2	4	17	0	0	47	1	380	1	1	1	0
6	46	2	4	18	0	0	47	0	422	1	1	1	0
6	46	2	4	20	0	1	47	1	412	1	1	1	0
6	46	2	4	21	0	0	49	1	355	1	1	1	0
6	46	2	4	22	0	1	49	0	313	1	1	1	0
6	46	2	4	24	0	0	47	1	501	1	1	1	0
6	46	2	4	25	0	1	49	1	261	1	1	1	0
6	46	2	4	26	0	0	47	1	403	1	1	1	0
6	46	2	4	27	1	666	47	1	516	1	1	0	0
6	56	2	4	3	0	0	47	1	506	1	1	0	0
6	56	2	4	4	0	0	47	0	391	1	1	0	0
6	56	2	4	6	0	1	49	0	459	1	1	0	0
6	56	2	4	8	0	1	47	0	478	1	1	0	0
6	56	2	4	11	0	1	47	0	555	1	1	1	0
6	56	2	4	13	0	0	47	1	411	1	1	1	0
6	56	2	4	14	0	1	49	0	465	1	1	1	0
6	56	2	4	16	0	0	49	1	899	1	1	1	0
6	56	2	4	17	0	0	47	1	454	1	1	1	0
6	56	2	4	18	0	0	49	1	516	1	1	1	0
6	56	2	4	19	0	1	47	0	495	1	1	1	0
6	56	2	4	21	0	0	49	1	570	1	1	1	0
6	56	2	4	22	0	1	49	0	563	1	1	1	0
6	56	2	4	24	0	1	49	0	1039	1	1	1	0
6	56	2	4	26	0	0	47	1	673	1	1	1	0
6	56	2	4	27	0	1	47	0	425	1	1	1	0
6	56	2	4	29	1	666	47	1	567	1	1	0	0
6	12	0	4	3	0	1	49	0	688	1	1	0	1
6	12	0	4	5	0	0	47	1	428	1	1	0	1
6	12	0	4	6	0	1	47	0	392	1	1	0	1
6	12	0	4	8	0	0	49	1	407	1	1	0	1
6	12	0	4	9	1	666	49	1	470	1	1	0	1
6	16	0	4	3	0	1	49	0	662	1	1	0	1
6	16	0	4	5	0	0	49	1	539	1	1	0	1
6	16	0	4	6	0	1	47	0	611	1	1	0	1
6	16	0	4	8	0	0	47	1	499	1	1	0	1
6	16	0	4	9	1	666	49	1	414	1	1	0	1
6	24	0	4	3	0	1	0	0	1750	1	1	0	1
6	24	0	4	5	0	1	47	0	943	1	1	0	1
6	24	0	4	7	0	0	49	1	509	1	1	0	1
6	24	0	4	8	0	0	47	1	364	1	1	0	1
6	24	0	4	9	1	666	47	1	940	1	1	0	1
6	35	0	4	3	0	0	49	1	617	1	1	0	1
6	35	0	4	4	0	1	49	0	444	1	1	0	1
6	35	0	4	6	0	1	47	0	488	1	1	0	1
6	35	0	4	8	0	0	47	1	483	1	1	0	1
6	35	0	4	9	1	666	49	1	602	1	1	0	1
6	39	0	4	3	0	0	47	1	626	1	1	0	1
6	39	0	4	4	0	0	49	1	346	1	1	0	1
6	39	0	4	5	0	1	47	0	472	1	1	0	1
6	39	0	4	7	0	1	49	0	298	1	1	0	1
6	39	0	4	9	1	666	47	1	995	1	1	0	1
6	49	0	4	3	0	0	47	1	436	1	1	0	1
6	49	0	4	4	0	1	47	0	542	1	1	0	1
6	49	0	4	6	0	0	49	1	553	1	1	0	1
6	49	0	4	7	0	1	49	0	1132	1	1	0	1
6	49	0	4	9	1	666	47	1	561	1	1	0	1
6	53	0	4	3	0	1	49	0	1703	1	1	0	1
6	53	0	4	5	0	0	47	1	1344	1	1	0	1
6	53	0	4	6	0	0	49	1	367	1	1	0	1
6	53	0	4	7	0	1	47	0	384	1	1	0	1
6	53	0	4	9	1	666	47	1	738	1	1	0	1
6	9	1	4	3	0	0	47	0	410	1	0	0	2
6	9	1	4	5	0	0	47	1	560	1	0	0	2
6	9	1	4	6	0	1	0	0	1750	1	0	0	2
6	9	1	4	8	0	1	47	1	501	1	0	0	2
6	9	1	4	11	0	0	47	1	365	1	0	1	2
6	9	1	4	12	0	1	47	0	548	1	0	1	2
6	9	1	4	14	0	0	47	0	973	1	0	1	2
6	9	1	4	16	0	1	47	0	622	1	0	1	2
6	9	1	4	18	0	0	47	1	520	1	0	1	2
6	9	1	4	19	0	1	47	0	1136	1	0	1	2
6	9	1	4	21	0	0	47	1	479	1	0	1	2
6	9	1	4	22	0	1	49	0	618	1	0	1	2
6	9	1	4	24	0	1	49	0	513	1	0	1	2
6	9	1	4	26	0	0	49	1	902	1	0	1	2
6	9	1	4	27	0	0	49	1	448	1	0	1	2
6	9	1	4	28	0	1	49	0	424	1	0	1	2
6	9	1	4	30	1	666	47	0	1516	1	0	0	2
6	20	1	4	3	0	0	49	1	638	1	1	0	2
6	20	1	4	4	0	1	47	0	527	1	1	0	2
6	20	1	4	6	0	1	49	0	479	1	1	0	2
6	20	1	4	8	0	0	47	1	508	1	1	0	2
6	20	1	4	11	0	0	0	0	1750	1	1	1	2
6	20	1	4	13	0	0	47	0	685	1	1	1	2
6	20	1	4	15	0	1	49	1	817	1	1	1	2
6	20	1	4	16	0	0	49	0	523	1	1	1	2
6	20	1	4	18	0	0	47	0	417	1	1	1	2
6	20	1	4	20	0	1	49	1	202	1	1	1	2
6	20	1	4	21	0	1	49	0	743	1	1	1	2
6	20	1	4	23	0	1	47	1	265	1	1	1	2
6	20	1	4	24	0	1	47	1	414	1	1	1	2
6	20	1	4	25	0	0	49	0	659	1	1	1	2
6	20	1	4	27	0	0	47	0	670	1	1	1	2
6	20	1	4	29	0	1	49	1	288	1	1	1	2
6	20	1	4	30	1	666	49	1	1367	1	1	0	2
6	27	1	4	3	0	1	47	0	1249	1	1	0	2
6	27	1	4	5	0	0	47	1	496	1	1	0	2
6	27	1	4	6	0	1	49	0	500	1	1	0	2
6	27	1	4	8	0	0	49	1	517	1	1	0	2
6	27	1	4	11	0	1	49	0	710	1	1	1	2
6	27	1	4	13	0	1	49	0	434	1	1	1	2
6	27	1	4	15	0	1	47	0	1199	1	1	1	2
6	27	1	4	17	0	1	47	0	374	1	1	1	2
6	27	1	4	19	0	0	49	1	586	1	1	1	2
6	27	1	4	20	0	0	49	1	441	1	1	1	2
6	27	1	4	21	0	0	49	0	380	1	1	1	2
6	27	1	4	23	0	0	49	0	371	1	1	1	2
6	27	1	4	25	0	1	49	1	379	1	1	1	2
6	27	1	4	26	0	0	49	0	443	1	1	1	2
6	27	1	4	28	0	1	47	1	868	1	1	1	2
6	27	1	4	29	0	0	49	1	549	1	1	1	2
6	27	1	4	30	1	666	47	1	742	1	1	0	2
6	33	1	4	3	0	1	47	0	648	1	0	0	2
6	33	1	4	5	0	1	49	0	311	1	0	0	2
6	33	1	4	7	0	0	47	1	467	1	0	0	2
6	33	1	4	8	0	0	49	1	354	1	0	0	2
6	33	1	4	11	0	1	47	0	1021	1	0	1	2
6	33	1	4	13	0	1	47	0	423	1	0	1	2
6	33	1	4	15	0	1	49	0	1224	1	0	1	2
6	33	1	4	17	0	0	47	1	793	1	0	1	2
6	33	1	4	18	0	1	49	0	376	1	0	1	2
6	33	1	4	20	0	0	47	1	660	1	0	1	2
6	33	1	4	21	0	0	47	1	441	1	0	1	2
6	33	1	4	22	0	0	49	1	441	1	0	1	2
6	33	1	4	23	0	1	47	0	827	1	0	1	2
6	33	1	4	25	0	1	49	0	394	1	0	1	2
6	33	1	4	27	0	0	49	1	716	1	0	1	2
6	33	1	4	28	0	0	49	1	382	1	0	1	2
6	33	1	4	29	1	666	0	0	1750	1	0	0	2
6	38	1	4	3	0	1	47	0	1341	1	1	0	2
6	38	1	4	5	0	0	47	1	703	1	1	0	2
6	38	1	4	6	0	1	49	0	444	1	1	0	2
6	38	1	4	8	0	0	47	0	391	1	1	0	2
6	38	1	4	12	0	1	47	0	742	1	1	1	2
6	38	1	4	14	0	1	47	0	535	1	1	1	2
6	38	1	4	16	0	0	49	1	620	1	1	1	2
6	38	1	4	17	0	1	49	0	394	1	1	1	2
6	38	1	4	19	0	1	49	1	620	1	1	1	2
6	38	1	4	20	0	0	49	1	546	1	1	1	2
6	38	1	4	21	0	1	49	0	333	1	1	1	2
6	38	1	4	23	0	0	47	1	599	1	1	1	2
6	38	1	4	24	0	1	49	0	593	1	1	1	2
6	38	1	4	26	0	0	49	0	1158	1	1	1	2
6	38	1	4	28	0	0	49	1	597	1	1	1	2
6	38	1	4	29	0	0	49	0	765	1	1	1	2
6	38	1	4	31	1	666	47	1	759	1	1	0	2
6	48	1	4	3	0	0	47	1	394	1	1	0	2
6	48	1	4	4	0	1	49	0	390	1	1	0	2
6	48	1	4	6	0	1	47	0	455	1	1	0	2
6	48	1	4	8	0	0	49	1	338	1	1	0	2
6	48	1	4	11	0	1	49	0	986	1	1	1	2
6	48	1	4	13	0	0	47	1	715	1	1	1	2
6	48	1	4	14	0	0	47	1	640	1	1	1	2
6	48	1	4	15	0	0	49	1	815	1	1	1	2
6	48	1	4	16	0	1	47	0	457	1	1	1	2
6	48	1	4	18	0	1	47	0	555	1	1	1	2
6	48	1	4	20	0	1	47	0	652	1	1	1	2
6	48	1	4	22	0	1	49	0	391	1	1	1	2
6	48	1	4	24	0	0	49	1	674	1	1	1	2
6	48	1	4	25	0	0	49	1	418	1	1	1	2
6	48	1	4	26	0	0	47	1	445	1	1	1	2
6	48	1	4	27	0	1	0	0	1750	1	1	1	2
6	48	1	4	29	1	666	49	1	1402	1	1	0	2
6	54	1	4	3	0	1	49	0	457	1	1	0	2
6	54	1	4	5	0	0	49	1	405	1	1	0	2
6	54	1	4	6	0	0	47	1	617	1	1	0	2
6	54	1	4	7	0	1	47	0	618	1	1	0	2
6	54	1	4	11	0	1	47	0	622	1	1	1	2
6	54	1	4	13	0	1	49	0	713	1	1	1	2
6	54	1	4	15	0	1	47	0	614	1	1	1	2
6	54	1	4	17	0	0	47	0	443	1	1	1	2
6	54	1	4	19	0	1	47	0	412	1	1	1	2
6	54	1	4	21	0	0	49	1	685	1	1	1	2
6	54	1	4	22	0	1	49	0	400	1	1	1	2
6	54	1	4	24	0	0	47	1	478	1	1	1	2
6	54	1	4	25	0	0	47	0	426	1	1	1	2
6	54	1	4	27	0	0	47	1	441	1	1	1	2
6	54	1	4	28	0	1	49	0	484	1	1	1	2
6	54	1	4	30	0	0	47	1	497	1	1	1	2
6	54	1	4	31	1	666	49	1	556	1	1	0	2
7	11	2	0	4	0	0	47	1	747	1	0	1	0
7	11	2	0	5	0	1	49	0	451	1	0	1	0
7	11	2	0	7	0	0	47	1	430	1	0	1	0
7	11	2	0	8	0	0	47	1	330	1	0	1	0
7	11	2	0	9	0	1	47	0	395	1	0	1	0
7	11	2	0	11	0	0	49	1	381	1	0	1	0
7	11	2	0	12	0	1	47	1	502	1	0	1	0
7	11	2	0	13	0	1	49	1	526	1	0	1	0
7	11	2	0	14	0	1	49	1	356	1	0	1	0
7	11	2	0	15	0	0	49	1	403	1	0	1	0
7	11	2	0	16	0	0	49	1	395	1	0	1	0
7	11	2	0	17	0	1	47	1	480	1	0	1	0
7	11	2	0	18	1	666	47	0	1508	1	0	0	0
7	18	2	0	4	0	0	49	1	518	1	1	1	0
7	18	2	0	5	0	1	47	1	572	1	1	1	0
7	18	2	0	6	0	1	47	1	393	1	1	1	0
7	18	2	0	7	0	0	47	1	532	1	1	1	0
7	18	2	0	8	0	1	49	1	482	1	1	1	0
7	18	2	0	9	0	0	47	1	488	1	1	1	0
7	18	2	0	10	0	1	47	0	809	1	1	1	0
7	18	2	0	12	0	1	49	1	1409	1	1	1	0
7	18	2	0	13	0	0	49	1	482	1	1	1	0
7	18	2	0	14	0	0	49	1	439	1	1	1	0
7	18	2	0	15	0	0	47	1	524	1	1	1	0
7	18	2	0	16	0	1	47	1	482	1	1	1	0
7	18	2	0	17	1	666	49	1	1431	1	1	0	0
7	27	2	0	4	0	0	49	1	456	1	1	1	0
7	27	2	0	5	0	0	49	1	494	1	1	1	0
7	27	2	0	6	0	0	47	1	647	1	1	1	0
7	27	2	0	7	0	1	49	1	452	1	1	1	0
7	27	2	0	8	0	0	47	1	624	1	1	1	0
7	27	2	0	9	0	1	49	1	446	1	1	1	0
7	27	2	0	10	0	1	49	1	410	1	1	1	0
7	27	2	0	11	0	1	47	1	850	1	1	1	0
7	27	2	0	12	0	0	47	1	550	1	1	1	0
7	27	2	0	13	0	1	47	1	891	1	1	1	0
7	27	2	0	14	0	0	49	1	396	1	1	1	0
7	27	2	0	15	0	1	49	0	517	1	1	1	0
7	27	2	0	17	1	666	49	1	1005	1	1	0	0
7	34	2	0	4	0	1	49	1	443	1	1	1	0
7	34	2	0	5	0	0	47	1	683	1	1	1	0
7	34	2	0	6	0	1	49	1	480	1	1	1	0
7	34	2	0	7	0	1	47	1	417	1	1	1	0
7	34	2	0	8	0	1	47	0	439	1	1	1	0
7	34	2	0	10	0	0	49	1	319	1	1	1	0
7	34	2	0	11	0	1	47	1	542	1	1	1	0
7	34	2	0	12	0	0	49	1	524	1	1	1	0
7	34	2	0	13	0	0	49	1	406	1	1	1	0
7	34	2	0	14	0	0	47	1	511	1	1	1	0
7	34	2	0	15	0	1	47	1	932	1	1	1	0
7	34	2	0	16	0	0	47	1	352	1	1	1	0
7	34	2	0	17	1	666	47	1	716	1	1	0	0
7	42	2	0	4	0	0	47	1	518	1	0	1	0
7	42	2	0	5	0	0	49	1	455	1	0	1	0
7	42	2	0	6	0	1	49	1	515	1	0	1	0
7	42	2	0	7	0	0	49	1	588	1	0	1	0
7	42	2	0	8	0	1	49	0	359	1	0	1	0
7	42	2	0	10	0	0	47	1	623	1	0	1	0
7	42	2	0	11	0	0	47	1	384	1	0	1	0
7	42	2	0	12	0	1	49	1	546	1	0	1	0
7	42	2	0	13	0	1	49	1	431	1	0	1	0
7	42	2	0	14	0	1	47	1	351	1	0	1	0
7	42	2	0	15	0	1	47	1	435	1	0	1	0
7	42	2	0	16	0	0	49	1	415	1	0	1	0
7	42	2	0	17	1	666	47	0	1018	1	0	0	0
7	45	2	0	4	0	0	49	1	473	1	1	1	0
7	45	2	0	5	0	0	49	1	425	1	1	1	0
7	45	2	0	6	0	1	49	1	467	1	1	1	0
7	45	2	0	7	0	0	47	1	424	1	1	1	0
7	45	2	0	8	0	0	47	1	425	1	1	1	0
7	45	2	0	9	0	0	49	1	468	1	1	1	0
7	45	2	0	10	0	1	49	1	374	1	1	1	0
7	45	2	0	11	0	0	47	1	396	1	1	1	0
7	45	2	0	12	0	1	47	1	538	1	1	1	0
7	45	2	0	13	0	1	47	1	605	1	1	1	0
7	45	2	0	14	0	1	47	1	364	1	1	1	0
7	45	2	0	15	0	1	49	1	487	1	1	1	0
7	45	2	0	16	1	666	47	1	925	1	1	0	0
7	54	2	0	4	0	0	49	1	482	1	1	1	0
7	54	2	0	5	0	1	47	1	444	1	1	1	0
7	54	2	0	6	0	0	47	1	485	1	1	1	0
7	54	2	0	7	0	0	49	1	466	1	1	1	0
7	54	2	0	8	0	1	49	1	480	1	1	1	0
7	54	2	0	9	0	0	47	1	340	1	1	1	0
7	54	2	0	10	0	0	47	1	354	1	1	1	0
7	54	2	0	11	0	0	49	1	468	1	1	1	0
7	54	2	0	12	0	1	47	1	359	1	1	1	0
7	54	2	0	13	0	1	49	1	524	1	1	1	0
7	54	2	0	14	0	1	49	1	436	1	1	1	0
7	54	2	0	15	0	1	47	1	401	1	1	1	0
7	54	2	0	16	1	666	49	1	856	1	1	0	0
7	13	0	0	3	1	666	49	0	722	1	0	0	1
7	16	0	0	3	1	666	0	0	1750	1	0	0	1
7	28	0	0	3	1	666	49	1	1088	1	1	0	1
7	33	0	0	3	1	666	47	1	784	1	1	0	1
7	40	0	0	3	1	666	47	1	649	1	1	0	1
7	49	0	0	3	1	666	47	1	763	1	1	0	1
7	55	0	0	3	1	666	49	1	870	1	1	0	1
7	10	1	0	5	0	0	49	0	971	1	1	1	2
7	10	1	0	7	0	1	49	0	993	1	1	1	2
7	10	1	0	9	0	0	49	1	418	1	1	1	2
7	10	1	0	10	0	0	49	1	470	1	1	1	2
7	10	1	0	11	0	0	49	0	802	1	1	1	2
7	10	1	0	13	0	0	47	1	508	1	1	1	2
7	10	1	0	14	0	1	47	0	664	1	1	1	2
7	10	1	0	16	0	1	49	0	713	1	1	1	2
7	10	1	0	18	0	1	49	1	792	1	1	1	2
7	10	1	0	19	0	0	49	1	599	1	1	1	2
7	10	1	0	20	0	1	49	1	444	1	1	1	2
7	10	1	0	21	0	1	47	1	585	1	1	1	2
7	10	1	0	22	1	666	49	1	1040	1	1	0	2
7	19	1	0	5	0	0	49	1	495	1	1	1	2
7	19	1	0	6	0	1	49	1	420	1	1	1	2
7	19	1	0	7	0	1	47	1	584	1	1	1	2
7	19	1	0	8	0	1	49	1	540	1	1	1	2
7	19	1	0	9	0	0	49	1	403	1	1	1	2
7	19	1	0	10	0	0	47	1	478	1	1	1	2
7	19	1	0	11	0	0	49	1	470	1	1	1	2
7	19	1	0	12	0	1	49	1	421	1	1	1	2
7	19	1	0	13	0	0	47	1	483	1	1	1	2
7	19	1	0	14	0	1	49	0	448	1	1	1	2
7	19	1	0	16	0	0	47	1	678	1	1	1	2
7	19	1	0	17	0	1	47	1	607	1	1	1	2
7	19	1	0	18	1	666	47	1	1482	1	1	0	2
7	24	1	0	5	0	0	0	0	1750	1	0	1	2
7	24	1	0	7	0	0	49	1	452	1	0	1	2
7	24	1	0	8	0	1	47	1	588	1	0	1	2
7	24	1	0	9	0	1	49	1	483	1	0	1	2
7	24	1	0	10	0	1	47	1	408	1	0	1	2
7	24	1	0	11	0	1	47	1	467	1	0	1	2
7	24	1	0	12	0	0	47	1	952	1	0	1	2
7	24	1	0	13	0	0	47	1	415	1	0	1	2
7	24	1	0	14	0	1	47	0	372	1	0	1	2
7	24	1	0	16	0	1	49	1	349	1	0	1	2
7	24	1	0	17	0	0	49	1	450	1	0	1	2
7	24	1	0	18	0	0	49	1	377	1	0	1	2
7	24	1	0	19	1	666	47	0	601	1	0	0	2
7	30	1	0	5	0	1	47	1	642	1	0	1	2
7	30	1	0	6	0	1	47	1	559	1	0	1	2
7	30	1	0	7	0	1	49	1	443	1	0	1	2
7	30	1	0	8	0	0	47	1	596	1	0	1	2
7	30	1	0	9	0	0	49	1	440	1	0	1	2
7	30	1	0	10	0	1	47	0	756	1	0	1	2
7	30	1	0	12	0	1	49	1	355	1	0	1	2
7	30	1	0	13	0	0	49	1	373	1	0	1	2
7	30	1	0	14	0	1	47	1	531	1	0	1	2
7	30	1	0	15	0	0	49	1	692	1	0	1	2
7	30	1	0	16	0	0	47	1	579	1	0	1	2
7	30	1	0	17	0	0	47	1	386	1	0	1	2
7	30	1	0	18	1	666	0	0	1750	1	0	0	2
7	37	1	0	5	0	1	0	0	1750	1	1	1	2
7	37	1	0	7	0	1	49	1	549	1	1	1	2
7	37	1	0	8	0	1	47	1	468	1	1	1	2
7	37	1	0	9	0	0	47	1	604	1	1	1	2
7	37	1	0	10	0	0	49	1	416	1	1	1	2
7	37	1	0	11	0	0	47	1	540	1	1	1	2
7	37	1	0	12	0	0	49	1	440	1	1	1	2
7	37	1	0	13	0	0	49	1	363	1	1	1	2
7	37	1	0	14	0	1	49	1	335	1	1	1	2
7	37	1	0	15	0	0	47	1	390	1	1	1	2
7	37	1	0	16	0	1	49	1	546	1	1	1	2
7	37	1	0	17	0	1	47	1	386	1	1	1	2
7	37	1	0	18	1	666	49	1	852	1	1	0	2
7	44	1	0	5	0	1	49	0	594	1	1	1	2
7	44	1	0	7	0	0	47	1	568	1	1	1	2
7	44	1	0	8	0	1	49	1	486	1	1	1	2
7	44	1	0	9	0	1	49	1	431	1	1	1	2
7	44	1	0	10	0	1	49	1	448	1	1	1	2
7	44	1	0	11	0	0	49	1	596	1	1	1	2
7	44	1	0	12	0	0	49	1	364	1	1	1	2
7	44	1	0	13	0	0	47	1	529	1	1	1	2
7	44	1	0	14	0	0	49	1	508	1	1	1	2
7	44	1	0	15	0	1	47	1	421	1	1	1	2
7	44	1	0	16	0	0	47	1	433	1	1	1	2
7	44	1	0	17	0	1	47	1	474	1	1	1	2
7	44	1	0	18	1	666	49	1	1640	1	1	0	2
7	53	1	0	5	0	0	47	1	485	1	0	1	2
7	53	1	0	6	0	0	49	1	435	1	0	1	2
7	53	1	0	7	0	1	47	1	852	1	0	1	2
7	53	1	0	8	0	0	49	1	481	1	0	1	2
7	53	1	0	9	0	0	47	1	606	1	0	1	2
7	53	1	0	10	0	0	49	1	515	1	0	1	2
7	53	1	0	11	0	0	47	1	515	1	0	1	2
7	53	1	0	12	0	1	49	1	652	1	0	1	2
7	53	1	0	13	0	1	47	1	491	1	0	1	2
7	53	1	0	14	0	1	47	1	462	1	0	1	2
7	53	1	0	15	0	1	49	1	436	1	0	1	2
7	53	1	0	16	0	1	49	1	477	1	0	1	2
7	53	1	0	17	1	666	47	0	464	1	0	0	2
7	14	2	4	3	0	0	47	1	715	1	0	0	0
7	14	2	4	4	0	1	47	1	530	1	0	0	0
7	14	2	4	5	0	1	49	1	482	1	0	0	0
7	14	2	4	6	0	0	49	1	484	1	0	0	0
7	14	2	4	8	0	0	49	1	496	1	0	1	0
7	14	2	4	9	0	1	47	1	541	1	0	1	0
7	14	2	4	10	0	0	47	1	492	1	0	1	0
7	14	2	4	11	0	0	49	1	492	1	0	1	0
7	14	2	4	12	0	1	49	1	396	1	0	1	0
7	14	2	4	13	0	1	49	1	385	1	0	1	0
7	14	2	4	14	0	0	47	1	446	1	0	1	0
7	14	2	4	15	0	1	47	1	459	1	0	1	0
7	14	2	4	16	0	1	49	1	478	1	0	1	0
7	14	2	4	17	0	0	49	1	485	1	0	1	0
7	14	2	4	18	0	1	47	1	592	1	0	1	0
7	14	2	4	19	0	0	47	1	462	1	0	1	0
7	14	2	4	20	1	666	49	0	1075	1	0	0	0
7	20	2	4	3	0	0	47	1	649	1	1	0	0
7	20	2	4	4	0	1	49	1	367	1	1	0	0
7	20	2	4	5	0	1	47	1	515	1	1	0	0
7	20	2	4	6	0	0	49	1	489	1	1	0	0
7	20	2	4	8	0	1	47	1	514	1	1	1	0
7	20	2	4	9	0	1	47	1	480	1	1	1	0
7	20	2	4	10	0	0	49	1	452	1	1	1	0
7	20	2	4	11	0	1	49	1	623	1	1	1	0
7	20	2	4	12	0	1	49	1	409	1	1	1	0
7	20	2	4	13	0	0	49	1	635	1	1	1	0
7	20	2	4	14	0	0	47	1	521	1	1	1	0
7	20	2	4	15	0	0	47	1	534	1	1	1	0
7	20	2	4	16	0	1	47	1	452	1	1	1	0
7	20	2	4	17	0	0	49	1	574	1	1	1	0
7	20	2	4	18	0	1	49	1	652	1	1	1	0
7	20	2	4	19	0	0	47	1	508	1	1	1	0
7	20	2	4	20	1	666	49	1	1078	1	1	0	0
7	23	2	4	3	0	0	49	1	435	1	1	0	0
7	23	2	4	4	0	1	47	1	674	1	1	0	0
7	23	2	4	5	0	1	49	1	623	1	1	0	0
7	23	2	4	6	0	0	47	1	658	1	1	0	0
7	23	2	4	8	0	1	47	1	621	1	1	1	0
7	23	2	4	9	0	1	47	1	560	1	1	1	0
7	23	2	4	10	0	0	49	1	479	1	1	1	0
7	23	2	4	11	0	1	47	1	466	1	1	1	0
7	23	2	4	12	0	0	47	1	585	1	1	1	0
7	23	2	4	13	0	1	49	1	443	1	1	1	0
7	23	2	4	14	0	1	49	1	435	1	1	1	0
7	23	2	4	15	0	1	49	1	399	1	1	1	0
7	23	2	4	16	0	0	47	1	407	1	1	1	0
7	23	2	4	17	0	0	47	0	446	1	1	1	0
7	23	2	4	19	0	0	49	1	397	1	1	1	0
7	23	2	4	20	0	0	47	1	660	1	1	1	0
7	23	2	4	21	1	666	47	1	992	1	1	0	0
7	31	2	4	3	0	1	47	1	711	1	1	0	0
7	31	2	4	4	0	0	49	1	470	1	1	0	0
7	31	2	4	5	0	1	49	1	457	1	1	0	0
7	31	2	4	6	0	0	47	1	532	1	1	0	0
7	31	2	4	8	0	0	47	1	525	1	1	1	0
7	31	2	4	9	0	1	47	1	574	1	1	1	0
7	31	2	4	10	0	1	47	1	455	1	1	1	0
7	31	2	4	11	0	0	47	1	496	1	1	1	0
7	31	2	4	12	0	1	49	1	567	1	1	1	0
7	31	2	4	13	0	1	49	1	642	1	1	1	0
7	31	2	4	14	0	0	49	1	402	1	1	1	0
7	31	2	4	15	0	1	47	1	492	1	1	1	0
7	31	2	4	16	0	0	49	1	579	1	1	1	0
7	31	2	4	17	0	0	47	1	528	1	1	1	0
7	31	2	4	18	0	1	49	1	495	1	1	1	0
7	31	2	4	19	0	0	49	1	476	1	1	1	0
7	31	2	4	20	1	666	47	1	1221	1	1	0	0
7	39	2	4	3	0	1	49	0	506	1	0	0	0
7	39	2	4	5	0	0	49	1	583	1	0	0	0
7	39	2	4	6	0	0	47	1	408	1	0	0	0
7	39	2	4	7	0	1	49	1	599	1	0	0	0
7	39	2	4	9	0	0	49	1	499	1	0	1	0
7	39	2	4	10	0	1	49	1	398	1	0	1	0
7	39	2	4	11	0	1	47	1	561	1	0	1	0
7	39	2	4	12	0	0	47	1	433	1	0	1	0
7	39	2	4	13	0	0	47	1	428	1	0	1	0
7	39	2	4	14	0	0	47	1	370	1	0	1	0
7	39	2	4	15	0	0	49	1	416	1	0	1	0
7	39	2	4	16	0	1	49	1	439	1	0	1	0
7	39	2	4	17	0	1	47	1	394	1	0	1	0
