subject	blocknr	blocktype	preDT	trialtype	congruency	response	correct	RT	P_correct	Pre_Post	mini_block	first_trial
1	9	0	4	0	1	49	1	759	1	0	0	0
1	9	0	4	0	0	47	1	480	1	0	0	0
1	9	0	4	0	1	47	1	483	1	0	0	0
1	9	0	4	0	0	47	0	344	1	0	0	0
1	9	0	4	1	666	47	1	368	1	0	0	0
1	9	0	4	0	0	47	1	368	1	1	1	0
1	9	0	4	0	1	47	1	526	1	1	1	1
1	9	0	4	0	0	47	0	364	1	1	1	1
1	9	0	4	0	0	47	1	510	1	1	1	1
1	9	0	4	0	1	47	0	430	1	1	2	1
1	9	0	4	0	0	47	1	356	1	1	2	1
1	9	0	4	0	1	49	1	360	1	1	2	1
1	9	0	4	0	1	47	1	369	1	1	2	1
1	9	0	4	0	1	49	1	535	1	1	3	1
1	9	0	4	0	0	49	1	446	1	1	3	1
1	9	0	4	0	0	49	1	409	1	1	3	1
1	9	0	4	0	1	47	1	375	1	1	3	1
1	10	1	0	2	666	0	0	1250	0	1	1	0
1	10	1	0	0	1	47	1	808	0	1	1	0
1	10	1	0	0	0	47	0	428	0	1	1	1
1	10	1	0	0	0	47	1	621	0	1	1	1
1	10	1	0	0	0	49	1	675	0	1	1	1
1	10	1	0	0	1	49	1	480	0	1	2	1
1	10	1	0	0	0	49	0	322	0	1	2	1
1	10	1	0	0	0	49	1	508	0	1	2	1
1	10	1	0	0	1	49	1	463	0	1	2	1
1	10	1	0	0	1	49	1	361	0	1	3	1
1	10	1	0	0	0	47	1	558	0	1	3	1
1	10	1	0	0	1	47	1	543	0	1	3	1
1	10	1	0	0	1	47	1	483	0	1	3	1
1	11	2	0	0	0	47	1	581	1	1	1	0
1	11	2	0	0	1	47	1	462	1	1	1	1
1	11	2	0	0	0	47	1	347	1	1	1	1
1	11	2	0	0	1	49	1	378	1	1	1	1
1	11	2	0	0	0	47	1	438	1	1	2	1
1	11	2	0	0	1	47	1	369	1	1	2	1
1	11	2	0	0	0	49	1	325	1	1	2	1
1	11	2	0	0	1	49	1	437	1	1	2	1
1	11	2	0	0	1	47	1	344	1	1	3	1
1	11	2	0	0	1	47	0	630	1	1	3	1
1	11	2	0	0	0	47	0	485	1	1	3	1
1	11	2	0	0	0	49	1	583	1	1	3	1
1	11	2	0	1	666	47	1	636	1	1	3	1
1	12	1	4	0	0	47	1	438	1	0	0	0
1	12	1	4	0	0	49	1	602	1	0	0	0
1	12	1	4	0	1	47	1	484	1	0	0	0
1	12	1	4	0	1	49	1	472	1	0	0	0
1	12	1	4	2	666	57	1	727	1	0	0	0
1	12	1	4	0	0	49	1	667	1	1	1	0
1	12	1	4	0	0	47	1	1054	1	1	1	1
1	12	1	4	0	0	49	1	653	1	1	1	1
1	12	1	4	0	0	47	1	781	1	1	1	1
1	12	1	4	0	0	47	1	708	1	1	2	1
1	12	1	4	0	1	49	1	591	1	1	2	1
1	12	1	4	0	1	47	0	694	1	1	2	1
1	12	1	4	0	1	47	1	513	1	1	2	1
1	12	1	4	0	1	47	1	519	1	1	3	1
1	12	1	4	0	1	47	0	387	1	1	3	1
1	12	1	4	0	0	49	1	798	1	1	3	1
1	12	1	4	0	1	47	1	560	1	1	3	1
1	13	0	0	1	666	47	1	561	1	1	1	0
1	13	0	0	0	1	47	1	607	1	1	1	0
1	13	0	0	0	0	49	1	411	1	1	1	1
1	13	0	0	0	0	49	1	489	1	1	1	1
1	13	0	0	0	1	49	1	452	1	1	1	1
1	13	0	0	0	1	49	1	654	1	1	2	1
1	13	0	0	0	0	47	1	399	1	1	2	1
1	13	0	0	0	0	49	1	693	1	1	2	1
1	13	0	0	0	1	47	1	439	1	1	2	1
1	13	0	0	0	0	47	1	743	1	1	3	1
1	13	0	0	0	1	49	1	433	1	1	3	1
1	13	0	0	0	0	47	1	511	1	1	3	1
1	13	0	0	0	1	47	1	595	1	1	3	1
1	14	2	4	0	0	47	1	561	0	0	0	0
1	14	2	4	0	0	49	1	446	0	0	0	0
1	14	2	4	0	1	49	1	533	0	0	0	0
1	14	2	4	0	1	47	1	462	0	0	0	0
1	14	2	4	3	666	57	1	644	0	0	0	0
1	14	2	4	0	0	47	1	543	0	1	1	0
1	14	2	4	0	0	49	1	701	0	1	1	1
1	14	2	4	0	1	47	1	489	0	1	1	1
1	14	2	4	0	0	47	0	460	0	1	1	1
1	14	2	4	0	0	47	1	480	0	1	2	1
1	14	2	4	0	1	49	1	362	0	1	2	1
1	14	2	4	0	1	47	1	598	0	1	2	1
1	14	2	4	0	1	47	0	450	0	1	2	1
1	14	2	4	0	0	47	1	507	0	1	3	1
1	14	2	4	0	1	47	1	384	0	1	3	1
1	14	2	4	0	0	47	0	344	0	1	3	1
1	14	2	4	0	1	49	1	443	0	1	3	1
1	14	2	4	1	666	47	0	518	0	1	3	1
1	16	2	4	0	0	47	1	525	1	0	0	0
1	16	2	4	0	1	47	1	421	1	0	0	0
1	16	2	4	0	1	49	1	494	1	0	0	0
1	16	2	4	0	0	49	1	558	1	0	0	0
1	16	2	4	3	666	57	1	833	1	0	0	0
1	16	2	4	0	0	47	1	539	1	1	1	0
1	16	2	4	0	1	47	0	414	1	1	1	1
1	16	2	4	0	1	47	1	420	1	1	1	1
1	16	2	4	0	1	47	1	466	1	1	1	1
1	16	2	4	0	1	49	1	426	1	1	2	1
1	16	2	4	0	0	47	1	605	1	1	2	1
1	16	2	4	0	0	49	1	589	1	1	2	1
1	16	2	4	0	0	47	1	585	1	1	2	1
1	16	2	4	0	1	47	1	486	1	1	3	1
1	16	2	4	0	0	49	1	553	1	1	3	1
1	16	2	4	0	1	49	1	577	1	1	3	1
1	16	2	4	0	0	49	1	495	1	1	3	1
1	16	2	4	1	666	47	1	553	1	1	3	1
1	17	1	4	0	0	47	0	510	0	0	0	0
1	17	1	4	0	1	47	1	437	0	0	0	0
1	17	1	4	0	0	47	1	457	0	0	0	0
1	17	1	4	0	1	49	1	701	0	0	0	0
1	17	1	4	2	666	0	0	1250	0	0	0	0
1	17	1	4	0	1	49	1	833	0	1	1	0
1	17	1	4	0	1	49	1	523	0	1	1	1
1	17	1	4	0	0	47	0	557	0	1	1	1
1	17	1	4	0	1	47	1	609	0	1	1	1
1	17	1	4	0	0	49	1	374	0	1	2	1
1	17	1	4	0	1	49	1	408	0	1	2	1
1	17	1	4	0	0	49	0	357	0	1	2	1
1	17	1	4	0	0	47	1	684	0	1	2	1
1	17	1	4	0	0	49	1	482	0	1	3	1
1	17	1	4	0	0	47	1	373	0	1	3	1
1	17	1	4	0	1	47	1	377	0	1	3	1
1	17	1	4	0	1	47	1	410	0	1	3	1
1	18	1	0	2	666	57	1	854	1	1	1	0
1	18	1	0	0	0	49	1	1097	1	1	1	0
1	18	1	0	0	0	47	1	712	1	1	1	1
1	18	1	0	0	0	47	0	411	1	1	1	1
1	18	1	0	0	0	49	1	612	1	1	1	1
1	18	1	0	0	1	49	1	657	1	1	2	1
1	18	1	0	0	1	47	1	939	1	1	2	1
1	18	1	0	0	0	49	0	525	1	1	2	1
1	18	1	0	0	1	47	1	716	1	1	2	1
1	18	1	0	0	1	49	1	584	1	1	3	1
1	18	1	0	0	0	47	1	690	1	1	3	1
1	18	1	0	0	1	49	1	612	1	1	3	1
1	18	1	0	0	1	47	1	824	1	1	3	1
1	19	0	0	1	666	47	0	764	0	1	1	0
1	19	0	0	0	1	49	1	755	0	1	1	0
1	19	0	0	0	0	47	1	624	0	1	1	1
1	19	0	0	0	0	47	1	662	0	1	1	1
1	19	0	0	0	1	47	1	566	0	1	1	1
1	19	0	0	0	0	47	0	373	0	1	2	1
1	19	0	0	0	1	47	1	474	0	1	2	1
1	19	0	0	0	1	49	1	474	0	1	2	1
1	19	0	0	0	0	49	1	688	0	1	2	1
1	19	0	0	0	1	49	1	477	0	1	3	1
1	19	0	0	0	0	47	1	630	0	1	3	1
1	19	0	0	0	0	49	1	624	0	1	3	1
1	19	0	0	0	1	47	1	529	0	1	3	1
1	20	0	4	0	1	49	1	725	0	0	0	0
1	20	0	4	0	0	49	0	448	0	0	0	0
1	20	0	4	0	1	47	1	581	0	0	0	0
1	20	0	4	0	0	47	0	480	0	0	0	0
1	20	0	4	1	666	47	0	818	0	0	0	0
1	20	0	4	0	1	47	1	660	0	1	1	0
1	20	0	4	0	1	47	1	396	0	1	1	1
1	20	0	4	0	0	47	1	558	0	1	1	1
1	20	0	4	0	0	49	1	497	0	1	1	1
1	20	0	4	0	1	49	1	542	0	1	2	1
1	20	0	4	0	0	49	1	468	0	1	2	1
1	20	0	4	0	1	49	1	490	0	1	2	1
1	20	0	4	0	1	49	1	343	0	1	2	1
1	20	0	4	0	1	47	1	795	0	1	3	1
1	20	0	4	0	0	47	1	739	0	1	3	1
1	20	0	4	0	0	47	1	437	0	1	3	1
1	20	0	4	0	0	47	0	446	0	1	3	1
1	21	2	0	0	1	49	1	862	1	1	1	0
1	21	2	0	0	0	49	1	532	1	1	1	1
1	21	2	0	0	0	47	1	487	1	1	1	1
1	21	2	0	0	1	49	1	438	1	1	1	1
1	21	2	0	0	1	47	1	423	1	1	2	1
1	21	2	0	0	1	49	0	416	1	1	2	1
1	21	2	0	0	0	47	1	451	1	1	2	1
1	21	2	0	0	0	49	1	577	1	1	2	1
1	21	2	0	0	0	47	1	542	1	1	3	1
1	21	2	0	0	1	49	1	880	1	1	3	1
1	21	2	0	0	0	49	1	834	1	1	3	1
1	21	2	0	0	1	49	0	381	1	1	3	1
1	21	2	0	1	666	49	1	535	1	1	3	1
1	23	2	4	0	1	47	1	768	0	0	0	0
1	23	2	4	0	0	47	0	398	0	0	0	0
1	23	2	4	0	0	47	1	467	0	0	0	0
1	23	2	4	0	1	49	1	550	0	0	0	0
1	23	2	4	3	666	57	1	751	0	0	0	0
1	23	2	4	0	1	49	1	730	0	1	1	0
1	23	2	4	0	0	47	1	722	0	1	1	1
1	23	2	4	0	0	49	1	909	0	1	1	1
1	23	2	4	0	0	47	0	536	0	1	1	1
1	23	2	4	0	0	47	1	761	0	1	2	1
1	23	2	4	0	1	49	0	507	0	1	2	1
1	23	2	4	0	1	47	1	1114	0	1	2	1
1	23	2	4	0	0	47	1	817	0	1	2	1
1	23	2	4	0	1	47	0	735	0	1	3	1
1	23	2	4	0	1	49	1	705	0	1	3	1
1	23	2	4	0	0	0	0	1250	0	1	3	1
1	23	2	4	0	1	47	1	540	0	1	3	1
1	23	2	4	1	666	47	0	600	0	1	3	1
1	24	2	0	0	0	47	0	789	0	1	1	0
1	24	2	0	0	0	47	1	521	0	1	1	1
1	24	2	0	0	0	49	1	586	0	1	1	1
1	24	2	0	0	1	49	1	449	0	1	1	1
1	24	2	0	0	1	49	1	365	0	1	2	1
1	24	2	0	0	0	49	0	377	0	1	2	1
1	24	2	0	0	0	47	0	384	0	1	2	1
1	24	2	0	0	1	47	1	498	0	1	2	1
1	24	2	0	0	0	49	0	458	0	1	3	1
1	24	2	0	0	1	47	1	280	0	1	3	1
1	24	2	0	0	1	47	0	357	0	1	3	1
1	24	2	0	0	1	47	1	253	0	1	3	1
1	24	2	0	1	666	49	0	324	0	1	3	1
1	25	0	4	0	0	47	1	500	0	0	0	0
1	25	0	4	0	1	47	1	486	0	0	0	0
1	25	0	4	0	1	47	0	387	0	0	0	0
1	25	0	4	0	0	47	0	413	0	0	0	0
1	25	0	4	1	666	49	0	416	0	0	0	0
1	25	0	4	0	0	49	1	535	0	1	1	0
1	25	0	4	0	0	47	1	483	0	1	1	1
1	25	0	4	0	1	49	1	495	0	1	1	1
1	25	0	4	0	0	47	0	360	0	1	1	1
1	25	0	4	0	1	49	1	480	0	1	2	1
1	25	0	4	0	1	49	0	282	0	1	2	1
1	25	0	4	0	1	49	0	353	0	1	2	1
1	25	0	4	0	0	47	1	444	0	1	2	1
1	25	0	4	0	1	47	0	330	0	1	3	1
1	25	0	4	0	1	47	1	405	0	1	3	1
1	25	0	4	0	0	49	1	257	0	1	3	1
1	25	0	4	0	0	47	1	376	0	1	3	1
1	26	1	4	0	0	47	1	547	1	0	0	0
1	26	1	4	0	0	47	0	330	1	0	0	0
1	26	1	4	0	1	47	1	501	1	0	0	0
1	26	1	4	0	1	49	1	356	1	0	0	0
1	26	1	4	2	666	57	1	615	1	0	0	0
1	26	1	4	0	1	49	1	839	1	1	1	0
1	26	1	4	0	0	47	0	667	1	1	1	1
1	26	1	4	0	0	47	1	436	1	1	1	1
1	26	1	4	0	1	47	0	481	1	1	1	1
1	26	1	4	0	1	47	1	869	1	1	2	1
1	26	1	4	0	1	47	1	441	1	1	2	1
1	26	1	4	0	1	49	1	409	1	1	2	1
1	26	1	4	0	0	47	0	520	1	1	2	1
1	26	1	4	0	0	47	1	307	1	1	3	1
1	26	1	4	0	0	49	0	329	1	1	3	1
1	26	1	4	0	0	49	1	447	1	1	3	1
1	26	1	4	0	1	47	1	551	1	1	3	1
1	27	1	0	2	666	57	1	679	1	1	1	0
1	27	1	0	0	1	47	1	785	1	1	1	0
1	27	1	0	0	1	47	1	412	1	1	1	1
1	27	1	0	0	0	49	1	424	1	1	1	1
1	27	1	0	0	1	49	1	505	1	1	1	1
1	27	1	0	0	0	49	1	488	1	1	2	1
1	27	1	0	0	0	47	1	403	1	1	2	1
1	27	1	0	0	0	47	1	335	1	1	2	1
1	27	1	0	0	1	47	0	372	1	1	2	1
1	27	1	0	0	1	49	0	698	1	1	3	1
1	27	1	0	0	0	47	1	479	1	1	3	1
1	27	1	0	0	0	49	1	351	1	1	3	1
1	27	1	0	0	1	49	1	463	1	1	3	1
1	28	0	0	1	666	47	0	507	0	1	1	0
1	28	0	0	0	0	47	0	457	0	1	1	0
1	28	0	0	0	0	47	1	690	0	1	1	1
1	28	0	0	0	1	47	0	516	0	1	1	1
1	28	0	0	0	0	49	0	423	0	1	1	1
1	28	0	0	0	1	47	1	607	0	1	2	1
1	28	0	0	0	1	49	1	467	0	1	2	1
1	28	0	0	0	0	49	1	610	0	1	2	1
1	28	0	0	0	0	47	1	733	0	1	2	1
1	28	0	0	0	1	47	0	690	0	1	3	1
1	28	0	0	0	0	47	0	611	0	1	3	1
1	28	0	0	0	1	47	1	537	0	1	3	1
1	28	0	0	0	1	49	0	358	0	1	3	1
1	30	2	0	0	1	47	1	655	1	1	1	0
1	30	2	0	0	0	47	1	445	1	1	1	1
1	30	2	0	0	1	49	1	686	1	1	1	1
1	30	2	0	0	0	49	1	715	1	1	1	1
1	30	2	0	0	0	47	1	523	1	1	2	1
1	30	2	0	0	0	47	1	416	1	1	2	1
1	30	2	0	0	0	49	1	442	1	1	2	1
1	30	2	0	0	1	49	1	656	1	1	2	1
1	30	2	0	0	1	49	1	433	1	1	3	1
1	30	2	0	0	1	47	1	690	1	1	3	1
1	30	2	0	0	1	47	1	359	1	1	3	1
1	30	2	0	0	0	47	0	371	1	1	3	1
1	30	2	0	1	666	47	1	813	1	1	3	1
1	31	1	4	0	1	49	1	753	1	0	0	0
1	31	1	4	0	0	49	1	467	1	0	0	0
1	31	1	4	0	0	47	1	469	1	0	0	0
1	31	1	4	0	1	47	1	558	1	0	0	0
1	31	1	4	2	666	57	1	644	1	0	0	0
1	31	1	4	0	0	47	1	463	1	1	1	0
1	31	1	4	0	1	47	0	375	1	1	1	1
1	31	1	4	0	1	47	0	424	1	1	1	1
1	31	1	4	0	0	49	1	612	1	1	1	1
1	31	1	4	0	1	47	1	782	1	1	2	1
1	31	1	4	0	0	49	1	412	1	1	2	1
1	31	1	4	0	0	49	1	515	1	1	2	1
1	31	1	4	0	0	47	1	486	1	1	2	1
1	31	1	4	0	0	47	1	659	1	1	3	1
1	31	1	4	0	1	49	0	467	1	1	3	1
1	31	1	4	0	1	47	0	720	1	1	3	1
1	31	1	4	0	1	47	1	462	1	1	3	1
1	32	1	0	2	666	57	1	740	1	1	1	0
1	32	1	0	0	0	49	1	559	1	1	1	0
1	32	1	0	0	1	49	0	435	1	1	1	1
1	32	1	0	0	1	49	1	501	1	1	1	1
1	32	1	0	0	1	49	1	417	1	1	1	1
1	32	1	0	0	0	49	1	575	1	1	2	1
1	32	1	0	0	0	47	1	444	1	1	2	1
1	32	1	0	0	0	47	1	379	1	1	2	1
1	32	1	0	0	1	47	1	433	1	1	2	1
1	32	1	0	0	0	49	1	467	1	1	3	1
1	32	1	0	0	0	49	0	484	1	1	3	1
1	32	1	0	0	1	49	1	453	1	1	3	1
1	32	1	0	0	1	47	1	431	1	1	3	1
1	33	0	0	1	666	49	0	730	0	1	1	0
1	33	0	0	0	0	49	1	530	0	1	1	0
1	33	0	0	0	0	47	1	500	0	1	1	1
1	33	0	0	0	1	47	1	604	0	1	1	1
1	33	0	0	0	1	49	1	440	0	1	1	1
1	33	0	0	0	0	49	1	462	0	1	2	1
1	33	0	0	0	1	47	1	439	0	1	2	1
1	33	0	0	0	1	47	0	424	0	1	2	1
1	33	0	0	0	0	47	1	465	0	1	2	1
1	33	0	0	0	0	47	1	513	0	1	3	1
1	33	0	0	0	0	49	1	501	0	1	3	1
1	33	0	0	0	1	47	1	575	0	1	3	1
1	33	0	0	0	1	49	1	470	0	1	3	1
1	34	2	4	0	1	49	1	807	1	0	0	0
1	34	2	4	0	0	49	1	574	1	0	0	0
1	34	2	4	0	1	47	1	406	1	0	0	0
1	34	2	4	0	0	47	1	414	1	0	0	0
1	34	2	4	3	666	57	1	604	1	0	0	0
1	34	2	4	0	1	49	0	467	1	1	1	0
1	34	2	4	0	1	47	1	683	1	1	1	1
1	34	2	4	0	0	49	1	603	1	1	1	1
1	34	2	4	0	1	49	1	798	1	1	1	1
1	34	2	4	0	1	47	1	496	1	1	2	1
1	34	2	4	0	0	49	0	568	1	1	2	1
1	34	2	4	0	0	47	1	623	1	1	2	1
1	34	2	4	0	1	47	0	344	1	1	2	1
1	34	2	4	0	0	49	1	612	1	1	3	1
1	34	2	4	0	0	49	1	412	1	1	3	1
1	34	2	4	0	0	47	1	519	1	1	3	1
1	34	2	4	0	1	49	1	813	1	1	3	1
1	34	2	4	1	666	47	1	319	1	1	3	1
1	35	0	4	0	0	49	1	853	0	0	0	0
1	35	0	4	0	0	49	0	433	0	0	0	0
1	35	0	4	0	1	47	1	687	0	0	0	0
1	35	0	4	0	1	49	1	504	0	0	0	0
1	35	0	4	1	666	47	0	579	0	0	0	0
1	35	0	4	0	1	49	1	472	0	1	1	0
1	35	0	4	0	0	49	1	916	0	1	1	1
1	35	0	4	0	1	47	1	719	0	1	1	1
1	35	0	4	0	1	49	1	463	0	1	1	1
1	35	0	4	0	0	49	0	393	0	1	2	1
1	35	0	4	0	1	47	1	439	0	1	2	1
1	35	0	4	0	1	49	0	314	0	1	2	1
1	35	0	4	0	0	47	1	482	0	1	2	1
1	35	0	4	0	0	47	1	416	0	1	3	1
1	35	0	4	0	0	49	1	627	0	1	3	1
1	35	0	4	0	0	49	1	440	0	1	3	1
1	35	0	4	0	1	49	1	529	0	1	3	1
1	37	2	4	0	0	49	1	471	0	0	0	0
1	37	2	4	0	1	47	1	680	0	0	0	0
1	37	2	4	0	0	49	0	483	0	0	0	0
1	37	2	4	0	1	47	0	433	0	0	0	0
1	37	2	4	3	666	57	1	620	0	0	0	0
1	37	2	4	0	0	47	1	760	0	1	1	0
1	37	2	4	0	1	47	1	557	0	1	1	1
1	37	2	4	0	1	49	1	679	0	1	1	1
1	37	2	4	0	1	49	1	589	0	1	1	1
1	37	2	4	0	0	49	0	504	0	1	2	1
1	37	2	4	0	1	47	1	607	0	1	2	1
1	37	2	4	0	0	47	1	629	0	1	2	1
1	37	2	4	0	0	49	1	517	0	1	2	1
1	37	2	4	0	1	49	1	595	0	1	3	1
1	37	2	4	0	0	49	1	499	0	1	3	1
1	37	2	4	0	1	49	0	447	0	1	3	1
1	37	2	4	0	0	49	1	545	0	1	3	1
1	37	2	4	1	666	47	0	489	0	1	3	1
1	38	0	0	1	666	47	1	730	1	1	1	0
1	38	0	0	0	1	47	0	498	1	1	1	0
1	38	0	0	0	0	47	1	398	1	1	1	1
1	38	0	0	0	1	49	0	447	1	1	1	1
1	38	0	0	0	1	47	1	392	1	1	1	1
1	38	0	0	0	1	47	0	325	1	1	2	1
1	38	0	0	0	0	47	1	302	1	1	2	1
1	38	0	0	0	1	49	1	476	1	1	2	1
1	38	0	0	0	0	49	1	555	1	1	2	1
1	38	0	0	0	1	47	1	580	1	1	3	1
1	38	0	0	0	0	47	0	453	1	1	3	1
1	38	0	0	0	0	47	0	443	1	1	3	1
1	38	0	0	0	0	47	1	781	1	1	3	1
1	39	1	4	0	0	47	1	662	1	0	0	0
1	39	1	4	0	1	49	1	429	1	0	0	0
1	39	1	4	0	1	47	1	404	1	0	0	0
1	39	1	4	0	0	49	1	486	1	0	0	0
1	39	1	4	2	666	57	1	697	1	0	0	0
1	39	1	4	0	1	49	1	741	1	1	1	0
1	39	1	4	0	1	47	1	698	1	1	1	1
1	39	1	4	0	0	47	1	683	1	1	1	1
1	39	1	4	0	0	47	1	383	1	1	1	1
1	39	1	4	0	1	47	1	725	1	1	2	1
1	39	1	4	0	1	49	1	428	1	1	2	1
1	39	1	4	0	1	47	1	530	1	1	2	1
1	39	1	4	0	0	47	1	447	1	1	2	1
1	39	1	4	0	0	49	1	662	1	1	3	1
1	39	1	4	0	0	49	1	643	1	1	3	1
1	39	1	4	0	1	49	1	446	1	1	3	1
1	39	1	4	0	0	49	1	517	1	1	3	1
1	40	1	0	2	666	57	1	704	1	1	1	0
1	40	1	0	0	1	49	1	613	1	1	1	0
1	40	1	0	0	0	47	1	444	1	1	1	1
1	40	1	0	0	0	47	1	524	1	1	1	1
1	40	1	0	0	1	47	0	399	1	1	1	1
1	40	1	0	0	0	49	1	456	1	1	2	1
1	40	1	0	0	1	47	1	581	1	1	2	1
1	40	1	0	0	0	47	0	783	1	1	2	1
1	40	1	0	0	1	49	0	529	1	1	2	1
1	40	1	0	0	0	47	1	552	1	1	3	1
1	40	1	0	0	0	49	1	689	1	1	3	1
1	40	1	0	0	1	47	1	510	1	1	3	1
1	40	1	0	0	1	49	1	546	1	1	3	1
1	41	0	4	0	1	47	1	448	0	0	0	0
1	41	0	4	0	0	47	0	368	0	0	0	0
1	41	0	4	0	0	47	1	527	0	0	0	0
1	41	0	4	0	1	49	1	397	0	0	0	0
1	41	0	4	1	666	47	0	408	0	0	0	0
1	41	0	4	0	0	49	1	369	0	1	1	0
1	41	0	4	0	1	49	1	731	0	1	1	1
1	41	0	4	0	0	47	1	472	0	1	1	1
1	41	0	4	0	1	47	1	596	0	1	1	1
1	41	0	4	0	1	47	1	362	0	1	2	1
1	41	0	4	0	1	49	1	488	0	1	2	1
1	41	0	4	0	1	47	1	633	0	1	2	1
1	41	0	4	0	0	49	1	563	0	1	2	1
1	41	0	4	0	0	47	1	435	0	1	3	1
1	41	0	4	0	0	49	1	444	0	1	3	1
1	41	0	4	0	0	47	1	577	0	1	3	1
1	41	0	4	0	1	49	1	336	0	1	3	1
1	42	2	0	0	1	47	1	507	0	1	1	0
1	42	2	0	0	1	47	1	423	0	1	1	1
1	42	2	0	0	1	49	1	583	0	1	1	1
1	42	2	0	0	1	49	1	599	0	1	1	1
1	42	2	0	0	0	49	0	352	0	1	2	1
1	42	2	0	0	1	47	1	532	0	1	2	1
1	42	2	0	0	1	49	1	578	0	1	2	1
1	42	2	0	0	0	47	1	347	0	1	2	1
1	42	2	0	0	0	49	1	545	0	1	3	1
1	42	2	0	0	0	47	1	606	0	1	3	1
1	42	2	0	0	0	49	1	423	0	1	3	1
1	42	2	0	0	0	47	0	285	0	1	3	1
1	42	2	0	1	666	47	0	575	0	1	3	1
1	44	2	4	0	1	47	1	695	0	0	0	0
1	44	2	4	0	1	49	1	678	0	0	0	0
1	44	2	4	0	0	49	1	536	0	0	0	0
1	44	2	4	0	0	47	1	605	0	0	0	0
1	44	2	4	3	666	57	1	676	0	0	0	0
1	44	2	4	0	0	47	1	553	0	1	1	0
1	44	2	4	0	1	47	1	631	0	1	1	1
1	44	2	4	0	0	49	1	712	0	1	1	1
1	44	2	4	0	1	49	1	721	0	1	1	1
1	44	2	4	0	0	49	1	602	0	1	2	1
1	44	2	4	0	0	47	1	657	0	1	2	1
1	44	2	4	0	1	47	0	405	0	1	2	1
1	44	2	4	0	1	47	1	515	0	1	2	1
1	44	2	4	0	0	49	1	497	0	1	3	1
1	44	2	4	0	1	49	1	621	0	1	3	1
1	44	2	4	0	0	47	1	518	0	1	3	1
1	44	2	4	0	1	49	0	467	0	1	3	1
1	44	2	4	1	666	47	0	401	0	1	3	1
1	45	1	0	2	666	57	1	705	1	1	1	0
1	45	1	0	0	1	47	1	355	1	1	1	0
1	45	1	0	0	0	47	1	334	1	1	1	1
1	45	1	0	0	0	47	0	378	1	1	1	1
1	45	1	0	0	0	47	0	432	1	1	1	1
1	45	1	0	0	1	49	1	768	1	1	2	1
1	45	1	0	0	0	47	1	436	1	1	2	1
1	45	1	0	0	1	49	1	396	1	1	2	1
1	45	1	0	0	1	49	1	730	1	1	2	1
1	45	1	0	0	0	47	1	655	1	1	3	1
1	45	1	0	0	1	47	1	571	1	1	3	1
1	45	1	0	0	0	47	0	522	1	1	3	1
1	45	1	0	0	1	47	1	464	1	1	3	1
1	46	0	4	0	1	49	1	582	1	0	0	0
1	46	0	4	0	0	49	1	489	1	0	0	0
1	46	0	4	0	0	47	1	378	1	0	0	0
1	46	0	4	0	1	47	1	494	1	0	0	0
1	46	0	4	1	666	47	1	571	1	0	0	0
1	46	0	4	0	0	49	1	559	1	1	1	0
1	46	0	4	0	0	47	1	639	1	1	1	1
1	46	0	4	0	0	47	1	507	1	1	1	1
1	46	0	4	0	0	49	1	595	1	1	1	1
1	46	0	4	0	0	47	1	536	1	1	2	1
1	46	0	4	0	1	49	0	450	1	1	2	1
1	46	0	4	0	1	47	0	297	1	1	2	1
1	46	0	4	0	1	47	1	407	1	1	2	1
1	46	0	4	0	0	49	1	637	1	1	3	1
1	46	0	4	0	1	47	0	455	1	1	3	1
1	46	0	4	0	1	47	1	389	1	1	3	1
1	46	0	4	0	1	49	1	426	1	1	3	1
1	47	2	0	0	0	49	1	658	0	1	1	0
1	47	2	0	0	1	47	1	315	0	1	1	1
1	47	2	0	0	0	47	1	517	0	1	1	1
1	47	2	0	0	0	47	1	418	0	1	1	1
1	47	2	0	0	1	47	0	439	0	1	2	1
1	47	2	0	0	1	49	0	477	0	1	2	1
1	47	2	0	0	1	47	1	360	0	1	2	1
1	47	2	0	0	1	49	1	549	0	1	2	1
1	47	2	0	0	0	49	0	831	0	1	3	1
1	47	2	0	0	0	49	1	707	0	1	3	1
1	47	2	0	0	1	49	1	628	0	1	3	1
1	47	2	0	0	0	49	1	422	0	1	3	1
1	47	2	0	1	666	47	0	469	0	1	3	1
1	48	1	4	0	0	49	1	592	1	0	0	0
1	48	1	4	0	1	47	1	546	1	0	0	0
1	48	1	4	0	0	47	1	502	1	0	0	0
1	48	1	4	0	1	49	1	594	1	0	0	0
1	48	1	4	2	666	57	1	571	1	0	0	0
1	48	1	4	0	1	47	1	605	1	1	1	0
1	48	1	4	0	0	47	0	470	1	1	1	1
1	48	1	4	0	0	47	1	473	1	1	1	1
1	48	1	4	0	1	49	1	383	1	1	1	1
1	48	1	4	0	0	49	1	543	1	1	2	1
1	48	1	4	0	1	49	1	417	1	1	2	1
1	48	1	4	0	1	47	1	416	1	1	2	1
1	48	1	4	0	1	49	1	343	1	1	2	1
1	48	1	4	0	0	47	1	385	1	1	3	1
1	48	1	4	0	0	49	1	433	1	1	3	1
1	48	1	4	0	1	47	1	382	1	1	3	1
1	48	1	4	0	0	49	0	389	1	1	3	1
1	49	0	0	1	666	47	1	576	1	1	1	0
1	49	0	0	0	1	49	1	647	1	1	1	0
1	49	0	0	0	1	47	1	460	1	1	1	1
1	49	0	0	0	0	49	1	537	1	1	1	1
1	49	0	0	0	1	47	1	350	1	1	1	1
1	49	0	0	0	1	49	1	524	1	1	2	1
1	49	0	0	0	1	47	0	384	1	1	2	1
1	49	0	0	0	0	49	1	841	1	1	2	1
1	49	0	0	0	1	47	1	490	1	1	2	1
1	49	0	0	0	0	47	1	507	1	1	3	1
1	49	0	0	0	0	47	1	426	1	1	3	1
1	49	0	0	0	0	47	1	573	1	1	3	1
1	49	0	0	0	0	49	1	429	1	1	3	1
1	51	0	4	0	1	49	1	682	0	0	0	0
1	51	0	4	0	0	49	1	534	0	0	0	0
1	51	0	4	0	1	49	0	512	0	0	0	0
1	51	0	4	0	0	47	1	655	0	0	0	0
1	51	0	4	1	666	47	0	515	0	0	0	0
1	51	0	4	0	0	47	1	545	0	1	1	0
1	51	0	4	0	1	49	1	561	0	1	1	1
1	51	0	4	0	1	47	1	683	0	1	1	1
1	51	0	4	0	0	47	1	417	0	1	1	1
1	51	0	4	0	0	49	1	569	0	1	2	1
1	51	0	4	0	0	49	0	504	0	1	2	1
1	51	0	4	0	0	47	0	487	0	1	2	1
1	51	0	4	0	0	47	0	376	0	1	2	1
1	51	0	4	0	1	47	0	575	0	1	3	1
1	51	0	4	0	1	49	1	361	0	1	3	1
1	51	0	4	0	1	47	1	730	0	1	3	1
1	51	0	4	0	1	47	1	661	0	1	3	1
1	52	2	0	0	1	49	1	766	0	1	1	0
1	52	2	0	0	1	47	0	490	0	1	1	1
1	52	2	0	0	0	49	1	475	0	1	1	1
1	52	2	0	0	1	47	1	991	0	1	1	1
1	52	2	0	0	0	47	1	618	0	1	2	1
1	52	2	0	0	0	47	0	608	0	1	2	1
1	52	2	0	0	0	47	1	723	0	1	2	1
1	52	2	0	0	0	47	1	428	0	1	2	1
1	52	2	0	0	1	47	0	442	0	1	3	1
1	52	2	0	0	1	47	1	721	0	1	3	1
1	52	2	0	0	0	49	1	585	0	1	3	1
1	52	2	0	0	1	47	1	496	0	1	3	1
1	52	2	0	1	666	0	0	1250	0	1	3	1
1	53	2	4	0	0	49	1	810	1	0	0	0
1	53	2	4	0	0	47	1	464	1	0	0	0
1	53	2	4	0	1	47	1	613	1	0	0	0
1	53	2	4	0	1	49	1	600	1	0	0	0
1	53	2	4	3	666	57	1	685	1	0	0	0
1	53	2	4	0	1	49	1	745	1	1	1	0
1	53	2	4	0	0	49	1	554	1	1	1	1
1	53	2	4	0	0	47	1	929	1	1	1	1
1	53	2	4	0	0	47	1	589	1	1	1	1
1	53	2	4	0	0	49	1	530	1	1	2	1
1	53	2	4	0	1	49	1	563	1	1	2	1
1	53	2	4	0	1	47	1	570	1	1	2	1
1	53	2	4	0	0	47	1	599	1	1	2	1
1	53	2	4	0	1	47	1	535	1	1	3	1
1	53	2	4	0	1	47	1	459	1	1	3	1
1	53	2	4	0	0	47	0	388	1	1	3	1
1	53	2	4	0	1	49	1	637	1	1	3	1
1	53	2	4	1	666	47	1	474	1	1	3	1
1	54	1	4	0	0	47	1	648	1	0	0	0
1	54	1	4	0	1	49	1	521	1	0	0	0
1	54	1	4	0	0	47	0	441	1	0	0	0
1	54	1	4	0	1	47	1	403	1	0	0	0
1	54	1	4	2	666	57	1	664	1	0	0	0
1	54	1	4	0	0	47	1	670	1	1	1	0
1	54	1	4	0	0	47	1	693	1	1	1	1
1	54	1	4	0	1	49	1	645	1	1	1	1
1	54	1	4	0	1	47	1	572	1	1	1	1
1	54	1	4	0	0	47	1	463	1	1	2	1
1	54	1	4	0	0	49	1	594	1	1	2	1
1	54	1	4	0	0	49	1	538	1	1	2	1
1	54	1	4	0	1	47	1	536	1	1	2	1
1	54	1	4	0	1	47	0	424	1	1	3	1
1	54	1	4	0	1	47	1	579	1	1	3	1
1	54	1	4	0	1	49	1	510	1	1	3	1
1	54	1	4	0	0	47	0	456	1	1	3	1
1	55	0	0	1	666	47	1	645	1	1	1	0
1	55	0	0	0	1	49	1	589	1	1	1	0
1	55	0	0	0	0	49	1	572	1	1	1	1
1	55	0	0	0	0	47	1	572	1	1	1	1
1	55	0	0	0	0	47	1	450	1	1	1	1
1	55	0	0	0	0	47	1	388	1	1	2	1
1	55	0	0	0	1	49	0	674	1	1	2	1
1	55	0	0	0	1	49	1	779	1	1	2	1
1	55	0	0	0	1	47	1	420	1	1	2	1
1	55	0	0	0	0	49	1	403	1	1	3	1
1	55	0	0	0	1	49	1	792	1	1	3	1
1	55	0	0	0	0	49	1	861	1	1	3	1
1	55	0	0	0	1	47	1	386	1	1	3	1
1	56	1	0	2	666	57	1	680	1	1	1	0
1	56	1	0	0	0	47	1	705	1	1	1	0
1	56	1	0	0	0	49	1	415	1	1	1	1
1	56	1	0	0	0	47	1	412	1	1	1	1
1	56	1	0	0	1	49	1	720	1	1	1	1
1	56	1	0	0	1	47	1	455	1	1	2	1
1	56	1	0	0	0	49	1	488	1	1	2	1
1	56	1	0	0	0	47	1	577	1	1	2	1
1	56	1	0	0	1	47	1	600	1	1	2	1
1	56	1	0	0	0	49	1	546	1	1	3	1
1	56	1	0	0	1	49	1	585	1	1	3	1
1	56	1	0	0	1	49	1	484	1	1	3	1
1	56	1	0	0	1	47	1	510	1	1	3	1
2	9	2	0	0	0	47	1	683	1	1	1	0
2	9	2	0	0	0	49	1	430	1	1	1	1
2	9	2	0	0	0	47	1	553	1	1	1	1
2	9	2	0	0	1	49	1	584	1	1	1	1
2	9	2	0	0	1	49	1	766	1	1	2	1
2	9	2	0	0	1	47	1	542	1	1	2	1
2	9	2	0	0	0	49	1	574	1	1	2	1
2	9	2	0	0	0	49	1	596	1	1	2	1
2	9	2	0	0	1	47	1	562	1	1	3	1
2	9	2	0	0	1	47	1	681	1	1	3	1
2	9	2	0	0	1	49	1	483	1	1	3	1
2	9	2	0	0	0	47	1	549	1	1	3	1
2	9	2	0	1	666	47	1	636	1	1	3	1
2	10	2	4	0	0	47	1	493	1	0	0	0
2	10	2	4	0	1	47	1	630	1	0	0	0
2	10	2	4	0	1	49	1	482	1	0	0	0
2	10	2	4	0	0	49	1	860	1	0	0	0
2	10	2	4	3	666	57	1	776	1	0	0	0
2	10	2	4	0	1	49	1	607	1	1	1	0
2	10	2	4	0	0	47	1	789	1	1	1	1
2	10	2	4	0	1	47	1	692	1	1	1	1
2	10	2	4	0	1	49	1	662	1	1	1	1
2	10	2	4	0	1	47	1	1057	1	1	2	1
2	10	2	4	0	0	49	1	631	1	1	2	1
2	10	2	4	0	0	47	1	707	1	1	2	1
2	10	2	4	0	1	49	1	645	1	1	2	1
2	10	2	4	0	0	47	1	529	1	1	3	1
2	10	2	4	0	0	49	1	600	1	1	3	1
2	10	2	4	0	1	47	1	622	1	1	3	1
2	10	2	4	0	0	49	1	571	1	1	3	1
2	10	2	4	1	666	49	1	913	1	1	3	1
2	11	0	0	1	666	47	1	941	1	1	1	0
2	11	0	0	0	1	47	1	1150	1	1	1	0
2	11	0	0	0	0	47	1	688	1	1	1	1
2	11	0	0	0	1	49	1	811	1	1	1	1
2	11	0	0	0	1	49	1	833	1	1	1	1
2	11	0	0	0	0	49	1	934	1	1	2	1
2	11	0	0	0	1	47	1	519	1	1	2	1
2	11	0	0	0	0	49	1	632	1	1	2	1
2	11	0	0	0	1	47	1	732	1	1	2	1
2	11	0	0	0	1	49	1	533	1	1	3	1
2	11	0	0	0	0	47	1	605	1	1	3	1
2	11	0	0	0	0	47	1	570	1	1	3	1
2	11	0	0	0	0	49	1	537	1	1	3	1
2	12	1	4	0	1	47	1	565	1	0	0	0
2	12	1	4	0	1	49	1	388	1	0	0	0
2	12	1	4	0	0	49	1	657	1	0	0	0
2	12	1	4	0	0	47	1	597	1	0	0	0
2	12	1	4	2	666	57	1	714	1	0	0	0
2	12	1	4	0	0	49	1	716	1	1	1	0
2	12	1	4	0	0	47	1	597	1	1	1	1
2	12	1	4	0	1	49	1	715	1	1	1	1
2	12	1	4	0	0	49	1	636	1	1	1	1
2	12	1	4	0	1	49	1	576	1	1	2	1
2	12	1	4	0	1	47	1	575	1	1	2	1
2	12	1	4	0	0	47	1	709	1	1	2	1
2	12	1	4	0	1	47	1	1231	1	1	2	1
2	12	1	4	0	0	47	1	646	1	1	3	1
2	12	1	4	0	1	47	1	649	1	1	3	1
2	12	1	4	0	1	49	1	661	1	1	3	1
2	12	1	4	0	0	49	1	680	1	1	3	1
2	13	0	4	0	0	49	1	667	1	0	0	0
2	13	0	4	0	0	47	1	495	1	0	0	0
2	13	0	4	0	1	49	1	511	1	0	0	0
2	13	0	4	0	1	47	1	680	1	0	0	0
2	13	0	4	1	666	47	1	866	1	0	0	0
2	13	0	4	0	0	47	1	838	1	1	1	0
2	13	0	4	0	0	49	1	523	1	1	1	1
2	13	0	4	0	1	49	1	660	1	1	1	1
2	13	0	4	0	1	47	1	623	1	1	1	1
2	13	0	4	0	0	47	1	652	1	1	2	1
2	13	0	4	0	1	49	1	568	1	1	2	1
2	13	0	4	0	1	47	1	630	1	1	2	1
2	13	0	4	0	0	49	1	555	1	1	2	1
2	13	0	4	0	1	47	1	642	1	1	3	1
2	13	0	4	0	0	49	1	582	1	1	3	1
2	13	0	4	0	0	47	1	604	1	1	3	1
2	13	0	4	0	1	49	1	778	1	1	3	1
2	14	1	0	2	666	57	1	843	1	1	1	0
2	14	1	0	0	1	49	1	559	1	1	1	0
2	14	1	0	0	1	49	1	470	1	1	1	1
2	14	1	0	0	1	47	1	425	1	1	1	1
2	14	1	0	0	1	47	1	573	1	1	1	1
2	14	1	0	0	0	49	1	539	1	1	2	1
2	14	1	0	0	0	47	1	628	1	1	2	1
2	14	1	0	0	1	47	1	728	1	1	2	1
2	14	1	0	0	0	47	1	552	1	1	2	1
2	14	1	0	0	0	47	1	568	1	1	3	1
2	14	1	0	0	0	49	1	646	1	1	3	1
2	14	1	0	0	0	49	1	714	1	1	3	1
2	14	1	0	0	1	49	1	891	1	1	3	1
2	16	1	4	0	0	49	1	812	1	0	0	0
2	16	1	4	0	0	47	1	682	1	0	0	0
2	16	1	4	0	1	47	1	692	1	0	0	0
2	16	1	4	0	1	49	1	575	1	0	0	0
2	16	1	4	2	666	57	1	757	1	0	0	0
2	16	1	4	0	0	49	1	654	1	1	1	0
2	16	1	4	0	1	49	1	617	1	1	1	1
2	16	1	4	0	1	47	1	534	1	1	1	1
2	16	1	4	0	0	49	1	518	1	1	1	1
2	16	1	4	0	1	47	1	622	1	1	2	1
2	16	1	4	0	1	49	1	563	1	1	2	1
2	16	1	4	0	1	49	1	554	1	1	2	1
2	16	1	4	0	0	47	1	617	1	1	2	1
2	16	1	4	0	0	47	1	622	1	1	3	1
2	16	1	4	0	0	49	1	587	1	1	3	1
2	16	1	4	0	1	47	1	945	1	1	3	1
2	16	1	4	0	0	47	1	930	1	1	3	1
2	17	2	4	0	1	49	1	672	1	0	0	0
2	17	2	4	0	1	47	1	611	1	0	0	0
2	17	2	4	0	0	47	1	720	1	0	0	0
2	17	2	4	0	0	49	1	538	1	0	0	0
2	17	2	4	3	666	57	1	753	1	0	0	0
2	17	2	4	0	0	47	1	633	1	1	1	0
2	17	2	4	0	0	47	1	614	1	1	1	1
2	17	2	4	0	1	47	1	603	1	1	1	1
2	17	2	4	0	1	47	1	664	1	1	1	1
2	17	2	4	0	0	49	1	611	1	1	2	1
2	17	2	4	0	0	49	1	848	1	1	2	1
2	17	2	4	0	1	49	1	709	1	1	2	1
2	17	2	4	0	0	47	1	639	1	1	2	1
2	17	2	4	0	1	47	1	795	1	1	3	1
2	17	2	4	0	0	49	1	641	1	1	3	1
2	17	2	4	0	1	49	1	750	1	1	3	1
2	17	2	4	0	1	49	1	686	1	1	3	1
2	17	2	4	1	666	47	1	816	1	1	3	1
2	18	2	0	0	1	49	1	560	1	1	1	0
2	18	2	0	0	0	47	1	511	1	1	1	1
2	18	2	0	0	0	47	1	624	1	1	1	1
2	18	2	0	0	0	49	1	565	1	1	1	1
2	18	2	0	0	1	47	1	651	1	1	2	1
2	18	2	0	0	1	49	1	519	1	1	2	1
2	18	2	0	0	0	49	1	528	1	1	2	1
2	18	2	0	0	1	49	1	559	1	1	2	1
2	18	2	0	0	1	47	1	551	1	1	3	1
2	18	2	0	0	0	49	1	638	1	1	3	1
2	18	2	0	0	0	47	1	618	1	1	3	1
2	18	2	0	0	1	47	1	543	1	1	3	1
2	18	2	0	1	666	49	1	679	1	1	3	1
2	19	0	0	1	666	0	0	1250	0	1	1	0
2	19	0	0	0	1	49	1	743	0	1	1	0
2	19	0	0	0	0	49	1	575	0	1	1	1
2	19	0	0	0	0	49	1	510	0	1	1	1
2	19	0	0	0	0	47	1	559	0	1	1	1
2	19	0	0	0	0	49	1	478	0	1	2	1
2	19	0	0	0	1	47	1	528	0	1	2	1
2	19	0	0	0	0	47	1	727	0	1	2	1
2	19	0	0	0	0	47	1	528	0	1	2	1
2	19	0	0	0	1	49	1	584	0	1	3	1
2	19	0	0	0	1	49	1	598	0	1	3	1
2	19	0	0	0	1	47	1	515	0	1	3	1
2	19	0	0	0	1	47	1	532	0	1	3	1
2	20	1	0	2	666	57	1	940	1	1	1	0
2	20	1	0	0	1	47	1	742	1	1	1	0
2	20	1	0	0	1	47	1	471	1	1	1	1
2	20	1	0	0	0	47	1	689	1	1	1	1
2	20	1	0	0	1	49	1	820	1	1	1	1
2	20	1	0	0	0	49	1	481	1	1	2	1
2	20	1	0	0	1	49	1	627	1	1	2	1
2	20	1	0	0	1	49	1	655	1	1	2	1
2	20	1	0	0	0	49	1	547	1	1	2	1
2	20	1	0	0	1	47	1	554	1	1	3	1
2	20	1	0	0	0	49	1	666	1	1	3	1
2	20	1	0	0	0	47	1	645	1	1	3	1
2	20	1	0	0	0	47	1	504	1	1	3	1
2	21	0	4	0	0	49	1	541	1	0	0	0
2	21	0	4	0	0	47	1	468	1	0	0	0
2	21	0	4	0	1	49	1	479	1	0	0	0
2	21	0	4	0	1	47	1	488	1	0	0	0
2	21	0	4	1	666	47	1	578	1	0	0	0
2	21	0	4	0	0	47	1	600	1	1	1	0
2	21	0	4	0	1	47	1	645	1	1	1	1
2	21	0	4	0	0	47	1	569	1	1	1	1
2	21	0	4	0	0	47	1	488	1	1	1	1
2	21	0	4	0	0	49	1	554	1	1	2	1
2	21	0	4	0	0	49	1	625	1	1	2	1
2	21	0	4	0	1	47	1	606	1	1	2	1
2	21	0	4	0	1	49	1	619	1	1	2	1
2	21	0	4	0	1	49	1	560	1	1	3	1
2	21	0	4	0	1	49	1	447	1	1	3	1
2	21	0	4	0	1	47	1	546	1	1	3	1
2	21	0	4	0	0	49	1	553	1	1	3	1
2	23	1	0	2	666	57	1	1031	1	1	1	0
2	23	1	0	0	1	47	1	949	1	1	1	0
2	23	1	0	0	0	49	1	582	1	1	1	1
2	23	1	0	0	1	47	1	780	1	1	1	1
2	23	1	0	0	0	49	1	635	1	1	1	1
2	23	1	0	0	0	47	1	583	1	1	2	1
2	23	1	0	0	0	47	1	685	1	1	2	1
2	23	1	0	0	1	47	1	664	1	1	2	1
2	23	1	0	0	1	49	1	579	1	1	2	1
2	23	1	0	0	0	49	1	1041	1	1	3	1
2	23	1	0	0	1	49	1	1239	1	1	3	1
2	23	1	0	0	1	49	1	558	1	1	3	1
2	23	1	0	0	0	47	1	629	1	1	3	1
2	24	2	0	0	0	49	1	602	1	1	1	0
2	24	2	0	0	1	49	1	791	1	1	1	1
2	24	2	0	0	1	49	1	550	1	1	1	1
2	24	2	0	0	1	47	1	598	1	1	1	1
2	24	2	0	0	1	47	1	979	1	1	2	1
2	24	2	0	0	1	49	1	475	1	1	2	1
2	24	2	0	0	0	47	1	741	1	1	2	1
2	24	2	0	0	0	47	1	550	1	1	2	1
2	24	2	0	0	1	49	0	685	1	1	3	1
2	24	2	0	0	0	49	1	584	1	1	3	1
2	24	2	0	0	0	47	1	542	1	1	3	1
2	24	2	0	0	0	49	1	502	1	1	3	1
2	24	2	0	1	666	47	1	631	1	1	3	1
2	25	2	4	0	1	47	1	778	1	0	0	0
2	25	2	4	0	1	49	1	576	1	0	0	0
2	25	2	4	0	0	49	1	703	1	0	0	0
2	25	2	4	0	0	47	1	561	1	0	0	0
2	25	2	4	3	666	57	1	864	1	0	0	0
2	25	2	4	0	1	49	1	492	1	1	1	0
2	25	2	4	0	0	49	1	685	1	1	1	1
2	25	2	4	0	0	47	1	656	1	1	1	1
2	25	2	4	0	1	47	1	635	1	1	1	1
2	25	2	4	0	1	47	1	984	1	1	2	1
2	25	2	4	0	1	47	1	584	1	1	2	1
2	25	2	4	0	1	49	1	582	1	1	2	1
2	25	2	4	0	0	49	1	556	1	1	2	1
2	25	2	4	0	0	49	1	579	1	1	3	1
2	25	2	4	0	0	47	1	553	1	1	3	1
2	25	2	4	0	0	47	1	568	1	1	3	1
2	25	2	4	0	1	49	1	527	1	1	3	1
2	25	2	4	1	666	49	1	735	1	1	3	1
2	26	0	0	1	666	47	1	1209	1	1	1	0
2	26	0	0	0	0	47	1	617	1	1	1	0
2	26	0	0	0	1	49	1	550	1	1	1	1
2	26	0	0	0	0	47	1	629	1	1	1	1
2	26	0	0	0	1	47	1	697	1	1	1	1
2	26	0	0	0	1	49	1	555	1	1	2	1
2	26	0	0	0	0	49	1	690	1	1	2	1
2	26	0	0	0	1	49	1	621	1	1	2	1
2	26	0	0	0	1	47	1	594	1	1	2	1
2	26	0	0	0	0	49	1	647	1	1	3	1
2	26	0	0	0	0	49	1	539	1	1	3	1
2	26	0	0	0	0	47	1	491	1	1	3	1
2	26	0	0	0	1	47	1	604	1	1	3	1
2	27	0	4	0	0	47	1	622	1	0	0	0
2	27	0	4	0	0	49	1	459	1	0	0	0
2	27	0	4	0	1	47	1	653	1	0	0	0
2	27	0	4	0	1	49	1	537	1	0	0	0
2	27	0	4	1	666	47	1	513	1	0	0	0
2	27	0	4	0	0	49	1	545	1	1	1	0
2	27	0	4	0	1	47	1	488	1	1	1	1
2	27	0	4	0	0	47	1	602	1	1	1	1
2	27	0	4	0	0	49	1	536	1	1	1	1
2	27	0	4	0	1	47	1	535	1	1	2	1
2	27	0	4	0	0	47	1	592	1	1	2	1
2	27	0	4	0	1	49	1	558	1	1	2	1
2	27	0	4	0	0	47	1	621	1	1	2	1
2	27	0	4	0	1	47	1	810	1	1	3	1
2	27	0	4	0	1	49	1	576	1	1	3	1
2	27	0	4	0	1	49	1	694	1	1	3	1
2	27	0	4	0	0	49	1	680	1	1	3	1
2	28	1	4	0	1	49	1	753	1	0	0	0
2	28	1	4	0	0	47	1	568	1	0	0	0
2	28	1	4	0	1	47	1	543	1	0	0	0
2	28	1	4	0	0	49	1	574	1	0	0	0
2	28	1	4	2	666	57	1	869	1	0	0	0
2	28	1	4	0	0	49	1	825	1	1	1	0
2	28	1	4	0	0	47	1	711	1	1	1	1
2	28	1	4	0	0	49	1	640	1	1	1	1
2	28	1	4	0	1	47	1	613	1	1	1	1
2	28	1	4	0	0	47	1	626	1	1	2	1
2	28	1	4	0	1	47	1	598	1	1	2	1
2	28	1	4	0	1	49	1	564	1	1	2	1
2	28	1	4	0	1	47	1	587	1	1	2	1
2	28	1	4	0	0	49	1	656	1	1	3	1
2	28	1	4	0	0	47	1	532	1	1	3	1
2	28	1	4	0	1	49	1	620	1	1	3	1
2	28	1	4	0	1	49	1	801	1	1	3	1
2	30	2	0	0	0	47	1	701	1	1	1	0
2	30	2	0	0	1	49	1	383	1	1	1	1
2	30	2	0	0	1	49	1	500	1	1	1	1
2	30	2	0	0	0	47	1	589	1	1	1	1
2	30	2	0	0	0	49	1	483	1	1	2	1
2	30	2	0	0	0	49	1	492	1	1	2	1
2	30	2	0	0	0	49	1	494	1	1	2	1
2	30	2	0	0	0	47	1	431	1	1	2	1
2	30	2	0	0	1	47	1	555	1	1	3	1
2	30	2	0	0	1	49	1	618	1	1	3	1
2	30	2	0	0	1	47	1	871	1	1	3	1
2	30	2	0	0	1	47	1	667	1	1	3	1
2	30	2	0	1	666	47	1	702	1	1	3	1
2	31	0	0	1	666	0	0	1250	0	1	1	0
2	31	0	0	0	0	47	1	841	0	1	1	0
2	31	0	0	0	1	49	1	534	0	1	1	1
2	31	0	0	0	0	49	1	598	0	1	1	1
2	31	0	0	0	1	47	1	643	0	1	1	1
2	31	0	0	0	1	49	1	535	0	1	2	1
2	31	0	0	0	1	47	1	575	0	1	2	1
2	31	0	0	0	0	49	1	533	0	1	2	1
2	31	0	0	0	0	47	1	549	0	1	2	1
2	31	0	0	0	0	47	1	580	0	1	3	1
2	31	0	0	0	0	49	1	546	0	1	3	1
2	31	0	0	0	1	47	1	570	0	1	3	1
2	31	0	0	0	1	49	1	472	0	1	3	1
2	32	1	4	0	0	49	1	513	1	0	0	0
2	32	1	4	0	0	47	1	514	1	0	0	0
2	32	1	4	0	1	49	1	554	1	0	0	0
2	32	1	4	0	1	47	1	538	1	0	0	0
2	32	1	4	2	666	57	1	882	1	0	0	0
2	32	1	4	0	0	49	1	525	1	1	1	0
2	32	1	4	0	1	49	1	517	1	1	1	1
2	32	1	4	0	0	49	1	606	1	1	1	1
2	32	1	4	0	1	47	1	595	1	1	1	1
2	32	1	4	0	1	47	1	464	1	1	2	1
2	32	1	4	0	0	47	1	451	1	1	2	1
2	32	1	4	0	0	47	1	518	1	1	2	1
2	32	1	4	0	1	47	1	654	1	1	2	1
2	32	1	4	0	0	47	1	514	1	1	3	1
2	32	1	4	0	1	49	1	594	1	1	3	1
2	32	1	4	0	0	49	1	624	1	1	3	1
2	32	1	4	0	1	49	1	605	1	1	3	1
2	33	0	4	0	1	49	1	643	1	0	0	0
2	33	0	4	0	0	47	1	535	1	0	0	0
2	33	0	4	0	1	47	1	711	1	0	0	0
2	33	0	4	0	0	49	1	592	1	0	0	0
2	33	0	4	1	666	47	1	590	1	0	0	0
2	33	0	4	0	1	49	1	572	1	1	1	0
2	33	0	4	0	1	47	1	539	1	1	1	1
2	33	0	4	0	0	49	1	627	1	1	1	1
2	33	0	4	0	0	47	1	535	1	1	1	1
2	33	0	4	0	1	49	1	575	1	1	2	1
2	33	0	4	0	1	49	1	614	1	1	2	1
2	33	0	4	0	1	47	1	522	1	1	2	1
2	33	0	4	0	1	49	0	875	1	1	2	1
2	33	0	4	0	0	47	1	655	1	1	3	1
2	33	0	4	0	0	49	1	666	1	1	3	1
2	33	0	4	0	0	49	1	582	1	1	3	1
2	33	0	4	0	0	47	1	572	1	1	3	1
2	34	2	4	0	0	49	1	583	1	0	0	0
2	34	2	4	0	1	49	1	525	1	0	0	0
2	34	2	4	0	0	47	1	517	1	0	0	0
2	34	2	4	0	1	47	1	590	1	0	0	0
2	34	2	4	3	666	57	1	820	1	0	0	0
2	34	2	4	0	1	49	1	545	1	1	1	0
2	34	2	4	0	1	47	1	497	1	1	1	1
2	34	2	4	0	0	49	1	514	1	1	1	1
2	34	2	4	0	0	49	1	482	1	1	1	1
2	34	2	4	0	1	47	1	492	1	1	2	1
2	34	2	4	0	0	47	1	541	1	1	2	1
2	34	2	4	0	1	47	1	501	1	1	2	1
2	34	2	4	0	0	49	1	671	1	1	2	1
2	34	2	4	0	0	47	1	546	1	1	3	1
2	34	2	4	0	1	49	1	577	1	1	3	1
2	34	2	4	0	0	47	1	583	1	1	3	1
2	34	2	4	0	1	49	1	685	1	1	3	1
2	34	2	4	1	666	47	1	663	1	1	3	1
2	35	1	0	2	666	57	1	822	1	1	1	0
2	35	1	0	0	0	49	1	556	1	1	1	0
2	35	1	0	0	0	47	1	475	1	1	1	1
2	35	1	0	0	0	49	1	461	1	1	1	1
2	35	1	0	0	1	47	1	407	1	1	1	1
2	35	1	0	0	0	47	1	556	1	1	2	1
2	35	1	0	0	1	47	1	459	1	1	2	1
2	35	1	0	0	1	49	1	558	1	1	2	1
2	35	1	0	0	1	47	1	437	1	1	2	1
2	35	1	0	0	1	49	1	505	1	1	3	1
2	35	1	0	0	1	49	1	546	1	1	3	1
2	35	1	0	0	0	47	1	505	1	1	3	1
2	35	1	0	0	0	49	1	546	1	1	3	1
2	37	0	4	0	0	49	1	542	1	0	0	0
2	37	0	4	0	1	49	1	622	1	0	0	0
2	37	0	4	0	1	47	1	483	1	0	0	0
2	37	0	4	0	0	47	1	397	1	0	0	0
2	37	0	4	1	666	47	1	593	1	0	0	0
2	37	0	4	0	0	47	1	559	1	1	1	0
2	37	0	4	0	1	49	1	470	1	1	1	1
2	37	0	4	0	0	49	1	937	1	1	1	1
2	37	0	4	0	0	49	1	586	1	1	1	1
2	37	0	4	0	1	47	1	528	1	1	2	1
2	37	0	4	0	1	47	1	632	1	1	2	1
2	37	0	4	0	0	47	1	484	1	1	2	1
2	37	0	4	0	1	49	1	518	1	1	2	1
2	37	0	4	0	0	47	1	566	1	1	3	1
2	37	0	4	0	0	49	1	533	1	1	3	1
2	37	0	4	0	1	47	1	437	1	1	3	1
2	37	0	4	0	1	49	1	464	1	1	3	1
2	38	1	0	2	666	57	1	949	1	1	1	0
2	38	1	0	0	1	47	1	518	1	1	1	0
2	38	1	0	0	0	49	1	519	1	1	1	1
2	38	1	0	0	1	49	1	439	1	1	1	1
2	38	1	0	0	1	49	1	435	1	1	1	1
2	38	1	0	0	1	49	1	446	1	1	2	1
2	38	1	0	0	0	47	1	609	1	1	2	1
2	38	1	0	0	1	47	1	535	1	1	2	1
2	38	1	0	0	0	47	1	478	1	1	2	1
2	38	1	0	0	0	47	1	424	1	1	3	1
2	38	1	0	0	1	47	1	508	1	1	3	1
2	38	1	0	0	0	49	1	541	1	1	3	1
2	38	1	0	0	0	49	1	533	1	1	3	1
2	39	0	0	1	666	49	1	813	1	1	1	0
2	39	0	0	0	1	49	1	755	1	1	1	0
2	39	0	0	0	0	47	1	467	1	1	1	1
2	39	0	0	0	1	47	1	653	1	1	1	1
2	39	0	0	0	0	47	1	729	1	1	1	1
2	39	0	0	0	1	49	0	465	1	1	2	1
2	39	0	0	0	1	49	1	548	1	1	2	1
2	39	0	0	0	0	49	1	611	1	1	2	1
2	39	0	0	0	1	49	1	504	1	1	2	1
2	39	0	0	0	0	47	1	537	1	1	3	1
2	39	0	0	0	1	47	1	481	1	1	3	1
2	39	0	0	0	0	49	1	515	1	1	3	1
2	39	0	0	0	0	49	1	483	1	1	3	1
2	40	1	4	0	1	49	1	628	1	0	0	0
2	40	1	4	0	1	47	1	488	1	0	0	0
2	40	1	4	0	0	47	1	738	1	0	0	0
2	40	1	4	0	0	49	1	467	1	0	0	0
2	40	1	4	2	666	57	1	925	1	0	0	0
2	40	1	4	0	0	49	1	559	1	1	1	0
2	40	1	4	0	1	47	1	526	1	1	1	1
2	40	1	4	0	0	47	1	590	1	1	1	1
2	40	1	4	0	1	47	1	484	1	1	1	1
2	40	1	4	0	1	47	1	438	1	1	2	1
2	40	1	4	0	1	49	1	546	1	1	2	1
2	40	1	4	0	1	49	1	465	1	1	2	1
2	40	1	4	0	0	47	1	475	1	1	2	1
2	40	1	4	0	0	47	1	517	1	1	3	1
2	40	1	4	0	0	49	1	542	1	1	3	1
2	40	1	4	0	0	49	1	542	1	1	3	1
2	40	1	4	0	1	49	1	542	1	1	3	1
2	41	2	0	0	1	49	1	685	1	1	1	0
2	41	2	0	0	1	47	1	520	1	1	1	1
2	41	2	0	0	1	49	1	568	1	1	1	1
2	41	2	0	0	1	49	1	503	1	1	1	1
2	41	2	0	0	0	49	1	584	1	1	2	1
2	41	2	0	0	1	47	1	582	1	1	2	1
2	41	2	0	0	0	47	1	500	1	1	2	1
2	41	2	0	0	0	49	1	845	1	1	2	1
2	41	2	0	0	0	47	1	665	1	1	3	1
2	41	2	0	0	1	47	1	733	1	1	3	1
2	41	2	0	0	0	47	1	1197	1	1	3	1
2	41	2	0	0	0	49	1	677	1	1	3	1
2	41	2	0	1	666	49	1	664	1	1	3	1
2	42	2	4	0	1	49	1	723	1	0	0	0
2	42	2	4	0	1	47	1	469	1	0	0	0
2	42	2	4	0	0	49	1	511	1	0	0	0
2	42	2	4	0	0	47	1	519	1	0	0	0
2	42	2	4	3	666	57	1	992	1	0	0	0
2	42	2	4	0	1	49	1	559	1	1	1	0
2	42	2	4	0	0	49	1	734	1	1	1	1
2	42	2	4	0	0	49	1	551	1	1	1	1
2	42	2	4	0	1	47	1	590	1	1	1	1
2	42	2	4	0	0	47	1	740	1	1	2	1
2	42	2	4	0	1	47	1	509	1	1	2	1
2	42	2	4	0	0	47	1	518	1	1	2	1
2	42	2	4	0	1	49	1	534	1	1	2	1
2	42	2	4	0	0	47	1	814	1	1	3	1
2	42	2	4	0	1	49	1	572	1	1	3	1
2	42	2	4	0	0	49	1	667	1	1	3	1
2	42	2	4	0	1	47	1	582	1	1	3	1
2	42	2	4	1	666	49	1	628	1	1	3	1
2	44	1	0	2	666	57	1	793	1	1	1	0
2	44	1	0	0	0	47	1	551	1	1	1	0
2	44	1	0	0	0	49	1	470	1	1	1	1
2	44	1	0	0	1	47	1	593	1	1	1	1
2	44	1	0	0	1	47	1	479	1	1	1	1
2	44	1	0	0	0	47	1	440	1	1	2	1
2	44	1	0	0	1	47	1	404	1	1	2	1
2	44	1	0	0	0	47	1	384	1	1	2	1
2	44	1	0	0	0	49	1	741	1	1	2	1
2	44	1	0	0	1	49	1	494	1	1	3	1
2	44	1	0	0	1	49	1	447	1	1	3	1
2	44	1	0	0	1	49	1	594	1	1	3	1
2	44	1	0	0	0	49	1	632	1	1	3	1
2	45	2	4	0	0	49	1	796	1	0	0	0
2	45	2	4	0	0	47	1	498	1	0	0	0
2	45	2	4	0	1	47	1	555	1	0	0	0
2	45	2	4	0	1	49	1	498	1	0	0	0
2	45	2	4	3	666	57	1	795	1	0	0	0
2	45	2	4	0	0	49	1	602	1	1	1	0
2	45	2	4	0	1	49	1	559	1	1	1	1
2	45	2	4	0	0	47	1	894	1	1	1	1
2	45	2	4	0	1	47	1	569	1	1	1	1
2	45	2	4	0	0	47	1	496	1	1	2	1
2	45	2	4	0	1	49	1	625	1	1	2	1
2	45	2	4	0	1	49	1	470	1	1	2	1
2	45	2	4	0	0	49	1	704	1	1	2	1
2	45	2	4	0	0	47	1	562	1	1	3	1
2	45	2	4	0	0	49	1	545	1	1	3	1
2	45	2	4	0	1	47	1	600	1	1	3	1
2	45	2	4	0	1	47	1	517	1	1	3	1
2	45	2	4	1	666	49	1	710	1	1	3	1
2	46	0	4	0	1	49	1	722	0	0	0	0
2	46	0	4	0	0	47	0	459	0	0	0	0
2	46	0	4	0	0	47	1	678	0	0	0	0
2	46	0	4	0	1	47	1	545	0	0	0	0
2	46	0	4	1	666	49	0	776	0	0	0	0
2	46	0	4	0	0	47	1	703	0	1	1	0
2	46	0	4	0	0	47	1	441	0	1	1	1
2	46	0	4	0	0	49	1	532	0	1	1	1
2	46	0	4	0	0	49	1	556	0	1	1	1
2	46	0	4	0	1	47	1	644	0	1	2	1
2	46	0	4	0	0	47	1	623	0	1	2	1
2	46	0	4	0	1	47	1	588	0	1	2	1
2	46	0	4	0	0	49	1	602	0	1	2	1
2	46	0	4	0	1	49	1	504	0	1	3	1
2	46	0	4	0	1	49	1	449	0	1	3	1
2	46	0	4	0	1	47	1	555	0	1	3	1
2	46	0	4	0	1	49	1	635	0	1	3	1
2	47	2	0	0	0	49	1	582	1	1	1	0
2	47	2	0	0	0	47	1	636	1	1	1	1
2	47	2	0	0	1	47	1	497	1	1	1	1
2	47	2	0	0	1	49	1	650	1	1	1	1
2	47	2	0	0	0	49	1	557	1	1	2	1
2	47	2	0	0	1	47	1	548	1	1	2	1
2	47	2	0	0	0	47	1	668	1	1	2	1
2	47	2	0	0	1	49	1	615	1	1	2	1
2	47	2	0	0	1	47	1	700	1	1	3	1
2	47	2	0	0	0	47	1	582	1	1	3	1
2	47	2	0	0	1	49	1	580	1	1	3	1
2	47	2	0	0	0	49	1	698	1	1	3	1
2	47	2	0	1	666	47	1	668	1	1	3	1
2	48	0	0	1	666	47	1	1130	1	1	1	0
2	48	0	0	0	1	49	1	588	1	1	1	0
2	48	0	0	0	0	47	1	514	1	1	1	1
2	48	0	0	0	0	49	1	611	1	1	1	1
2	48	0	0	0	0	47	1	608	1	1	1	1
2	48	0	0	0	0	47	1	621	1	1	2	1
2	48	0	0	0	0	49	1	530	1	1	2	1
2	48	0	0	0	0	49	1	554	1	1	2	1
2	48	0	0	0	1	47	1	561	1	1	2	1
2	48	0	0	0	1	49	1	600	1	1	3	1
2	48	0	0	0	1	47	1	717	1	1	3	1
2	48	0	0	0	1	47	1	519	1	1	3	1
2	48	0	0	0	1	49	1	623	1	1	3	1
2	49	1	4	0	0	49	1	614	1	0	0	0
2	49	1	4	0	1	47	1	611	1	0	0	0
2	49	1	4	0	0	47	1	848	1	0	0	0
2	49	1	4	0	1	49	1	533	1	0	0	0
2	49	1	4	2	666	57	1	877	1	0	0	0
2	49	1	4	0	0	49	1	472	1	1	1	0
2	49	1	4	0	1	49	1	442	1	1	1	1
2	49	1	4	0	1	47	1	494	1	1	1	1
2	49	1	4	0	1	49	1	447	1	1	1	1
2	49	1	4	0	1	47	1	458	1	1	2	1
2	49	1	4	0	1	47	1	581	1	1	2	1
2	49	1	4	0	0	47	1	515	1	1	2	1
2	49	1	4	0	0	49	1	619	1	1	2	1
2	49	1	4	0	0	47	1	496	1	1	3	1
2	49	1	4	0	0	47	1	513	1	1	3	1
2	49	1	4	0	0	49	1	481	1	1	3	1
2	49	1	4	0	1	49	1	619	1	1	3	1
2	51	1	4	0	1	49	1	697	1	0	0	0
2	51	1	4	0	0	47	1	627	1	0	0	0
2	51	1	4	0	0	49	1	528	1	0	0	0
2	51	1	4	0	1	47	1	847	1	0	0	0
2	51	1	4	2	666	57	1	716	1	0	0	0
2	51	1	4	0	1	49	1	501	1	1	1	0
2	51	1	4	0	0	47	1	502	1	1	1	1
2	51	1	4	0	0	49	1	399	1	1	1	1
2	51	1	4	0	0	49	0	460	1	1	1	1
2	51	1	4	0	1	47	1	543	1	1	2	1
2	51	1	4	0	0	49	1	543	1	1	2	1
2	51	1	4	0	0	49	1	607	1	1	2	1
2	51	1	4	0	1	49	1	484	1	1	2	1
2	51	1	4	0	0	47	1	574	1	1	3	1
2	51	1	4	0	1	49	1	772	1	1	3	1
2	51	1	4	0	1	47	1	444	1	1	3	1
2	51	1	4	0	1	47	1	575	1	1	3	1
2	52	1	0	2	666	57	1	845	1	1	1	0
2	52	1	0	0	1	49	1	546	1	1	1	0
2	52	1	0	0	1	47	1	465	1	1	1	1
2	52	1	0	0	0	47	1	524	1	1	1	1
2	52	1	0	0	0	49	1	572	1	1	1	1
2	52	1	0	0	0	49	1	499	1	1	2	1
2	52	1	0	0	0	47	1	580	1	1	2	1
2	52	1	0	0	0	49	1	442	1	1	2	1
2	52	1	0	0	1	49	1	525	1	1	2	1
2	52	1	0	0	1	47	1	541	1	1	3	1
2	52	1	0	0	0	47	1	518	1	1	3	1
2	52	1	0	0	1	49	1	478	1	1	3	1
2	52	1	0	0	1	47	1	456	1	1	3	1
2	53	0	0	1	666	49	1	540	1	1	1	0
2	53	0	0	0	1	47	1	660	1	1	1	0
2	53	0	0	0	0	49	1	495	1	1	1	1
2	53	0	0	0	1	49	1	736	1	1	1	1
2	53	0	0	0	0	49	1	505	1	1	1	1
2	53	0	0	0	1	49	1	594	1	1	2	1
2	53	0	0	0	0	47	1	511	1	1	2	1
2	53	0	0	0	1	49	1	552	1	1	2	1
2	53	0	0	0	1	47	1	495	1	1	2	1
2	53	0	0	0	1	47	1	664	1	1	3	1
2	53	0	0	0	0	47	1	659	1	1	3	1
2	53	0	0	0	0	49	1	574	1	1	3	1
2	53	0	0	0	0	47	1	669	1	1	3	1
2	54	0	4	0	1	49	1	483	1	0	0	0
2	54	0	4	0	1	47	1	477	1	0	0	0
2	54	0	4	0	0	49	1	583	1	0	0	0
2	54	0	4	0	0	47	1	549	1	0	0	0
2	54	0	4	1	666	47	1	676	1	0	0	0
2	54	0	4	0	1	49	1	486	1	1	1	0
2	54	0	4	0	1	49	1	472	1	1	1	1
2	54	0	4	0	0	49	1	675	1	1	1	1
2	54	0	4	0	1	49	1	461	1	1	1	1
2	54	0	4	0	0	49	1	520	1	1	2	1
2	54	0	4	0	0	47	1	432	1	1	2	1
2	54	0	4	0	0	47	1	716	1	1	2	1
2	54	0	4	0	1	47	1	453	1	1	2	1
2	54	0	4	0	0	49	1	544	1	1	3	1
2	54	0	4	0	1	47	1	751	1	1	3	1
2	54	0	4	0	1	47	1	511	1	1	3	1
2	54	0	4	0	0	49	0	472	1	1	3	1
2	55	2	0	0	0	47	1	614	1	1	1	0
2	55	2	0	0	1	49	1	643	1	1	1	1
2	55	2	0	0	1	47	1	575	1	1	1	1
2	55	2	0	0	0	49	1	517	1	1	1	1
2	55	2	0	0	1	47	1	478	1	1	2	1
2	55	2	0	0	0	49	1	600	1	1	2	1
2	55	2	0	0	0	49	1	541	1	1	2	1
2	55	2	0	0	1	47	1	525	1	1	2	1
2	55	2	0	0	1	49	1	581	1	1	3	1
2	55	2	0	0	0	47	1	531	1	1	3	1
2	55	2	0	0	0	47	1	507	1	1	3	1
2	55	2	0	0	1	49	1	468	1	1	3	1
2	55	2	0	1	666	49	1	591	1	1	3	1
2	56	2	4	0	1	47	1	833	1	0	0	0
2	56	2	4	0	0	49	1	550	1	0	0	0
2	56	2	4	0	1	49	1	453	1	0	0	0
2	56	2	4	0	0	47	1	600	1	0	0	0
2	56	2	4	3	666	57	1	750	1	0	0	0
2	56	2	4	0	1	49	1	574	1	1	1	0
2	56	2	4	0	0	49	1	828	1	1	1	1
2	56	2	4	0	0	49	1	578	1	1	1	1
2	56	2	4	0	0	47	1	616	1	1	1	1
2	56	2	4	0	0	47	1	485	1	1	2	1
2	56	2	4	0	0	49	1	526	1	1	2	1
2	56	2	4	0	1	49	1	503	1	1	2	1
2	56	2	4	0	1	47	1	760	1	1	2	1
2	56	2	4	0	1	47	1	471	1	1	3	1
2	56	2	4	0	0	47	1	578	1	1	3	1
2	56	2	4	0	1	49	1	600	1	1	3	1
2	56	2	4	0	1	47	1	589	1	1	3	1
2	56	2	4	1	666	47	1	611	1	1	3	1
3	9	2	0	0	1	49	1	852	1	1	1	0
3	9	2	0	0	0	49	1	581	1	1	1	1
3	9	2	0	0	1	47	1	504	1	1	1	1
3	9	2	0	0	0	47	0	393	1	1	1	1
3	9	2	0	0	1	47	1	456	1	1	2	1
3	9	2	0	0	0	49	1	334	1	1	2	1
3	9	2	0	0	0	47	1	488	1	1	2	1
3	9	2	0	0	0	47	1	394	1	1	2	1
3	9	2	0	0	1	49	1	459	1	1	3	1
3	9	2	0	0	0	47	1	687	1	1	3	1
3	9	2	0	0	1	49	1	516	1	1	3	1
3	9	2	0	0	1	47	1	468	1	1	3	1
3	9	2	0	1	666	49	1	556	1	1	3	1
3	10	2	4	0	0	49	1	624	1	0	0	0
3	10	2	4	0	1	47	1	396	1	0	0	0
3	10	2	4	0	0	47	1	505	1	0	0	0
3	10	2	4	0	1	49	1	528	1	0	0	0
3	10	2	4	3	666	57	1	705	1	0	0	0
3	10	2	4	0	1	49	1	693	1	1	1	0
3	10	2	4	0	0	47	1	675	1	1	1	1
3	10	2	4	0	0	49	1	406	1	1	1	1
3	10	2	4	0	1	49	1	601	1	1	1	1
3	10	2	4	0	1	49	1	397	1	1	2	1
3	10	2	4	0	1	47	1	423	1	1	2	1
3	10	2	4	0	0	49	1	559	1	1	2	1
3	10	2	4	0	0	47	1	447	1	1	2	1
3	10	2	4	0	0	47	1	482	1	1	3	1
3	10	2	4	0	0	49	1	453	1	1	3	1
3	10	2	4	0	1	49	0	407	1	1	3	1
3	10	2	4	0	1	47	1	540	1	1	3	1
3	10	2	4	1	666	47	1	820	1	1	3	1
3	11	1	4	0	0	47	1	638	1	0	0	0
3	11	1	4	0	1	49	1	477	1	0	0	0
3	11	1	4	0	1	47	1	474	1	0	0	0
3	11	1	4	0	0	49	1	405	1	0	0	0
3	11	1	4	2	666	57	1	679	1	0	0	0
3	11	1	4	0	1	47	1	636	1	1	1	0
3	11	1	4	0	0	47	1	556	1	1	1	1
3	11	1	4	0	0	47	1	405	1	1	1	1
3	11	1	4	0	0	49	1	503	1	1	1	1
3	11	1	4	0	1	49	1	476	1	1	2	1
3	11	1	4	0	1	49	1	382	1	1	2	1
3	11	1	4	0	0	49	1	322	1	1	2	1
3	11	1	4	0	1	49	1	342	1	1	2	1
3	11	1	4	0	1	47	1	564	1	1	3	1
3	11	1	4	0	1	47	1	497	1	1	3	1
3	11	1	4	0	0	47	1	547	1	1	3	1
3	11	1	4	0	0	49	1	913	1	1	3	1
3	12	1	0	2	666	57	1	634	1	1	1	0
3	12	1	0	0	0	49	1	629	1	1	1	0
3	12	1	0	0	1	49	1	441	1	1	1	1
3	12	1	0	0	1	49	1	901	1	1	1	1
3	12	1	0	0	0	49	1	569	1	1	1	1
3	12	1	0	0	0	47	1	716	1	1	2	1
3	12	1	0	0	1	47	1	828	1	1	2	1
3	12	1	0	0	1	47	1	479	1	1	2	1
3	12	1	0	0	0	47	1	571	1	1	2	1
3	12	1	0	0	1	49	1	488	1	1	3	1
3	12	1	0	0	0	49	1	613	1	1	3	1
3	12	1	0	0	0	49	0	486	1	1	3	1
3	12	1	0	0	1	47	1	639	1	1	3	1
3	13	0	0	1	666	49	1	634	1	1	1	0
3	13	0	0	0	1	49	1	613	1	1	1	0
3	13	0	0	0	1	47	1	516	1	1	1	1
3	13	0	0	0	0	49	1	594	1	1	1	1
3	13	0	0	0	1	47	1	493	1	1	1	1
3	13	0	0	0	0	49	1	663	1	1	2	1
3	13	0	0	0	0	49	1	456	1	1	2	1
3	13	0	0	0	0	47	1	455	1	1	2	1
3	13	0	0	0	1	49	1	573	1	1	2	1
3	13	0	0	0	0	47	1	524	1	1	3	1
3	13	0	0	0	1	47	0	442	1	1	3	1
3	13	0	0	0	0	47	1	675	1	1	3	1
3	13	0	0	0	1	47	1	631	1	1	3	1
3	14	0	4	0	1	49	1	763	1	0	0	0
3	14	0	4	0	0	47	1	676	1	0	0	0
3	14	0	4	0	0	49	1	538	1	0	0	0
3	14	0	4	0	1	47	1	387	1	0	0	0
3	14	0	4	1	666	49	1	504	1	0	0	0
3	14	0	4	0	1	49	0	467	1	1	1	0
3	14	0	4	0	0	47	1	547	1	1	1	1
3	14	0	4	0	0	47	1	366	1	1	1	1
3	14	0	4	0	0	49	1	438	1	1	1	1
3	14	0	4	0	0	49	1	488	1	1	2	1
3	14	0	4	0	1	49	1	553	1	1	2	1
3	14	0	4	0	1	47	1	651	1	1	2	1
3	14	0	4	0	1	49	1	533	1	1	2	1
3	14	0	4	0	0	49	1	544	1	1	3	1
3	14	0	4	0	0	47	1	560	1	1	3	1
3	14	0	4	0	1	47	1	647	1	1	3	1
3	14	0	4	0	1	49	1	562	1	1	3	1
3	16	1	0	2	666	57	1	575	1	1	1	0
3	16	1	0	0	1	47	1	687	1	1	1	0
3	16	1	0	0	1	47	1	433	1	1	1	1
3	16	1	0	0	0	49	1	478	1	1	1	1
3	16	1	0	0	0	47	1	769	1	1	1	1
3	16	1	0	0	1	49	1	570	1	1	2	1
3	16	1	0	0	1	49	1	472	1	1	2	1
3	16	1	0	0	0	49	1	568	1	1	2	1
3	16	1	0	0	1	49	1	635	1	1	2	1
3	16	1	0	0	0	47	1	585	1	1	3	1
3	16	1	0	0	0	49	1	485	1	1	3	1
3	16	1	0	0	1	47	1	826	1	1	3	1
3	16	1	0	0	0	47	1	597	1	1	3	1
3	17	0	4	0	0	47	1	604	1	0	0	0
3	17	0	4	0	1	49	1	507	1	0	0	0
3	17	0	4	0	1	47	1	575	1	0	0	0
3	17	0	4	0	0	49	1	667	1	0	0	0
3	17	0	4	1	666	49	1	503	1	0	0	0
3	17	0	4	0	1	47	1	651	1	1	1	0
3	17	0	4	0	0	49	1	516	1	1	1	1
3	17	0	4	0	0	49	1	463	1	1	1	1
3	17	0	4	0	0	49	1	365	1	1	1	1
3	17	0	4	0	1	49	1	504	1	1	2	1
3	17	0	4	0	1	49	1	522	1	1	2	1
3	17	0	4	0	0	47	1	474	1	1	2	1
3	17	0	4	0	0	47	1	440	1	1	2	1
3	17	0	4	0	1	49	0	470	1	1	3	1
3	17	0	4	0	0	47	1	625	1	1	3	1
3	17	0	4	0	1	47	0	395	1	1	3	1
3	17	0	4	0	1	47	1	721	1	1	3	1
3	18	2	4	0	0	49	1	742	0	0	0	0
3	18	2	4	0	0	47	1	552	0	0	0	0
3	18	2	4	0	1	49	1	600	0	0	0	0
3	18	2	4	0	1	47	1	534	0	0	0	0
3	18	2	4	3	666	57	1	653	0	0	0	0
3	18	2	4	0	1	49	1	753	0	1	1	0
3	18	2	4	0	0	47	1	586	0	1	1	1
3	18	2	4	0	1	49	1	606	0	1	1	1
3	18	2	4	0	0	47	1	569	0	1	1	1
3	18	2	4	0	1	47	1	801	0	1	2	1
3	18	2	4	0	0	49	1	534	0	1	2	1
3	18	2	4	0	0	49	1	450	0	1	2	1
3	18	2	4	0	1	49	1	462	0	1	2	1
3	18	2	4	0	0	49	1	441	0	1	3	1
3	18	2	4	0	0	47	1	501	0	1	3	1
3	18	2	4	0	1	47	1	614	0	1	3	1
3	18	2	4	0	1	47	1	457	0	1	3	1
3	18	2	4	1	666	49	0	449	0	1	3	1
3	19	2	0	0	0	47	1	667	1	1	1	0
3	19	2	0	0	0	47	1	539	1	1	1	1
3	19	2	0	0	0	49	1	594	1	1	1	1
3	19	2	0	0	1	47	1	760	1	1	1	1
3	19	2	0	0	0	49	1	558	1	1	2	1
3	19	2	0	0	1	47	1	746	1	1	2	1
3	19	2	0	0	0	49	1	476	1	1	2	1
3	19	2	0	0	1	49	1	653	1	1	2	1
3	19	2	0	0	1	49	1	456	1	1	3	1
3	19	2	0	0	1	47	1	654	1	1	3	1
3	19	2	0	0	0	47	1	547	1	1	3	1
3	19	2	0	0	1	49	1	592	1	1	3	1
3	19	2	0	1	666	49	1	633	1	1	3	1
3	20	0	0	1	666	49	1	481	1	1	1	0
3	20	0	0	0	0	47	1	793	1	1	1	0
3	20	0	0	0	0	49	1	693	1	1	1	1
3	20	0	0	0	1	47	1	563	1	1	1	1
3	20	0	0	0	0	49	1	561	1	1	1	1
3	20	0	0	0	1	47	1	565	1	1	2	1
3	20	0	0	0	1	49	1	548	1	1	2	1
3	20	0	0	0	0	49	1	559	1	1	2	1
3	20	0	0	0	1	47	1	622	1	1	2	1
3	20	0	0	0	1	49	1	433	1	1	3	1
3	20	0	0	0	0	47	1	581	1	1	3	1
3	20	0	0	0	0	47	1	584	1	1	3	1
3	20	0	0	0	1	49	1	650	1	1	3	1
3	21	1	4	0	0	49	1	538	1	0	0	0
3	21	1	4	0	0	47	1	458	1	0	0	0
3	21	1	4	0	1	47	1	582	1	0	0	0
3	21	1	4	0	1	49	1	409	1	0	0	0
3	21	1	4	2	666	57	1	576	1	0	0	0
3	21	1	4	0	1	49	1	638	1	1	1	0
3	21	1	4	0	1	47	1	438	1	1	1	1
3	21	1	4	0	1	49	1	563	1	1	1	1
3	21	1	4	0	0	49	1	611	1	1	1	1
3	21	1	4	0	1	47	1	589	1	1	2	1
3	21	1	4	0	1	47	1	585	1	1	2	1
3	21	1	4	0	0	47	1	639	1	1	2	1
3	21	1	4	0	0	49	1	510	1	1	2	1
3	21	1	4	0	0	47	1	448	1	1	3	1
3	21	1	4	0	1	49	1	388	1	1	3	1
3	21	1	4	0	0	47	1	543	1	1	3	1
3	21	1	4	0	0	49	1	438	1	1	3	1
3	23	0	4	0	1	47	1	718	1	0	0	0
3	23	0	4	0	0	49	1	450	1	0	0	0
3	23	0	4	0	1	47	0	434	1	0	0	0
3	23	0	4	0	0	47	1	582	1	0	0	0
3	23	0	4	1	666	47	1	858	1	0	0	0
3	23	0	4	0	1	47	1	801	1	1	1	0
3	23	0	4	0	0	47	1	540	1	1	1	1
3	23	0	4	0	1	47	1	575	1	1	1	1
3	23	0	4	0	1	47	1	407	1	1	1	1
3	23	0	4	0	0	47	0	385	1	1	2	1
3	23	0	4	0	1	49	1	513	1	1	2	1
3	23	0	4	0	0	49	1	342	1	1	2	1
3	23	0	4	0	0	47	1	607	1	1	2	1
3	23	0	4	0	1	49	1	650	1	1	3	1
3	23	0	4	0	0	49	1	618	1	1	3	1
3	23	0	4	0	0	47	1	485	1	1	3	1
3	23	0	4	0	1	49	1	485	1	1	3	1
3	24	2	0	0	1	49	1	1115	1	1	1	0
3	24	2	0	0	0	47	1	518	1	1	1	1
3	24	2	0	0	0	47	1	515	1	1	1	1
3	24	2	0	0	1	47	1	708	1	1	1	1
3	24	2	0	0	0	49	1	556	1	1	2	1
3	24	2	0	0	1	49	1	720	1	1	2	1
3	24	2	0	0	1	47	1	557	1	1	2	1
3	24	2	0	0	1	47	1	501	1	1	2	1
3	24	2	0	0	0	49	1	759	1	1	3	1
3	24	2	0	0	1	49	1	507	1	1	3	1
3	24	2	0	0	0	47	1	815	1	1	3	1
3	24	2	0	0	0	49	1	539	1	1	3	1
3	24	2	0	1	666	49	1	652	1	1	3	1
3	25	1	0	2	666	57	1	598	1	1	1	0
3	25	1	0	0	0	47	1	848	1	1	1	0
3	25	1	0	0	0	49	1	583	1	1	1	1
3	25	1	0	0	1	49	1	802	1	1	1	1
3	25	1	0	0	1	47	1	598	1	1	1	1
3	25	1	0	0	1	49	1	483	1	1	2	1
3	25	1	0	0	1	47	1	518	1	1	2	1
3	25	1	0	0	0	49	1	430	1	1	2	1
3	25	1	0	0	0	47	1	532	1	1	2	1
3	25	1	0	0	0	47	1	485	1	1	3	1
3	25	1	0	0	1	47	1	455	1	1	3	1
3	25	1	0	0	0	49	1	613	1	1	3	1
3	25	1	0	0	1	49	1	515	1	1	3	1
3	26	2	4	0	0	47	1	835	1	0	0	0
3	26	2	4	0	1	49	1	490	1	0	0	0
3	26	2	4	0	1	47	1	440	1	0	0	0
3	26	2	4	0	0	49	1	490	1	0	0	0
3	26	2	4	3	666	57	1	621	1	0	0	0
3	26	2	4	0	0	49	1	508	1	1	1	0
3	26	2	4	0	0	47	1	466	1	1	1	1
3	26	2	4	0	1	47	1	677	1	1	1	1
3	26	2	4	0	1	49	1	514	1	1	1	1
3	26	2	4	0	0	49	1	532	1	1	2	1
3	26	2	4	0	1	49	1	489	1	1	2	1
3	26	2	4	0	0	49	1	409	1	1	2	1
3	26	2	4	0	1	49	0	457	1	1	2	1
3	26	2	4	0	0	47	1	494	1	1	3	1
3	26	2	4	0	1	47	1	465	1	1	3	1
3	26	2	4	0	0	47	1	543	1	1	3	1
3	26	2	4	0	1	49	1	463	1	1	3	1
3	26	2	4	1	666	49	1	851	1	1	3	1
3	27	1	4	0	0	47	1	612	1	0	0	0
3	27	1	4	0	0	49	1	445	1	0	0	0
3	27	1	4	0	1	49	1	576	1	0	0	0
3	27	1	4	0	1	47	1	327	1	0	0	0
3	27	1	4	2	666	57	1	605	1	0	0	0
3	27	1	4	0	0	47	1	803	1	1	1	0
3	27	1	4	0	1	47	1	621	1	1	1	1
3	27	1	4	0	0	49	1	523	1	1	1	1
3	27	1	4	0	0	49	1	415	1	1	1	1
3	27	1	4	0	1	47	1	488	1	1	2	1
3	27	1	4	0	1	47	1	498	1	1	2	1
3	27	1	4	0	0	47	1	713	1	1	2	1
3	27	1	4	0	1	49	1	411	1	1	2	1
3	27	1	4	0	0	47	1	549	1	1	3	1
3	27	1	4	0	1	49	1	520	1	1	3	1
3	27	1	4	0	1	49	1	456	1	1	3	1
3	27	1	4	0	0	49	1	460	1	1	3	1
3	28	0	0	1	666	47	1	898	1	1	1	0
3	28	0	0	0	1	49	1	668	1	1	1	0
3	28	0	0	0	0	47	1	899	1	1	1	1
3	28	0	0	0	1	47	1	602	1	1	1	1
3	28	0	0	0	0	47	1	501	1	1	1	1
3	28	0	0	0	0	49	1	535	1	1	2	1
3	28	0	0	0	1	49	1	465	1	1	2	1
3	28	0	0	0	0	47	1	563	1	1	2	1
3	28	0	0	0	1	47	1	667	1	1	2	1
3	28	0	0	0	0	49	1	558	1	1	3	1
3	28	0	0	0	1	47	1	486	1	1	3	1
3	28	0	0	0	0	49	1	506	1	1	3	1
3	28	0	0	0	1	49	1	534	1	1	3	1
3	30	0	0	1	666	49	1	719	1	1	1	0
3	30	0	0	0	1	47	1	716	1	1	1	0
3	30	0	0	0	0	47	1	529	1	1	1	1
3	30	0	0	0	0	47	1	465	1	1	1	1
3	30	0	0	0	0	47	1	603	1	1	1	1
3	30	0	0	0	1	49	1	527	1	1	2	1
3	30	0	0	0	1	49	1	663	1	1	2	1
3	30	0	0	0	0	49	1	596	1	1	2	1
3	30	0	0	0	1	49	1	462	1	1	2	1
3	30	0	0	0	1	47	1	545	1	1	3	1
3	30	0	0	0	0	49	1	590	1	1	3	1
3	30	0	0	0	1	47	1	509	1	1	3	1
3	30	0	0	0	0	49	1	539	1	1	3	1
3	31	2	4	0	1	47	1	788	1	0	0	0
3	31	2	4	0	0	49	1	438	1	0	0	0
3	31	2	4	0	0	47	1	728	1	0	0	0
3	31	2	4	0	1	49	1	540	1	0	0	0
3	31	2	4	3	666	57	1	629	1	0	0	0
3	31	2	4	0	0	47	1	641	1	1	1	0
3	31	2	4	0	0	49	1	452	1	1	1	1
3	31	2	4	0	0	47	1	526	1	1	1	1
3	31	2	4	0	1	47	1	597	1	1	1	1
3	31	2	4	0	1	49	1	468	1	1	2	1
3	31	2	4	0	0	49	0	393	1	1	2	1
3	31	2	4	0	1	47	1	642	1	1	2	1
3	31	2	4	0	1	49	1	482	1	1	2	1
3	31	2	4	0	1	47	1	603	1	1	3	1
3	31	2	4	0	1	49	1	527	1	1	3	1
3	31	2	4	0	0	49	1	468	1	1	3	1
3	31	2	4	0	0	49	1	395	1	1	3	1
3	31	2	4	1	666	49	1	771	1	1	3	1
3	32	1	0	2	666	57	1	589	1	1	1	0
3	32	1	0	0	1	49	1	1178	1	1	1	0
3	32	1	0	0	0	49	1	525	1	1	1	1
3	32	1	0	0	0	47	1	557	1	1	1	1
3	32	1	0	0	1	47	0	374	1	1	1	1
3	32	1	0	0	1	47	1	582	1	1	2	1
3	32	1	0	0	0	49	1	418	1	1	2	1
3	32	1	0	0	1	49	1	454	1	1	2	1
3	32	1	0	0	0	47	1	617	1	1	2	1
3	32	1	0	0	0	47	1	633	1	1	3	1
3	32	1	0	0	1	47	1	634	1	1	3	1
3	32	1	0	0	0	47	0	344	1	1	3	1
3	32	1	0	0	1	47	1	427	1	1	3	1
3	33	1	4	0	0	47	1	512	1	0	0	0
3	33	1	4	0	1	49	1	446	1	0	0	0
3	33	1	4	0	0	49	1	495	1	0	0	0
3	33	1	4	0	1	47	1	421	1	0	0	0
3	33	1	4	2	666	57	1	577	1	0	0	0
3	33	1	4	0	0	49	1	509	1	1	1	0
3	33	1	4	0	0	49	1	427	1	1	1	1
3	33	1	4	0	1	47	1	444	1	1	1	1
3	33	1	4	0	1	47	1	518	1	1	1	1
3	33	1	4	0	1	49	1	546	1	1	2	1
3	33	1	4	0	1	49	1	421	1	1	2	1
3	33	1	4	0	1	49	1	517	1	1	2	1
3	33	1	4	0	0	47	1	525	1	1	2	1
3	33	1	4	0	0	47	1	446	1	1	3	1
3	33	1	4	0	0	47	1	386	1	1	3	1
3	33	1	4	0	0	49	1	495	1	1	3	1
3	33	1	4	0	1	47	1	575	1	1	3	1
3	34	2	0	0	0	47	1	541	1	1	1	0
3	34	2	0	0	1	49	1	501	1	1	1	1
3	34	2	0	0	0	49	1	450	1	1	1	1
3	34	2	0	0	1	47	1	433	1	1	1	1
3	34	2	0	0	1	49	1	452	1	1	2	1
3	34	2	0	0	1	49	1	550	1	1	2	1
3	34	2	0	0	1	47	1	489	1	1	2	1
3	34	2	0	0	0	49	1	618	1	1	2	1
3	34	2	0	0	0	47	1	475	1	1	3	1
3	34	2	0	0	0	49	1	503	1	1	3	1
3	34	2	0	0	0	47	1	361	1	1	3	1
3	34	2	0	0	1	47	1	720	1	1	3	1
3	34	2	0	1	666	47	1	681	1	1	3	1
3	35	0	4	0	0	49	1	454	1	0	0	0
3	35	0	4	0	1	49	1	567	1	0	0	0
3	35	0	4	0	0	47	1	359	1	0	0	0
3	35	0	4	0	1	47	1	328	1	0	0	0
3	35	0	4	1	666	47	1	730	1	0	0	0
3	35	0	4	0	1	49	0	506	1	1	1	0
3	35	0	4	0	1	49	1	598	1	1	1	1
3	35	0	4	0	0	49	1	523	1	1	1	1
3	35	0	4	0	1	47	1	509	1	1	1	1
3	35	0	4	0	1	49	1	503	1	1	2	1
3	35	0	4	0	0	47	1	571	1	1	2	1
3	35	0	4	0	1	49	0	402	1	1	2	1
3	35	0	4	0	0	47	1	564	1	1	2	1
3	35	0	4	0	0	49	1	577	1	1	3	1
3	35	0	4	0	1	49	1	545	1	1	3	1
3	35	0	4	0	0	49	1	460	1	1	3	1
3	35	0	4	0	0	47	1	463	1	1	3	1
3	37	0	0	1	666	47	1	694	1	1	1	0
3	37	0	0	0	0	49	1	568	1	1	1	0
3	37	0	0	0	0	49	1	411	1	1	1	1
3	37	0	0	0	1	47	1	563	1	1	1	1
3	37	0	0	0	0	47	1	481	1	1	1	1
3	37	0	0	0	1	47	1	803	1	1	2	1
3	37	0	0	0	1	47	1	391	1	1	2	1
3	37	0	0	0	0	47	1	577	1	1	2	1
3	37	0	0	0	0	47	1	378	1	1	2	1
3	37	0	0	0	0	49	1	549	1	1	3	1
3	37	0	0	0	1	49	1	478	1	1	3	1
3	37	0	0	0	1	49	1	460	1	1	3	1
3	37	0	0	0	1	49	1	374	1	1	3	1
3	38	0	4	0	1	47	0	685	1	0	0	0
3	38	0	4	0	0	47	1	584	1	0	0	0
3	38	0	4	0	0	49	1	509	1	0	0	0
3	38	0	4	0	1	49	0	472	1	0	0	0
3	38	0	4	1	666	49	1	592	1	0	0	0
3	38	0	4	0	1	49	0	487	1	1	1	0
3	38	0	4	0	0	47	1	670	1	1	1	1
3	38	0	4	0	0	47	1	327	1	1	1	1
3	38	0	4	0	0	49	1	533	1	1	1	1
3	38	0	4	0	1	47	1	488	1	1	2	1
3	38	0	4	0	1	49	1	463	1	1	2	1
3	38	0	4	0	1	47	1	491	1	1	2	1
3	38	0	4	0	0	47	1	447	1	1	2	1
3	38	0	4	0	1	49	1	507	1	1	3	1
3	38	0	4	0	1	49	1	460	1	1	3	1
3	38	0	4	0	0	49	1	384	1	1	3	1
3	38	0	4	0	0	49	1	459	1	1	3	1
3	39	2	4	0	0	49	1	455	1	0	0	0
3	39	2	4	0	1	49	1	483	1	0	0	0
3	39	2	4	0	1	47	1	519	1	0	0	0
3	39	2	4	0	0	47	1	475	1	0	0	0
3	39	2	4	3	666	57	1	638	1	0	0	0
3	39	2	4	0	1	47	1	597	1	1	1	0
3	39	2	4	0	1	49	1	682	1	1	1	1
3	39	2	4	0	0	49	1	584	1	1	1	1
3	39	2	4	0	1	47	1	529	1	1	1	1
3	39	2	4	0	0	47	1	645	1	1	2	1
3	39	2	4	0	0	49	1	560	1	1	2	1
3	39	2	4	0	0	47	1	574	1	1	2	1
3	39	2	4	0	1	49	1	876	1	1	2	1
3	39	2	4	0	1	49	1	487	1	1	3	1
3	39	2	4	0	1	47	1	462	1	1	3	1
3	39	2	4	0	0	49	1	556	1	1	3	1
3	39	2	4	0	0	47	1	464	1	1	3	1
3	39	2	4	1	666	49	1	627	1	1	3	1
3	40	1	4	0	1	47	1	650	1	0	0	0
3	40	1	4	0	0	49	1	535	1	0	0	0
3	40	1	4	0	1	47	0	519	1	0	0	0
3	40	1	4	0	0	47	1	600	1	0	0	0
3	40	1	4	2	666	57	1	582	1	0	0	0
3	40	1	4	0	0	47	1	507	1	1	1	0
3	40	1	4	0	0	49	1	485	1	1	1	1
3	40	1	4	0	1	47	1	741	1	1	1	1
3	40	1	4	0	1	49	1	546	1	1	1	1
3	40	1	4	0	0	47	1	465	1	1	2	1
3	40	1	4	0	0	49	1	512	1	1	2	1
3	40	1	4	0	0	47	1	590	1	1	2	1
3	40	1	4	0	1	47	1	509	1	1	2	1
3	40	1	4	0	1	47	1	497	1	1	3	1
3	40	1	4	0	0	49	1	508	1	1	3	1
3	40	1	4	0	1	47	0	431	1	1	3	1
3	40	1	4	0	1	49	1	581	1	1	3	1
3	41	1	0	2	666	57	1	597	1	1	1	0
3	41	1	0	0	1	49	1	628	1	1	1	0
3	41	1	0	0	0	49	1	460	1	1	1	1
3	41	1	0	0	0	47	1	488	1	1	1	1
3	41	1	0	0	0	49	1	518	1	1	1	1
3	41	1	0	0	0	47	1	465	1	1	2	1
3	41	1	0	0	1	47	1	698	1	1	2	1
3	41	1	0	0	1	49	1	523	1	1	2	1
3	41	1	0	0	0	49	1	539	1	1	2	1
3	41	1	0	0	1	47	1	524	1	1	3	1
3	41	1	0	0	0	47	1	511	1	1	3	1
3	41	1	0	0	1	47	1	410	1	1	3	1
3	41	1	0	0	1	49	1	493	1	1	3	1
3	42	2	0	0	0	49	1	596	1	1	1	0
3	42	2	0	0	1	47	1	531	1	1	1	1
3	42	2	0	0	0	49	1	638	1	1	1	1
3	42	2	0	0	1	49	1	693	1	1	1	1
3	42	2	0	0	1	49	1	402	1	1	2	1
3	42	2	0	0	0	47	1	547	1	1	2	1
3	42	2	0	0	0	49	1	507	1	1	2	1
3	42	2	0	0	0	49	0	428	1	1	2	1
3	42	2	0	0	1	47	0	565	1	1	3	1
3	42	2	0	0	0	47	1	446	1	1	3	1
3	42	2	0	0	1	47	1	626	1	1	3	1
3	42	2	0	0	1	47	1	488	1	1	3	1
3	42	2	0	1	666	49	1	438	1	1	3	1
3	44	2	0	0	0	49	1	668	0	1	1	0
3	44	2	0	0	0	47	1	475	0	1	1	1
3	44	2	0	0	1	47	1	422	0	1	1	1
3	44	2	0	0	1	47	1	413	0	1	1	1
3	44	2	0	0	1	49	1	396	0	1	2	1
3	44	2	0	0	0	49	1	462	0	1	2	1
3	44	2	0	0	0	47	1	510	0	1	2	1
3	44	2	0	0	1	47	1	428	0	1	2	1
3	44	2	0	0	0	49	1	529	0	1	3	1
3	44	2	0	0	1	49	1	447	0	1	3	1
3	44	2	0	0	0	47	1	452	0	1	3	1
3	44	2	0	0	1	49	1	466	0	1	3	1
3	44	2	0	1	666	49	0	554	0	1	3	1
3	45	1	4	0	0	47	1	617	1	0	0	0
3	45	1	4	0	0	49	1	514	1	0	0	0
3	45	1	4	0	1	47	1	871	1	0	0	0
3	45	1	4	0	1	49	1	444	1	0	0	0
3	45	1	4	2	666	57	1	714	1	0	0	0
3	45	1	4	0	0	49	1	687	1	1	1	0
3	45	1	4	0	1	47	1	667	1	1	1	1
3	45	1	4	0	0	47	1	964	1	1	1	1
3	45	1	4	0	1	49	1	542	1	1	1	1
3	45	1	4	0	1	47	1	717	1	1	2	1
3	45	1	4	0	1	49	1	528	1	1	2	1
3	45	1	4	0	0	47	1	635	1	1	2	1
3	45	1	4	0	0	47	1	526	1	1	2	1
3	45	1	4	0	1	47	1	627	1	1	3	1
3	45	1	4	0	1	49	1	509	1	1	3	1
3	45	1	4	0	0	49	1	552	1	1	3	1
3	45	1	4	0	0	49	1	435	1	1	3	1
3	46	1	0	2	666	57	1	871	1	1	1	0
3	46	1	0	0	1	47	1	747	1	1	1	0
3	46	1	0	0	0	47	1	487	1	1	1	1
3	46	1	0	0	0	49	1	658	1	1	1	1
3	46	1	0	0	1	47	1	596	1	1	1	1
3	46	1	0	0	1	47	1	506	1	1	2	1
3	46	1	0	0	0	47	1	629	1	1	2	1
3	46	1	0	0	0	49	1	561	1	1	2	1
3	46	1	0	0	1	49	1	484	1	1	2	1
3	46	1	0	0	0	49	1	448	1	1	3	1
3	46	1	0	0	1	49	1	419	1	1	3	1
3	46	1	0	0	1	49	1	455	1	1	3	1
3	46	1	0	0	0	47	1	603	1	1	3	1
3	47	0	0	1	666	49	1	652	1	1	1	0
3	47	0	0	0	0	49	1	536	1	1	1	0
3	47	0	0	0	1	49	1	536	1	1	1	1
3	47	0	0	0	0	47	1	465	1	1	1	1
3	47	0	0	0	1	47	1	544	1	1	1	1
3	47	0	0	0	0	49	1	519	1	1	2	1
3	47	0	0	0	0	49	1	463	1	1	2	1
3	47	0	0	0	1	49	1	499	1	1	2	1
3	47	0	0	0	1	49	1	449	1	1	2	1
3	47	0	0	0	1	47	1	478	1	1	3	1
3	47	0	0	0	0	47	1	490	1	1	3	1
3	47	0	0	0	0	47	1	519	1	1	3	1
3	47	0	0	0	1	47	1	856	1	1	3	1
3	48	2	4	0	0	49	1	646	0	0	0	0
3	48	2	4	0	1	49	0	471	0	0	0	0
3	48	2	4	0	1	49	1	597	0	0	0	0
3	48	2	4	0	0	47	1	507	0	0	0	0
3	48	2	4	3	666	57	1	655	0	0	0	0
3	48	2	4	0	1	49	1	583	0	1	1	0
3	48	2	4	0	0	47	1	502	0	1	1	1
3	48	2	4	0	0	47	1	491	0	1	1	1
3	48	2	4	0	0	47	1	441	0	1	1	1
3	48	2	4	0	0	49	1	632	0	1	2	1
3	48	2	4	0	1	47	1	521	0	1	2	1
3	48	2	4	0	1	47	1	749	0	1	2	1
3	48	2	4	0	0	49	1	548	0	1	2	1
3	48	2	4	0	1	47	0	493	0	1	3	1
3	48	2	4	0	0	49	1	561	0	1	3	1
3	48	2	4	0	1	49	1	390	0	1	3	1
3	48	2	4	0	1	47	1	469	0	1	3	1
3	48	2	4	1	666	49	0	596	0	1	3	1
3	49	0	4	0	0	49	1	606	1	0	0	0
3	49	0	4	0	1	47	1	520	1	0	0	0
3	49	0	4	0	0	47	1	646	1	0	0	0
3	49	0	4	0	1	49	1	727	1	0	0	0
3	49	0	4	1	666	49	1	668	1	0	0	0
3	49	0	4	0	1	47	1	564	1	1	1	0
3	49	0	4	0	0	47	1	513	1	1	1	1
3	49	0	4	0	1	47	1	428	1	1	1	1
3	49	0	4	0	1	49	1	468	1	1	1	1
3	49	0	4	0	0	47	1	524	1	1	2	1
3	49	0	4	0	1	47	1	551	1	1	2	1
3	49	0	4	0	0	49	1	490	1	1	2	1
3	49	0	4	0	0	47	1	520	1	1	2	1
3	49	0	4	0	1	49	1	545	1	1	3	1
3	49	0	4	0	0	49	1	542	1	1	3	1
3	49	0	4	0	1	49	1	501	1	1	3	1
3	49	0	4	0	0	49	1	400	1	1	3	1
3	51	2	0	0	0	49	1	545	1	1	1	0
3	51	2	0	0	1	47	1	456	1	1	1	1
3	51	2	0	0	0	47	1	429	1	1	1	1
3	51	2	0	0	1	47	1	451	1	1	1	1
3	51	2	0	0	0	47	1	493	1	1	2	1
3	51	2	0	0	1	49	1	519	1	1	2	1
3	51	2	0	0	0	47	0	435	1	1	2	1
3	51	2	0	0	0	47	1	555	1	1	2	1
3	51	2	0	0	1	49	1	462	1	1	3	1
3	51	2	0	0	1	49	1	365	1	1	3	1
3	51	2	0	0	0	49	1	364	1	1	3	1
3	51	2	0	0	1	47	1	408	1	1	3	1
3	51	2	0	1	666	49	1	516	1	1	3	1
3	52	0	0	1	666	49	1	430	1	1	1	0
3	52	0	0	0	0	47	1	537	1	1	1	0
3	52	0	0	0	0	47	1	422	1	1	1	1
3	52	0	0	0	1	49	1	464	1	1	1	1
3	52	0	0	0	0	47	1	612	1	1	1	1
3	52	0	0	0	1	47	1	646	1	1	2	1
3	52	0	0	0	1	49	1	482	1	1	2	1
3	52	0	0	0	1	49	1	568	1	1	2	1
3	52	0	0	0	1	47	1	414	1	1	2	1
3	52	0	0	0	0	49	1	568	1	1	3	1
3	52	0	0	0	0	49	1	454	1	1	3	1
3	52	0	0	0	1	47	1	557	1	1	3	1
3	52	0	0	0	0	49	1	485	1	1	3	1
3	53	0	4	0	1	47	1	518	1	0	0	0
3	53	0	4	0	1	49	1	489	1	0	0	0
3	53	0	4	0	0	49	1	469	1	0	0	0
3	53	0	4	0	0	47	1	396	1	0	0	0
3	53	0	4	1	666	47	1	657	1	0	0	0
3	53	0	4	0	1	49	1	719	1	1	1	0
3	53	0	4	0	1	47	1	481	1	1	1	1
3	53	0	4	0	1	49	1	562	1	1	1	1
3	53	0	4	0	0	49	1	460	1	1	1	1
3	53	0	4	0	1	47	1	489	1	1	2	1
3	53	0	4	0	0	47	1	615	1	1	2	1
3	53	0	4	0	0	49	1	493	1	1	2	1
3	53	0	4	0	0	47	1	578	1	1	2	1
3	53	0	4	0	1	49	1	689	1	1	3	1
3	53	0	4	0	0	49	1	489	1	1	3	1
3	53	0	4	0	0	47	1	524	1	1	3	1
3	53	0	4	0	1	47	1	431	1	1	3	1
3	54	2	4	0	0	49	1	493	1	0	0	0
3	54	2	4	0	0	47	1	523	1	0	0	0
3	54	2	4	0	1	47	1	445	1	0	0	0
3	54	2	4	0	1	49	1	500	1	0	0	0
3	54	2	4	3	666	0	0	1250	1	0	0	0
3	54	2	4	0	1	49	1	499	1	1	1	0
3	54	2	4	0	0	47	1	678	1	1	1	1
3	54	2	4	0	1	47	1	544	1	1	1	1
3	54	2	4	0	1	47	1	464	1	1	1	1
3	54	2	4	0	0	49	1	568	1	1	2	1
3	54	2	4	0	1	49	1	545	1	1	2	1
3	54	2	4	0	0	47	1	519	1	1	2	1
3	54	2	4	0	1	47	1	481	1	1	2	1
3	54	2	4	0	0	49	1	463	1	1	3	1
3	54	2	4	0	0	47	1	466	1	1	3	1
3	54	2	4	0	0	49	1	538	1	1	3	1
3	54	2	4	0	1	49	1	478	1	1	3	1
3	54	2	4	1	666	49	1	459	1	1	3	1
3	55	1	4	0	1	47	1	578	1	0	0	0
3	55	1	4	0	0	47	1	465	1	0	0	0
3	55	1	4	0	0	49	1	498	1	0	0	0
3	55	1	4	0	1	49	1	383	1	0	0	0
3	55	1	4	2	666	57	1	543	1	0	0	0
3	55	1	4	0	1	47	1	643	1	1	1	0
3	55	1	4	0	1	49	1	478	1	1	1	1
3	55	1	4	0	0	49	1	839	1	1	1	1
3	55	1	4	0	1	47	1	674	1	1	1	1
3	55	1	4	0	0	47	1	572	1	1	2	1
3	55	1	4	0	1	47	1	473	1	1	2	1
3	55	1	4	0	0	49	1	615	1	1	2	1
3	55	1	4	0	0	47	1	503	1	1	2	1
3	55	1	4	0	1	49	1	587	1	1	3	1
3	55	1	4	0	1	49	1	537	1	1	3	1
3	55	1	4	0	0	47	1	521	1	1	3	1
3	55	1	4	0	0	49	1	677	1	1	3	1
3	56	1	0	2	666	57	1	702	1	1	1	0
3	56	1	0	0	1	49	1	750	1	1	1	0
3	56	1	0	0	0	49	1	528	1	1	1	1
3	56	1	0	0	1	47	1	345	1	1	1	1
3	56	1	0	0	1	47	1	370	1	1	1	1
3	56	1	0	0	0	49	1	480	1	1	2	1
3	56	1	0	0	0	49	1	423	1	1	2	1
3	56	1	0	0	1	49	1	579	1	1	2	1
3	56	1	0	0	1	49	1	432	1	1	2	1
3	56	1	0	0	0	47	1	549	1	1	3	1
3	56	1	0	0	1	47	1	564	1	1	3	1
3	56	1	0	0	0	47	1	517	1	1	3	1
3	56	1	0	0	0	47	1	358	1	1	3	1
4	9	2	0	0	1	49	1	685	1	1	1	0
4	9	2	0	0	0	47	1	641	1	1	1	1
4	9	2	0	0	1	47	1	991	1	1	1	1
4	9	2	0	0	1	49	1	644	1	1	1	1
4	9	2	0	0	0	49	1	650	1	1	2	1
4	9	2	0	0	1	47	1	487	1	1	2	1
4	9	2	0	0	1	47	1	483	1	1	2	1
4	9	2	0	0	0	47	1	519	1	1	2	1
4	9	2	0	0	0	47	1	545	1	1	3	1
4	9	2	0	0	0	49	1	563	1	1	3	1
4	9	2	0	0	0	49	1	499	1	1	3	1
4	9	2	0	0	1	49	1	479	1	1	3	1
4	9	2	0	1	666	47	1	772	1	1	3	1
4	10	1	4	0	1	49	1	738	1	0	0	0
4	10	1	4	0	1	47	1	611	1	0	0	0
4	10	1	4	0	0	49	1	835	1	0	0	0
4	10	1	4	0	0	47	1	641	1	0	0	0
4	10	1	4	2	666	57	1	726	1	0	0	0
4	10	1	4	0	1	47	1	776	1	1	1	0
4	10	1	4	0	1	49	1	626	1	1	1	1
4	10	1	4	0	1	49	0	718	1	1	1	1
4	10	1	4	0	1	47	1	671	1	1	1	1
4	10	1	4	0	0	49	1	652	1	1	2	1
4	10	1	4	0	0	47	1	763	1	1	2	1
4	10	1	4	0	0	49	1	589	1	1	2	1
4	10	1	4	0	0	49	1	789	1	1	2	1
4	10	1	4	0	0	47	1	597	1	1	3	1
4	10	1	4	0	1	49	1	883	1	1	3	1
4	10	1	4	0	1	49	1	712	1	1	3	1
4	10	1	4	0	0	47	1	730	1	1	3	1
4	11	0	4	0	0	49	1	681	1	0	0	0
4	11	0	4	0	0	47	1	595	1	0	0	0
4	11	0	4	0	1	49	1	667	1	0	0	0
4	11	0	4	0	1	47	1	663	1	0	0	0
4	11	0	4	1	666	49	1	756	1	0	0	0
4	11	0	4	0	1	49	1	789	1	1	1	0
4	11	0	4	0	1	47	1	637	1	1	1	1
4	11	0	4	0	1	49	1	579	1	1	1	1
4	11	0	4	0	1	47	1	739	1	1	1	1
4	11	0	4	0	0	47	1	1109	1	1	2	1
4	11	0	4	0	0	49	1	553	1	1	2	1
4	11	0	4	0	1	49	1	793	1	1	2	1
4	11	0	4	0	0	47	1	673	1	1	2	1
4	11	0	4	0	0	47	1	574	1	1	3	1
4	11	0	4	0	0	49	1	581	1	1	3	1
4	11	0	4	0	0	49	1	790	1	1	3	1
4	11	0	4	0	1	47	1	662	1	1	3	1
4	12	2	4	0	1	49	1	726	0	0	0	0
4	12	2	4	0	0	47	1	778	0	0	0	0
4	12	2	4	0	0	49	1	682	0	0	0	0
4	12	2	4	0	1	47	1	719	0	0	0	0
4	12	2	4	3	666	57	1	745	0	0	0	0
4	12	2	4	0	0	47	1	827	0	1	1	0
4	12	2	4	0	1	47	1	858	0	1	1	1
4	12	2	4	0	0	47	1	728	0	1	1	1
4	12	2	4	0	0	47	1	577	0	1	1	1
4	12	2	4	0	0	49	1	570	0	1	2	1
4	12	2	4	0	1	49	0	707	0	1	2	1
4	12	2	4	0	1	49	1	757	0	1	2	1
4	12	2	4	0	1	49	1	624	0	1	2	1
4	12	2	4	0	0	49	1	695	0	1	3	1
4	12	2	4	0	0	49	1	555	0	1	3	1
4	12	2	4	0	1	47	1	804	0	1	3	1
4	12	2	4	0	1	49	1	691	0	1	3	1
4	12	2	4	1	666	47	0	864	0	1	3	1
4	13	1	0	2	666	57	1	679	1	1	1	0
4	13	1	0	0	1	47	1	616	1	1	1	0
4	13	1	0	0	1	47	1	807	1	1	1	1
4	13	1	0	0	0	47	1	959	1	1	1	1
4	13	1	0	0	0	49	1	512	1	1	1	1
4	13	1	0	0	0	0	0	1250	1	1	2	1
4	13	1	0	0	0	49	1	639	1	1	2	1
4	13	1	0	0	1	47	1	637	1	1	2	1
4	13	1	0	0	0	49	1	812	1	1	2	1
4	13	1	0	0	1	49	1	739	1	1	3	1
4	13	1	0	0	0	47	1	741	1	1	3	1
4	13	1	0	0	1	49	1	674	1	1	3	1
4	13	1	0	0	1	49	1	702	1	1	3	1
4	14	0	0	1	666	47	1	684	1	1	1	0
4	14	0	0	0	1	49	1	689	1	1	1	0
4	14	0	0	0	0	49	1	780	1	1	1	1
4	14	0	0	0	1	49	1	633	1	1	1	1
4	14	0	0	0	1	47	1	520	1	1	1	1
4	14	0	0	0	0	47	1	690	1	1	2	1
4	14	0	0	0	0	49	1	655	1	1	2	1
4	14	0	0	0	1	47	1	579	1	1	2	1
4	14	0	0	0	0	47	1	709	1	1	2	1
4	14	0	0	0	1	47	1	688	1	1	3	1
4	14	0	0	0	0	49	1	674	1	1	3	1
4	14	0	0	0	0	47	1	624	1	1	3	1
4	14	0	0	0	1	49	1	663	1	1	3	1
4	16	1	4	0	1	47	1	706	1	0	0	0
4	16	1	4	0	1	49	1	654	1	0	0	0
4	16	1	4	0	0	49	1	804	1	0	0	0
4	16	1	4	0	0	47	1	580	1	0	0	0
4	16	1	4	2	666	57	1	677	1	0	0	0
4	16	1	4	0	0	49	1	634	1	1	1	0
4	16	1	4	0	1	49	1	687	1	1	1	1
4	16	1	4	0	1	49	1	555	1	1	1	1
4	16	1	4	0	0	47	1	700	1	1	1	1
4	16	1	4	0	1	47	1	1152	1	1	2	1
4	16	1	4	0	0	47	1	616	1	1	2	1
4	16	1	4	0	0	49	1	623	1	1	2	1
4	16	1	4	0	1	47	1	630	1	1	2	1
4	16	1	4	0	1	47	1	676	1	1	3	1
4	16	1	4	0	0	47	1	585	1	1	3	1
4	16	1	4	0	1	49	1	689	1	1	3	1
4	16	1	4	0	0	49	1	588	1	1	3	1
4	17	2	0	0	1	49	1	690	0	1	1	0
4	17	2	0	0	1	47	1	726	0	1	1	1
4	17	2	0	0	0	47	1	919	0	1	1	1
4	17	2	0	0	0	47	1	561	0	1	1	1
4	17	2	0	0	0	47	1	523	0	1	2	1
4	17	2	0	0	1	47	1	604	0	1	2	1
4	17	2	0	0	1	49	1	563	0	1	2	1
4	17	2	0	0	0	49	1	581	0	1	2	1
4	17	2	0	0	0	49	1	574	0	1	3	1
4	17	2	0	0	1	49	1	563	0	1	3	1
4	17	2	0	0	1	47	1	686	0	1	3	1
4	17	2	0	0	0	49	1	737	0	1	3	1
4	17	2	0	1	666	47	0	920	0	1	3	1
4	18	0	4	0	1	47	1	689	1	0	0	0
4	18	0	4	0	0	49	1	501	1	0	0	0
4	18	0	4	0	1	47	0	793	1	0	0	0
4	18	0	4	0	0	47	1	577	1	0	0	0
4	18	0	4	1	666	49	1	826	1	0	0	0
4	18	0	4	0	1	47	1	585	1	1	1	0
4	18	0	4	0	1	47	1	676	1	1	1	1
4	18	0	4	0	0	49	1	512	1	1	1	1
4	18	0	4	0	1	49	1	540	1	1	1	1
4	18	0	4	0	1	47	1	557	1	1	2	1
4	18	0	4	0	0	47	1	540	1	1	2	1
4	18	0	4	0	0	47	1	478	1	1	2	1
4	18	0	4	0	1	49	1	571	1	1	2	1
4	18	0	4	0	1	49	1	564	1	1	3	1
4	18	0	4	0	0	49	1	761	1	1	3	1
4	18	0	4	0	0	49	1	522	1	1	3	1
4	18	0	4	0	0	47	1	677	1	1	3	1
4	19	0	0	1	666	49	1	758	1	1	1	0
4	19	0	0	0	0	49	1	704	1	1	1	0
4	19	0	0	0	1	47	1	747	1	1	1	1
4	19	0	0	0	1	47	1	598	1	1	1	1
4	19	0	0	0	0	47	1	589	1	1	1	1
4	19	0	0	0	0	49	1	596	1	1	2	1
4	19	0	0	0	1	49	1	789	1	1	2	1
4	19	0	0	0	0	47	1	685	1	1	2	1
4	19	0	0	0	1	49	1	641	1	1	2	1
4	19	0	0	0	1	47	1	709	1	1	3	1
4	19	0	0	0	1	49	1	656	1	1	3	1
4	19	0	0	0	0	47	1	645	1	1	3	1
4	19	0	0	0	0	49	1	600	1	1	3	1
4	20	2	4	0	0	49	1	743	1	0	0	0
4	20	2	4	0	0	47	1	577	1	0	0	0
4	20	2	4	0	1	49	0	1250	1	0	0	0
4	20	2	4	0	1	49	1	662	1	0	0	0
4	20	2	4	3	666	57	1	765	1	0	0	0
4	20	2	4	0	1	49	1	679	1	1	1	0
4	20	2	4	0	1	47	1	476	1	1	1	1
4	20	2	4	0	0	49	1	633	1	1	1	1
4	20	2	4	0	1	47	1	656	1	1	1	1
4	20	2	4	0	0	47	1	692	1	1	2	1
4	20	2	4	0	0	49	1	624	1	1	2	1
4	20	2	4	0	1	49	1	694	1	1	2	1
4	20	2	4	0	0	47	1	507	1	1	2	1
4	20	2	4	0	1	47	1	535	1	1	3	1
4	20	2	4	0	1	49	1	696	1	1	3	1
4	20	2	4	0	0	47	1	682	1	1	3	1
4	20	2	4	0	0	49	1	597	1	1	3	1
4	20	2	4	1	666	47	1	766	1	1	3	1
4	21	1	0	2	666	57	1	657	1	1	1	0
4	21	1	0	0	1	47	1	574	1	1	1	0
4	21	1	0	0	0	49	1	615	1	1	1	1
4	21	1	0	0	0	49	1	511	1	1	1	1
4	21	1	0	0	0	47	1	442	1	1	1	1
4	21	1	0	0	1	49	0	559	1	1	2	1
4	21	1	0	0	1	49	1	509	1	1	2	1
4	21	1	0	0	0	47	1	871	1	1	2	1
4	21	1	0	0	1	49	1	724	1	1	2	1
4	21	1	0	0	1	47	1	458	1	1	3	1
4	21	1	0	0	1	49	1	607	1	1	3	1
4	21	1	0	0	0	47	1	638	1	1	3	1
4	21	1	0	0	0	49	1	661	1	1	3	1
4	23	1	4	0	1	49	1	762	1	0	0	0
4	23	1	4	0	1	47	1	588	1	0	0	0
4	23	1	4	0	0	47	1	540	1	0	0	0
4	23	1	4	0	0	49	1	574	1	0	0	0
4	23	1	4	2	666	57	1	660	1	0	0	0
4	23	1	4	0	1	49	1	641	1	1	1	0
4	23	1	4	0	0	49	1	646	1	1	1	1
4	23	1	4	0	1	47	1	699	1	1	1	1
4	23	1	4	0	1	49	1	662	1	1	1	1
4	23	1	4	0	1	49	1	620	1	1	2	1
4	23	1	4	0	0	49	1	546	1	1	2	1
4	23	1	4	0	1	47	1	577	1	1	2	1
4	23	1	4	0	0	47	1	459	1	1	2	1
4	23	1	4	0	0	47	1	463	1	1	3	1
4	23	1	4	0	0	49	1	669	1	1	3	1
4	23	1	4	0	1	47	1	750	1	1	3	1
4	23	1	4	0	0	47	1	568	1	1	3	1
4	24	2	0	0	0	49	1	710	1	1	1	0
4	24	2	0	0	1	47	1	592	1	1	1	1
4	24	2	0	0	1	47	1	808	1	1	1	1
4	24	2	0	0	0	49	1	584	1	1	1	1
4	24	2	0	0	1	47	1	792	1	1	2	1
4	24	2	0	0	1	49	1	526	1	1	2	1
4	24	2	0	0	0	49	1	536	1	1	2	1
4	24	2	0	0	0	47	1	427	1	1	2	1
4	24	2	0	0	0	47	1	465	1	1	3	1
4	24	2	0	0	1	49	1	644	1	1	3	1
4	24	2	0	0	1	49	1	489	1	1	3	1
4	24	2	0	0	0	47	1	621	1	1	3	1
4	24	2	0	1	666	49	1	1010	1	1	3	1
4	25	0	0	1	666	47	1	1112	1	1	1	0
4	25	0	0	0	0	49	1	659	1	1	1	0
4	25	0	0	0	0	49	1	712	1	1	1	1
4	25	0	0	0	1	47	1	610	1	1	1	1
4	25	0	0	0	1	49	1	763	1	1	1	1
4	25	0	0	0	0	47	1	532	1	1	2	1
4	25	0	0	0	0	47	1	486	1	1	2	1
4	25	0	0	0	1	47	0	515	1	1	2	1
4	25	0	0	0	0	47	1	763	1	1	2	1
4	25	0	0	0	0	49	1	684	1	1	3	1
4	25	0	0	0	1	47	1	680	1	1	3	1
4	25	0	0	0	1	47	1	590	1	1	3	1
4	25	0	0	0	1	49	1	494	1	1	3	1
4	26	0	4	0	1	49	1	786	1	0	0	0
4	26	0	4	0	1	47	1	634	1	0	0	0
4	26	0	4	0	0	49	1	552	1	0	0	0
4	26	0	4	0	0	47	1	640	1	0	0	0
4	26	0	4	1	666	47	1	583	1	0	0	0
4	26	0	4	0	0	49	1	471	1	1	1	0
4	26	0	4	0	0	49	1	580	1	1	1	1
4	26	0	4	0	0	47	1	506	1	1	1	1
4	26	0	4	0	1	47	0	493	1	1	1	1
4	26	0	4	0	1	47	1	785	1	1	2	1
4	26	0	4	0	1	49	1	656	1	1	2	1
4	26	0	4	0	1	47	1	785	1	1	2	1
4	26	0	4	0	0	47	1	649	1	1	2	1
4	26	0	4	0	1	49	1	455	1	1	3	1
4	26	0	4	0	0	49	1	740	1	1	3	1
4	26	0	4	0	0	47	1	557	1	1	3	1
4	26	0	4	0	1	47	1	679	1	1	3	1
4	27	1	0	2	666	57	1	706	1	1	1	0
4	27	1	0	0	0	47	1	805	1	1	1	0
4	27	1	0	0	1	49	1	517	1	1	1	1
4	27	1	0	0	1	47	1	600	1	1	1	1
4	27	1	0	0	0	49	1	656	1	1	1	1
4	27	1	0	0	0	49	1	500	1	1	2	1
4	27	1	0	0	1	47	1	582	1	1	2	1
4	27	1	0	0	1	47	0	503	1	1	2	1
4	27	1	0	0	0	49	1	618	1	1	2	1
4	27	1	0	0	0	47	1	475	1	1	3	1
4	27	1	0	0	1	49	1	681	1	1	3	1
4	27	1	0	0	1	47	1	550	1	1	3	1
4	27	1	0	0	0	47	1	582	1	1	3	1
4	28	2	4	0	0	47	1	758	0	0	0	0
4	28	2	4	0	1	49	1	568	0	0	0	0
4	28	2	4	0	0	49	1	770	0	0	0	0
4	28	2	4	0	1	47	1	433	0	0	0	0
4	28	2	4	3	666	57	1	640	0	0	0	0
4	28	2	4	0	0	49	1	654	0	1	1	0
4	28	2	4	0	0	47	1	546	0	1	1	1
4	28	2	4	0	1	49	1	595	0	1	1	1
4	28	2	4	0	0	47	1	579	0	1	1	1
4	28	2	4	0	1	47	1	571	0	1	2	1
4	28	2	4	0	1	47	1	532	0	1	2	1
4	28	2	4	0	1	49	1	535	0	1	2	1
4	28	2	4	0	0	47	1	704	0	1	2	1
4	28	2	4	0	1	47	1	578	0	1	3	1
4	28	2	4	0	1	49	1	474	0	1	3	1
4	28	2	4	0	0	47	0	639	0	1	3	1
4	28	2	4	0	0	49	1	546	0	1	3	1
4	28	2	4	1	666	47	0	867	0	1	3	1
4	30	2	0	0	1	49	1	571	0	1	1	0
4	30	2	0	0	1	47	1	556	0	1	1	1
4	30	2	0	0	0	47	1	572	0	1	1	1
4	30	2	0	0	1	47	1	484	0	1	1	1
4	30	2	0	0	1	49	1	473	0	1	2	1
4	30	2	0	0	1	49	1	668	0	1	2	1
4	30	2	0	0	0	49	1	470	0	1	2	1
4	30	2	0	0	0	49	1	443	0	1	2	1
4	30	2	0	0	0	47	1	482	0	1	3	1
4	30	2	0	0	1	49	0	558	0	1	3	1
4	30	2	0	0	0	47	1	875	0	1	3	1
4	30	2	0	0	0	49	1	534	0	1	3	1
4	30	2	0	1	666	47	0	905	0	1	3	1
4	31	1	4	0	0	49	1	614	1	0	0	0
4	31	1	4	0	1	49	1	727	1	0	0	0
4	31	1	4	0	0	47	1	657	1	0	0	0
4	31	1	4	0	1	49	0	638	1	0	0	0
4	31	1	4	2	666	57	1	755	1	0	0	0
4	31	1	4	0	1	47	1	660	1	1	1	0
4	31	1	4	0	0	47	1	650	1	1	1	1
4	31	1	4	0	0	49	1	560	1	1	1	1
4	31	1	4	0	1	47	1	683	1	1	1	1
4	31	1	4	0	0	49	1	590	1	1	2	1
4	31	1	4	0	1	47	1	727	1	1	2	1
4	31	1	4	0	0	47	1	631	1	1	2	1
4	31	1	4	0	1	49	1	701	1	1	2	1
4	31	1	4	0	0	49	1	784	1	1	3	1
4	31	1	4	0	1	49	1	529	1	1	3	1
4	31	1	4	0	1	49	1	522	1	1	3	1
4	31	1	4	0	0	47	1	485	1	1	3	1
4	32	0	4	0	1	47	1	758	1	0	0	0
4	32	0	4	0	1	49	1	591	1	0	0	0
4	32	0	4	0	0	49	1	647	1	0	0	0
4	32	0	4	0	0	47	1	739	1	0	0	0
4	32	0	4	1	666	49	1	813	1	0	0	0
4	32	0	4	0	0	47	1	668	1	1	1	0
4	32	0	4	0	0	49	1	527	1	1	1	1
4	32	0	4	0	0	49	1	507	1	1	1	1
4	32	0	4	0	1	47	1	606	1	1	1	1
4	32	0	4	0	1	49	1	637	1	1	2	1
4	32	0	4	0	0	47	1	656	1	1	2	1
4	32	0	4	0	0	49	1	590	1	1	2	1
4	32	0	4	0	1	47	1	437	1	1	2	1
4	32	0	4	0	1	49	1	468	1	1	3	1
4	32	0	4	0	0	47	1	575	1	1	3	1
4	32	0	4	0	1	47	1	472	1	1	3	1
4	32	0	4	0	1	49	1	485	1	1	3	1
4	33	1	0	2	666	57	1	877	1	1	1	0
4	33	1	0	0	0	47	1	610	1	1	1	0
4	33	1	0	0	1	49	1	661	1	1	1	1
4	33	1	0	0	0	49	1	594	1	1	1	1
4	33	1	0	0	1	47	1	562	1	1	1	1
4	33	1	0	0	0	49	1	715	1	1	2	1
4	33	1	0	0	1	49	1	557	1	1	2	1
4	33	1	0	0	1	49	1	446	1	1	2	1
4	33	1	0	0	1	47	1	644	1	1	2	1
4	33	1	0	0	0	49	1	551	1	1	3	1
4	33	1	0	0	1	47	1	536	1	1	3	1
4	33	1	0	0	0	47	1	523	1	1	3	1
4	33	1	0	0	0	49	0	461	1	1	3	1
4	34	0	0	1	666	49	1	791	1	1	1	0
4	34	0	0	0	0	47	1	631	1	1	1	0
4	34	0	0	0	0	49	1	504	1	1	1	1
4	34	0	0	0	1	49	1	763	1	1	1	1
4	34	0	0	0	1	49	1	492	1	1	1	1
4	34	0	0	0	0	49	1	751	1	1	2	1
4	34	0	0	0	0	47	1	489	1	1	2	1
4	34	0	0	0	1	49	0	540	1	1	2	1
4	34	0	0	0	1	47	1	830	1	1	2	1
4	34	0	0	0	0	49	0	1023	1	1	3	1
4	34	0	0	0	1	47	0	558	1	1	3	1
4	34	0	0	0	1	47	1	718	1	1	3	1
4	34	0	0	0	0	49	1	694	1	1	3	1
4	35	2	4	0	1	49	1	711	0	0	0	0
4	35	2	4	0	1	47	1	697	0	0	0	0
4	35	2	4	0	0	47	1	910	0	0	0	0
4	35	2	4	0	0	49	1	456	0	0	0	0
4	35	2	4	3	666	57	1	709	0	0	0	0
4	35	2	4	0	0	47	1	705	0	1	1	0
4	35	2	4	0	0	49	1	860	0	1	1	1
4	35	2	4	0	0	47	1	616	0	1	1	1
4	35	2	4	0	0	47	1	760	0	1	1	1
4	35	2	4	0	1	49	1	657	0	1	2	1
4	35	2	4	0	0	49	1	661	0	1	2	1
4	35	2	4	0	1	47	1	619	0	1	2	1
4	35	2	4	0	1	49	1	528	0	1	2	1
4	35	2	4	0	1	47	1	507	0	1	3	1
4	35	2	4	0	0	47	0	493	0	1	3	1
4	35	2	4	0	1	47	1	471	0	1	3	1
4	35	2	4	0	1	49	1	500	0	1	3	1
4	35	2	4	1	666	49	0	855	0	1	3	1
4	37	0	4	0	1	49	1	832	0	0	0	0
4	37	0	4	0	1	47	1	551	0	0	0	0
4	37	0	4	0	0	49	1	742	0	0	0	0
4	37	0	4	0	0	47	1	544	0	0	0	0
4	37	0	4	1	666	47	0	802	0	0	0	0
4	37	0	4	0	1	49	1	951	0	1	1	0
4	37	0	4	0	0	49	1	640	0	1	1	1
4	37	0	4	0	1	47	1	679	0	1	1	1
4	37	0	4	0	0	47	1	835	0	1	1	1
4	37	0	4	0	0	47	1	571	0	1	2	1
4	37	0	4	0	0	47	0	524	0	1	2	1
4	37	0	4	0	1	49	1	885	0	1	2	1
4	37	0	4	0	0	47	1	621	0	1	2	1
4	37	0	4	0	1	49	1	797	0	1	3	1
4	37	0	4	0	1	47	1	740	0	1	3	1
4	37	0	4	0	1	47	1	726	0	1	3	1
4	37	0	4	0	0	49	1	504	0	1	3	1
4	38	1	0	2	666	57	1	747	1	1	1	0
4	38	1	0	0	0	49	1	590	1	1	1	0
4	38	1	0	0	0	47	1	406	1	1	1	1
4	38	1	0	0	1	49	1	702	1	1	1	1
4	38	1	0	0	0	49	1	606	1	1	1	1
4	38	1	0	0	1	47	1	645	1	1	2	1
4	38	1	0	0	0	47	1	731	1	1	2	1
4	38	1	0	0	1	47	1	821	1	1	2	1
4	38	1	0	0	1	47	1	555	1	1	2	1
4	38	1	0	0	1	49	1	628	1	1	3	1
4	38	1	0	0	0	49	1	539	1	1	3	1
4	38	1	0	0	1	49	1	725	1	1	3	1
4	38	1	0	0	0	47	1	920	1	1	3	1
4	39	2	0	0	1	49	1	620	0	1	1	0
4	39	2	0	0	0	49	1	763	0	1	1	1
4	39	2	0	0	1	47	1	909	0	1	1	1
4	39	2	0	0	1	47	1	456	0	1	1	1
4	39	2	0	0	1	49	1	494	0	1	2	1
4	39	2	0	0	1	49	1	457	0	1	2	1
4	39	2	0	0	0	49	1	469	0	1	2	1
4	39	2	0	0	1	49	0	690	0	1	2	1
4	39	2	0	0	0	47	1	629	0	1	3	1
4	39	2	0	0	0	49	1	606	0	1	3	1
4	39	2	0	0	0	47	1	422	0	1	3	1
4	39	2	0	0	0	47	1	461	0	1	3	1
4	39	2	0	1	666	47	0	522	0	1	3	1
4	40	1	4	0	1	0	0	1250	1	0	0	0
4	40	1	4	0	0	49	1	589	1	0	0	0
4	40	1	4	0	0	47	1	445	1	0	0	0
4	40	1	4	0	1	49	1	610	1	0	0	0
4	40	1	4	2	666	57	1	746	1	0	0	0
4	40	1	4	0	1	47	1	790	1	1	1	0
4	40	1	4	0	1	49	1	559	1	1	1	1
4	40	1	4	0	1	49	1	1000	1	1	1	1
4	40	1	4	0	1	47	1	495	1	1	1	1
4	40	1	4	0	0	49	1	644	1	1	2	1
4	40	1	4	0	0	49	1	721	1	1	2	1
4	40	1	4	0	0	47	1	649	1	1	2	1
4	40	1	4	0	0	47	1	551	1	1	2	1
4	40	1	4	0	0	47	1	457	1	1	3	1
4	40	1	4	0	1	47	1	549	1	1	3	1
4	40	1	4	0	1	49	1	485	1	1	3	1
4	40	1	4	0	0	49	1	530	1	1	3	1
4	41	2	4	0	1	49	1	629	1	0	0	0
4	41	2	4	0	1	47	1	509	1	0	0	0
4	41	2	4	0	0	47	1	495	1	0	0	0
4	41	2	4	0	0	49	1	550	1	0	0	0
4	41	2	4	3	666	57	1	566	1	0	0	0
4	41	2	4	0	1	49	1	664	1	1	1	0
4	41	2	4	0	1	49	1	514	1	1	1	1
4	41	2	4	0	0	49	1	526	1	1	1	1
4	41	2	4	0	0	47	1	737	1	1	1	1
4	41	2	4	0	1	47	1	675	1	1	2	1
4	41	2	4	0	1	47	1	580	1	1	2	1
4	41	2	4	0	0	47	1	532	1	1	2	1
4	41	2	4	0	1	47	1	503	1	1	2	1
4	41	2	4	0	0	49	1	466	1	1	3	1
4	41	2	4	0	1	47	0	580	1	1	3	1
4	41	2	4	0	0	49	1	556	1	1	3	1
4	41	2	4	0	0	47	1	685	1	1	3	1
4	41	2	4	1	666	49	1	818	1	1	3	1
4	42	0	0	1	666	0	0	1250	0	1	1	0
4	42	0	0	0	0	47	1	1030	0	1	1	0
4	42	0	0	0	1	47	1	526	0	1	1	1
4	42	0	0	0	0	49	1	616	0	1	1	1
4	42	0	0	0	0	49	1	438	0	1	1	1
4	42	0	0	0	0	49	1	444	0	1	2	1
4	42	0	0	0	0	47	1	379	0	1	2	1
4	42	0	0	0	1	47	0	411	0	1	2	1
4	42	0	0	0	1	49	1	531	0	1	2	1
4	42	0	0	0	0	47	1	622	0	1	3	1
4	42	0	0	0	1	47	1	541	0	1	3	1
4	42	0	0	0	1	49	1	560	0	1	3	1
4	42	0	0	0	1	47	1	522	0	1	3	1
4	44	2	4	0	0	49	1	682	1	0	0	0
4	44	2	4	0	1	49	1	437	1	0	0	0
4	44	2	4	0	1	47	1	460	1	0	0	0
4	44	2	4	0	0	49	0	465	1	0	0	0
4	44	2	4	3	666	57	1	699	1	0	0	0
4	44	2	4	0	1	49	1	495	1	1	1	0
4	44	2	4	0	0	49	0	428	1	1	1	1
4	44	2	4	0	1	47	1	616	1	1	1	1
4	44	2	4	0	1	49	1	535	1	1	1	1
4	44	2	4	0	0	49	1	506	1	1	2	1
4	44	2	4	0	1	47	1	605	1	1	2	1
4	44	2	4	0	0	49	0	479	1	1	2	1
4	44	2	4	0	0	49	1	763	1	1	2	1
4	44	2	4	0	1	47	1	612	1	1	3	1
4	44	2	4	0	0	49	1	532	1	1	3	1
4	44	2	4	0	1	49	1	616	1	1	3	1
4	44	2	4	0	0	47	1	479	1	1	3	1
4	44	2	4	1	666	47	1	644	1	1	3	1
4	45	0	4	0	1	47	1	1033	1	0	0	0
4	45	0	4	0	0	47	1	690	1	0	0	0
4	45	0	4	0	1	49	1	652	1	0	0	0
4	45	0	4	0	0	49	1	578	1	0	0	0
4	45	0	4	1	666	49	1	747	1	0	0	0
4	45	0	4	0	0	47	1	628	1	1	1	0
4	45	0	4	0	0	47	1	466	1	1	1	1
4	45	0	4	0	1	49	1	576	1	1	1	1
4	45	0	4	0	0	47	1	592	1	1	1	1
4	45	0	4	0	1	49	1	574	1	1	2	1
4	45	0	4	0	0	49	1	558	1	1	2	1
4	45	0	4	0	0	49	1	680	1	1	2	1
4	45	0	4	0	1	47	1	571	1	1	2	1
4	45	0	4	0	1	47	1	514	1	1	3	1
4	45	0	4	0	1	49	1	526	1	1	3	1
4	45	0	4	0	1	47	1	560	1	1	3	1
4	45	0	4	0	0	47	0	528	1	1	3	1
4	46	0	0	1	666	47	1	1053	1	1	1	0
4	46	0	0	0	1	47	1	953	1	1	1	0
4	46	0	0	0	1	47	1	521	1	1	1	1
4	46	0	0	0	1	49	1	531	1	1	1	1
4	46	0	0	0	0	49	1	573	1	1	1	1
4	46	0	0	0	0	49	1	494	1	1	2	1
4	46	0	0	0	0	47	1	603	1	1	2	1
4	46	0	0	0	1	49	1	633	1	1	2	1
4	46	0	0	0	0	47	1	797	1	1	2	1
4	46	0	0	0	0	49	1	453	1	1	3	1
4	46	0	0	0	1	47	1	610	1	1	3	1
4	46	0	0	0	0	47	1	576	1	1	3	1
4	46	0	0	0	1	49	1	576	1	1	3	1
4	47	1	0	2	666	57	1	687	1	1	1	0
4	47	1	0	0	1	49	1	627	1	1	1	0
4	47	1	0	0	1	49	1	522	1	1	1	1
4	47	1	0	0	0	49	1	524	1	1	1	1
4	47	1	0	0	1	49	0	460	1	1	1	1
4	47	1	0	0	0	49	1	512	1	1	2	1
4	47	1	0	0	1	47	1	620	1	1	2	1
4	47	1	0	0	0	47	1	493	1	1	2	1
4	47	1	0	0	1	47	1	936	1	1	2	1
4	47	1	0	0	0	47	1	627	1	1	3	1
4	47	1	0	0	0	49	1	520	1	1	3	1
4	47	1	0	0	1	49	1	505	1	1	3	1
4	47	1	0	0	0	47	1	645	1	1	3	1
4	48	1	4	0	0	49	1	756	1	0	0	0
4	48	1	4	0	0	47	1	693	1	0	0	0
4	48	1	4	0	1	49	1	586	1	0	0	0
4	48	1	4	0	1	47	1	648	1	0	0	0
4	48	1	4	2	666	57	1	710	1	0	0	0
4	48	1	4	0	1	47	1	649	1	1	1	0
4	48	1	4	0	0	47	1	831	1	1	1	1
4	48	1	4	0	1	47	1	588	1	1	1	1
4	48	1	4	0	0	47	1	707	1	1	1	1
4	48	1	4	0	1	49	1	438	1	1	2	1
4	48	1	4	0	0	49	1	652	1	1	2	1
4	48	1	4	0	1	49	1	560	1	1	2	1
4	48	1	4	0	0	47	1	594	1	1	2	1
4	48	1	4	0	0	49	1	659	1	1	3	1
4	48	1	4	0	1	47	1	597	1	1	3	1
4	48	1	4	0	1	49	1	668	1	1	3	1
4	48	1	4	0	0	49	1	682	1	1	3	1
4	49	2	0	0	0	49	1	745	1	1	1	0
4	49	2	0	0	1	49	1	619	1	1	1	1
4	49	2	0	0	1	49	1	666	1	1	1	1
4	49	2	0	0	1	47	1	711	1	1	1	1
4	49	2	0	0	0	49	1	585	1	1	2	1
4	49	2	0	0	1	47	1	714	1	1	2	1
4	49	2	0	0	0	47	1	677	1	1	2	1
4	49	2	0	0	0	49	1	521	1	1	2	1
4	49	2	0	0	0	47	1	579	1	1	3	1
4	49	2	0	0	1	47	1	636	1	1	3	1
4	49	2	0	0	0	47	1	618	1	1	3	1
4	49	2	0	0	1	49	1	504	1	1	3	1
4	49	2	0	1	666	47	1	769	1	1	3	1
4	51	2	4	0	1	0	0	1250	1	0	0	0
4	51	2	4	0	1	49	1	440	1	0	0	0
4	51	2	4	0	0	49	1	909	1	0	0	0
4	51	2	4	0	0	47	1	644	1	0	0	0
4	51	2	4	3	666	57	1	689	1	0	0	0
4	51	2	4	0	0	47	1	702	1	1	1	0
4	51	2	4	0	1	47	1	545	1	1	1	1
4	51	2	4	0	1	49	1	499	1	1	1	1
4	51	2	4	0	0	47	1	622	1	1	1	1
4	51	2	4	0	1	47	0	558	1	1	2	1
4	51	2	4	0	0	47	1	652	1	1	2	1
4	51	2	4	0	0	49	1	768	1	1	2	1
4	51	2	4	0	1	49	1	561	1	1	2	1
4	51	2	4	0	0	49	1	589	1	1	3	1
4	51	2	4	0	0	49	1	573	1	1	3	1
4	51	2	4	0	1	47	1	606	1	1	3	1
4	51	2	4	0	1	47	1	645	1	1	3	1
4	51	2	4	1	666	47	1	850	1	1	3	1
4	52	0	0	1	666	0	0	1250	0	1	1	0
4	52	0	0	0	1	49	1	707	0	1	1	0
4	52	0	0	0	0	47	1	1037	0	1	1	1
4	52	0	0	0	1	49	1	672	0	1	1	1
4	52	0	0	0	1	49	1	644	0	1	1	1
4	52	0	0	0	1	47	1	723	0	1	2	1
4	52	0	0	0	0	47	1	685	0	1	2	1
4	52	0	0	0	0	47	1	735	0	1	2	1
4	52	0	0	0	0	49	1	681	0	1	2	1
4	52	0	0	0	0	49	1	509	0	1	3	1
4	52	0	0	0	0	47	0	599	0	1	3	1
4	52	0	0	0	1	47	1	686	0	1	3	1
4	52	0	0	0	1	47	1	770	0	1	3	1
4	53	2	0	0	1	49	1	808	1	1	1	0
4	53	2	0	0	1	47	1	617	1	1	1	1
4	53	2	0	0	1	49	1	647	1	1	1	1
4	53	2	0	0	0	49	1	509	1	1	1	1
4	53	2	0	0	1	47	1	669	1	1	2	1
4	53	2	0	0	0	47	1	810	1	1	2	1
4	53	2	0	0	1	47	1	569	1	1	2	1
4	53	2	0	0	0	49	1	643	1	1	2	1
4	53	2	0	0	0	49	1	606	1	1	3	1
4	53	2	0	0	0	47	1	645	1	1	3	1
4	53	2	0	0	0	47	1	780	1	1	3	1
4	53	2	0	0	1	47	0	593	1	1	3	1
4	53	2	0	1	666	49	1	1072	1	1	3	1
4	54	0	4	0	0	49	1	800	1	0	0	0
4	54	0	4	0	0	47	1	720	1	0	0	0
4	54	0	4	0	1	47	1	627	1	0	0	0
4	54	0	4	0	1	49	1	569	1	0	0	0
4	54	0	4	1	666	49	1	880	1	0	0	0
4	54	0	4	0	1	47	1	701	1	1	1	0
4	54	0	4	0	0	47	1	784	1	1	1	1
4	54	0	4	0	0	49	1	672	1	1	1	1
4	54	0	4	0	0	49	1	572	1	1	1	1
4	54	0	4	0	1	49	1	613	1	1	2	1
4	54	0	4	0	0	49	1	797	1	1	2	1
4	54	0	4	0	1	49	1	492	1	1	2	1
4	54	0	4	0	0	47	1	607	1	1	2	1
4	54	0	4	0	1	49	1	799	1	1	3	1
4	54	0	4	0	0	47	1	695	1	1	3	1
4	54	0	4	0	1	47	1	658	1	1	3	1
4	54	0	4	0	1	47	1	494	1	1	3	1
4	55	1	4	0	1	49	1	704	1	0	0	0
4	55	1	4	0	0	47	1	722	1	0	0	0
4	55	1	4	0	1	47	1	580	1	0	0	0
4	55	1	4	0	0	49	1	557	1	0	0	0
4	55	1	4	2	666	57	1	622	1	0	0	0
4	55	1	4	0	0	49	1	643	1	1	1	0
4	55	1	4	0	1	47	1	737	1	1	1	1
4	55	1	4	0	0	47	1	788	1	1	1	1
4	55	1	4	0	1	49	1	667	1	1	1	1
4	55	1	4	0	1	49	1	583	1	1	2	1
4	55	1	4	0	1	49	1	703	1	1	2	1
4	55	1	4	0	0	49	1	675	1	1	2	1
4	55	1	4	0	1	47	1	581	1	1	2	1
4	55	1	4	0	0	47	1	862	1	1	3	1
4	55	1	4	0	0	47	1	482	1	1	3	1
4	55	1	4	0	1	47	1	590	1	1	3	1
4	55	1	4	0	0	49	1	509	1	1	3	1
4	56	1	0	2	666	57	1	665	1	1	1	0
4	56	1	0	0	1	47	1	742	1	1	1	0
4	56	1	0	0	1	49	1	624	1	1	1	1
4	56	1	0	0	1	47	1	582	1	1	1	1
4	56	1	0	0	0	49	1	581	1	1	1	1
4	56	1	0	0	1	49	1	774	1	1	2	1
4	56	1	0	0	0	49	1	503	1	1	2	1
4	56	1	0	0	0	49	1	488	1	1	2	1
4	56	1	0	0	0	47	1	635	1	1	2	1
4	56	1	0	0	1	47	0	802	1	1	3	1
4	56	1	0	0	0	47	1	688	1	1	3	1
4	56	1	0	0	0	47	1	649	1	1	3	1
4	56	1	0	0	1	47	1	767	1	1	3	1
5	9	0	0	1	666	0	0	1250	0	1	1	0
5	9	0	0	0	1	0	0	1250	0	1	1	0
5	9	0	0	0	0	0	0	1250	0	1	1	1
5	9	0	0	0	1	0	0	1250	0	1	1	1
5	9	0	0	0	0	0	0	1250	0	1	1	1
5	9	0	0	0	1	0	0	1250	0	1	2	1
5	9	0	0	0	1	0	0	1250	0	1	2	1
5	9	0	0	0	0	0	0	1250	0	1	2	1
5	9	0	0	0	0	0	0	1250	0	1	2	1
5	9	0	0	0	0	0	0	1250	0	1	3	1
5	9	0	0	0	1	0	0	1250	0	1	3	1
5	9	0	0	0	0	0	0	1250	0	1	3	1
5	9	0	0	0	1	0	0	1250	0	1	3	1
5	10	1	4	0	0	0	0	1250	1	0	0	0
5	10	1	4	0	1	0	0	1250	1	0	0	0
5	10	1	4	0	1	0	0	1250	1	0	0	0
5	10	1	4	0	0	0	0	1250	1	0	0	0
5	10	1	4	2	666	57	1	666	1	0	0	0
5	10	1	4	0	1	0	0	1250	1	1	1	0
5	10	1	4	0	0	0	0	1250	1	1	1	1
5	10	1	4	0	1	0	0	1250	1	1	1	1
5	10	1	4	0	1	0	0	1250	1	1	1	1
5	10	1	4	0	0	0	0	1250	1	1	2	1
5	10	1	4	0	0	0	0	1250	1	1	2	1
5	10	1	4	0	0	0	0	1250	1	1	2	1
5	10	1	4	0	0	0	0	1250	1	1	2	1
5	10	1	4	0	1	0	0	1250	1	1	3	1
5	10	1	4	0	1	0	0	1250	1	1	3	1
5	10	1	4	0	1	0	0	1250	1	1	3	1
5	10	1	4	0	0	0	0	1250	1	1	3	1
5	11	0	4	0	1	0	0	1250	0	0	0	0
5	11	0	4	0	1	0	0	1250	0	0	0	0
5	11	0	4	0	0	0	0	1250	0	0	0	0
5	11	0	4	0	0	0	0	1250	0	0	0	0
5	11	0	4	1	666	0	0	1250	0	0	0	0
5	11	0	4	0	0	0	0	1250	0	1	1	0
5	11	0	4	0	0	0	0	1250	0	1	1	1
5	11	0	4	0	1	0	0	1250	0	1	1	1
5	11	0	4	0	1	0	0	1250	0	1	1	1
5	11	0	4	0	0	0	0	1250	0	1	2	1
5	11	0	4	0	0	0	0	1250	0	1	2	1
5	11	0	4	0	1	0	0	1250	0	1	2	1
5	11	0	4	0	1	0	0	1250	0	1	2	1
5	11	0	4	0	0	0	0	1250	0	1	3	1
5	11	0	4	0	1	0	0	1250	0	1	3	1
5	11	0	4	0	1	0	0	1250	0	1	3	1
5	11	0	4	0	0	0	0	1250	0	1	3	1
5	12	2	4	0	0	0	0	1250	0	0	0	0
5	12	2	4	0	0	0	0	1250	0	0	0	0
5	12	2	4	0	1	0	0	1250	0	0	0	0
5	12	2	4	0	1	0	0	1250	0	0	0	0
5	12	2	4	3	666	57	1	638	0	0	0	0
5	12	2	4	0	1	0	0	1250	0	1	1	0
5	12	2	4	0	1	0	0	1250	0	1	1	1
5	12	2	4	0	1	0	0	1250	0	1	1	1
5	12	2	4	0	0	0	0	1250	0	1	1	1
5	12	2	4	0	0	0	0	1250	0	1	2	1
5	12	2	4	0	1	0	0	1250	0	1	2	1
5	12	2	4	0	1	0	0	1250	0	1	2	1
5	12	2	4	0	1	0	0	1250	0	1	2	1
5	12	2	4	0	0	0	0	1250	0	1	3	1
5	12	2	4	0	0	0	0	1250	0	1	3	1
5	12	2	4	0	0	0	0	1250	0	1	3	1
5	12	2	4	0	0	0	0	1250	0	1	3	1
5	12	2	4	1	666	0	0	1250	0	1	3	1
5	13	1	0	2	666	57	1	833	1	1	1	0
5	13	1	0	0	1	0	0	1250	1	1	1	0
5	13	1	0	0	0	0	0	1250	1	1	1	1
5	13	1	0	0	1	0	0	1250	1	1	1	1
5	13	1	0	0	0	0	0	1250	1	1	1	1
5	13	1	0	0	1	0	0	1250	1	1	2	1
5	13	1	0	0	0	0	0	1250	1	1	2	1
5	13	1	0	0	1	0	0	1250	1	1	2	1
5	13	1	0	0	1	0	0	1250	1	1	2	1
5	13	1	0	0	0	0	0	1250	1	1	3	1
5	13	1	0	0	0	0	0	1250	1	1	3	1
5	13	1	0	0	0	0	0	1250	1	1	3	1
5	13	1	0	0	1	0	0	1250	1	1	3	1
5	14	2	0	0	0	0	0	1250	0	1	1	0
5	14	2	0	0	1	0	0	1250	0	1	1	1
5	14	2	0	0	1	0	0	1250	0	1	1	1
5	14	2	0	0	1	0	0	1250	0	1	1	1
5	14	2	0	0	0	0	0	1250	0	1	2	1
5	14	2	0	0	1	0	0	1250	0	1	2	1
5	14	2	0	0	0	0	0	1250	0	1	2	1
5	14	2	0	0	0	0	0	1250	0	1	2	1
5	14	2	0	0	1	0	0	1250	0	1	3	1
5	14	2	0	0	1	0	0	1250	0	1	3	1
5	14	2	0	0	0	0	0	1250	0	1	3	1
5	14	2	0	0	0	0	0	1250	0	1	3	1
5	14	2	0	1	666	0	0	1250	0	1	3	1
5	16	0	0	1	666	49	1	585	1	1	1	0
5	16	0	0	0	1	49	0	847	1	1	1	0
5	16	0	0	0	0	47	1	691	1	1	1	1
5	16	0	0	0	0	49	1	562	1	1	1	1
5	16	0	0	0	0	47	1	461	1	1	1	1
5	16	0	0	0	1	49	0	504	1	1	2	1
5	16	0	0	0	1	47	0	434	1	1	2	1
5	16	0	0	0	0	47	1	657	1	1	2	1
5	16	0	0	0	0	0	0	1250	1	1	2	1
5	16	0	0	0	1	49	1	336	1	1	3	1
5	16	0	0	0	1	47	0	229	1	1	3	1
5	16	0	0	0	0	49	1	219	1	1	3	1
5	16	0	0	0	1	47	1	232	1	1	3	1
5	17	1	4	0	0	0	0	1250	1	0	0	0
5	17	1	4	0	1	47	0	593	1	0	0	0
5	17	1	4	0	0	47	1	591	1	0	0	0
5	17	1	4	0	1	49	0	372	1	0	0	0
5	17	1	4	2	666	57	1	940	1	0	0	0
5	17	1	4	0	0	47	1	456	1	1	1	0
5	17	1	4	0	1	47	0	420	1	1	1	1
5	17	1	4	0	0	47	1	449	1	1	1	1
5	17	1	4	0	1	47	0	563	1	1	1	1
5	17	1	4	0	1	49	0	581	1	1	2	1
5	17	1	4	0	1	49	0	405	1	1	2	1
5	17	1	4	0	1	47	0	531	1	1	2	1
5	17	1	4	0	0	47	1	548	1	1	2	1
5	17	1	4	0	0	49	1	409	1	1	3	1
5	17	1	4	0	1	49	0	530	1	1	3	1
5	17	1	4	0	0	49	1	530	1	1	3	1
5	17	1	4	0	0	49	1	467	1	1	3	1
5	18	1	0	2	666	57	1	729	1	1	1	0
5	18	1	0	0	0	47	1	560	1	1	1	0
5	18	1	0	0	0	49	1	425	1	1	1	1
5	18	1	0	0	1	47	0	498	1	1	1	1
5	18	1	0	0	1	47	0	531	1	1	1	1
5	18	1	0	0	1	47	0	427	1	1	2	1
5	18	1	0	0	0	47	1	404	1	1	2	1
5	18	1	0	0	1	49	0	371	1	1	2	1
5	18	1	0	0	0	47	1	783	1	1	2	1
5	18	1	0	0	1	49	0	345	1	1	3	1
5	18	1	0	0	0	49	1	642	1	1	3	1
5	18	1	0	0	1	49	0	700	1	1	3	1
5	18	1	0	0	0	49	1	474	1	1	3	1
5	19	2	0	0	0	47	1	529	1	1	1	0
5	19	2	0	0	0	47	1	465	1	1	1	1
5	19	2	0	0	1	49	0	392	1	1	1	1
5	19	2	0	0	0	49	1	369	1	1	1	1
5	19	2	0	0	1	47	0	603	1	1	2	1
5	19	2	0	0	0	49	1	785	1	1	2	1
5	19	2	0	0	0	49	1	505	1	1	2	1
5	19	2	0	0	0	47	1	531	1	1	2	1
5	19	2	0	0	1	47	0	565	1	1	3	1
5	19	2	0	0	1	47	0	487	1	1	3	1
5	19	2	0	0	1	49	0	556	1	1	3	1
5	19	2	0	0	1	49	0	444	1	1	3	1
5	19	2	0	1	666	49	1	667	1	1	3	1
5	20	0	4	0	1	47	0	567	1	0	0	0
5	20	0	4	0	0	49	1	610	1	0	0	0
5	20	0	4	0	0	47	1	450	1	0	0	0
5	20	0	4	0	1	49	0	394	1	0	0	0
5	20	0	4	1	666	49	1	997	1	0	0	0
5	20	0	4	0	0	49	1	640	1	1	1	0
5	20	0	4	0	1	47	0	469	1	1	1	1
5	20	0	4	0	1	49	0	396	1	1	1	1
5	20	0	4	0	1	49	0	495	1	1	1	1
5	20	0	4	0	1	47	0	552	1	1	2	1
5	20	0	4	0	0	49	1	469	1	1	2	1
5	20	0	4	0	0	47	1	411	1	1	2	1
5	20	0	4	0	1	49	0	393	1	1	2	1
5	20	0	4	0	0	47	1	319	1	1	3	1
5	20	0	4	0	1	47	0	480	1	1	3	1
5	20	0	4	0	0	49	1	473	1	1	3	1
5	20	0	4	0	0	47	1	461	1	1	3	1
5	21	2	4	0	1	47	0	412	1	0	0	0
5	21	2	4	0	1	49	0	454	1	0	0	0
5	21	2	4	0	0	47	0	454	1	0	0	0
5	21	2	4	0	0	47	1	379	1	0	0	0
5	21	2	4	3	666	57	1	1129	1	0	0	0
5	21	2	4	0	1	49	0	739	1	1	1	0
5	21	2	4	0	1	47	0	606	1	1	1	1
5	21	2	4	0	1	49	0	294	1	1	1	1
5	21	2	4	0	0	49	1	719	1	1	1	1
5	21	2	4	0	1	47	0	440	1	1	2	1
5	21	2	4	0	0	49	1	383	1	1	2	1
5	21	2	4	0	1	47	0	388	1	1	2	1
5	21	2	4	0	0	47	1	936	1	1	2	1
5	21	2	4	0	1	49	0	525	1	1	3	1
5	21	2	4	0	0	47	1	491	1	1	3	1
5	21	2	4	0	0	49	1	400	1	1	3	1
5	21	2	4	0	0	47	1	577	1	1	3	1
5	21	2	4	1	666	49	1	554	1	1	3	1
5	23	0	4	0	1	47	0	459	1	0	0	0
5	23	0	4	0	0	49	1	342	1	0	0	0
5	23	0	4	0	0	47	1	424	1	0	0	0
5	23	0	4	0	1	49	0	405	1	0	0	0
5	23	0	4	1	666	47	1	533	1	0	0	0
5	23	0	4	0	1	47	0	780	1	1	1	0
5	23	0	4	0	0	47	1	650	1	1	1	1
5	23	0	4	0	1	49	0	750	1	1	1	1
5	23	0	4	0	1	47	0	479	1	1	1	1
5	23	0	4	0	0	47	1	509	1	1	2	1
5	23	0	4	0	0	49	1	388	1	1	2	1
5	23	0	4	0	0	49	1	419	1	1	2	1
5	23	0	4	0	0	49	1	418	1	1	2	1
5	23	0	4	0	1	49	0	418	1	1	3	1
5	23	0	4	0	1	47	0	437	1	1	3	1
5	23	0	4	0	1	49	0	434	1	1	3	1
5	23	0	4	0	0	47	1	414	1	1	3	1
5	24	1	4	0	1	49	0	507	1	0	0	0
5	24	1	4	0	0	49	1	461	1	0	0	0
5	24	1	4	0	1	47	0	393	1	0	0	0
5	24	1	4	0	0	47	1	483	1	0	0	0
5	24	1	4	2	666	57	1	869	1	0	0	0
5	24	1	4	0	1	47	0	415	1	1	1	0
5	24	1	4	0	1	49	0	365	1	1	1	1
5	24	1	4	0	0	49	1	428	1	1	1	1
5	24	1	4	0	0	49	1	478	1	1	1	1
5	24	1	4	0	0	47	1	542	1	1	2	1
5	24	1	4	0	1	49	0	523	1	1	2	1
5	24	1	4	0	1	0	0	1250	1	1	2	1
5	24	1	4	0	1	47	0	478	1	1	2	1
5	24	1	4	0	0	49	1	874	1	1	3	1
5	24	1	4	0	0	47	1	454	1	1	3	1
5	24	1	4	0	1	49	0	580	1	1	3	1
5	24	1	4	0	0	47	1	314	1	1	3	1
5	25	2	0	0	1	49	0	533	1	1	1	0
5	25	2	0	0	1	47	0	451	1	1	1	1
5	25	2	0	0	1	49	0	636	1	1	1	1
5	25	2	0	0	0	47	0	405	1	1	1	1
5	25	2	0	0	1	47	0	411	1	1	2	1
5	25	2	0	0	1	47	0	582	1	1	2	1
5	25	2	0	0	1	49	0	408	1	1	2	1
5	25	2	0	0	0	47	1	429	1	1	2	1
5	25	2	0	0	0	49	1	423	1	1	3	1
5	25	2	0	0	0	47	1	426	1	1	3	1
5	25	2	0	0	0	49	1	407	1	1	3	1
5	25	2	0	0	0	47	1	363	1	1	3	1
5	25	2	0	1	666	49	1	570	1	1	3	1
5	26	2	4	0	0	49	1	589	1	0	0	0
5	26	2	4	0	1	47	0	363	1	0	0	0
5	26	2	4	0	0	47	1	444	1	0	0	0
5	26	2	4	0	1	49	0	520	1	0	0	0
5	26	2	4	3	666	57	1	851	1	0	0	0
5	26	2	4	0	0	47	1	401	1	1	1	0
5	26	2	4	0	1	47	0	507	1	1	1	1
5	26	2	4	0	1	47	0	472	1	1	1	1
5	26	2	4	0	1	49	0	444	1	1	1	1
5	26	2	4	0	1	49	0	432	1	1	2	1
5	26	2	4	0	0	49	1	429	1	1	2	1
5	26	2	4	0	0	49	1	496	1	1	2	1
5	26	2	4	0	0	47	1	708	1	1	2	1
5	26	2	4	0	0	47	1	628	1	1	3	1
5	26	2	4	0	1	0	0	1250	1	1	3	1
5	26	2	4	0	1	49	0	644	1	1	3	1
5	26	2	4	0	0	47	0	438	1	1	3	1
5	26	2	4	1	666	47	1	475	1	1	3	1
5	27	0	0	1	666	47	1	697	1	1	1	0
5	27	0	0	0	0	47	1	586	1	1	1	0
5	27	0	0	0	0	47	1	495	1	1	1	1
5	27	0	0	0	0	47	1	452	1	1	1	1
5	27	0	0	0	1	47	0	468	1	1	1	1
5	27	0	0	0	1	47	0	403	1	1	2	1
5	27	0	0	0	0	49	1	577	1	1	2	1
5	27	0	0	0	1	49	0	365	1	1	2	1
5	27	0	0	0	1	49	0	438	1	1	2	1
5	27	0	0	0	0	49	1	383	1	1	3	1
5	27	0	0	0	1	49	0	498	1	1	3	1
5	27	0	0	0	1	47	0	495	1	1	3	1
5	27	0	0	0	0	49	1	385	1	1	3	1
5	28	1	0	2	666	57	1	753	1	1	1	0
5	28	1	0	0	0	49	1	451	1	1	1	0
5	28	1	0	0	0	49	1	455	1	1	1	1
5	28	1	0	0	1	47	0	477	1	1	1	1
5	28	1	0	0	0	47	1	529	1	1	1	1
5	28	1	0	0	1	47	0	446	1	1	2	1
5	28	1	0	0	1	47	0	409	1	1	2	1
5	28	1	0	0	1	49	0	452	1	1	2	1
5	28	1	0	0	0	47	1	433	1	1	2	1
5	28	1	0	0	0	49	1	446	1	1	3	1
5	28	1	0	0	1	49	0	493	1	1	3	1
5	28	1	0	0	1	49	0	581	1	1	3	1
5	28	1	0	0	0	47	1	457	1	1	3	1
5	30	0	4	0	1	49	0	688	1	0	0	0
5	30	0	4	0	1	47	0	551	1	0	0	0
5	30	0	4	0	0	47	1	579	1	0	0	0
5	30	0	4	0	0	49	1	459	1	0	0	0
5	30	0	4	1	666	47	1	465	1	0	0	0
5	30	0	4	0	1	47	0	587	1	1	1	0
5	30	0	4	0	1	47	0	548	1	1	1	1
5	30	0	4	0	0	47	1	380	1	1	1	1
5	30	0	4	0	1	49	0	409	1	1	1	1
5	30	0	4	0	0	47	1	446	1	1	2	1
5	30	0	4	0	0	49	1	366	1	1	2	1
5	30	0	4	0	0	49	1	524	1	1	2	1
5	30	0	4	0	1	47	0	711	1	1	2	1
5	30	0	4	0	0	49	1	390	1	1	3	1
5	30	0	4	0	1	49	0	536	1	1	3	1
5	30	0	4	0	1	49	0	394	1	1	3	1
5	30	0	4	0	0	47	1	521	1	1	3	1
5	31	1	4	0	0	49	1	699	1	0	0	0
5	31	1	4	0	0	47	1	361	1	0	0	0
5	31	1	4	0	1	47	0	475	1	0	0	0
5	31	1	4	0	1	49	0	338	1	0	0	0
5	31	1	4	2	666	57	1	842	1	0	0	0
5	31	1	4	0	0	49	1	575	1	1	1	0
5	31	1	4	0	1	47	0	402	1	1	1	1
5	31	1	4	0	1	49	1	385	1	1	1	1
5	31	1	4	0	0	49	1	571	1	1	1	1
5	31	1	4	0	1	49	0	566	1	1	2	1
5	31	1	4	0	1	47	0	378	1	1	2	1
5	31	1	4	0	0	49	1	326	1	1	2	1
5	31	1	4	0	1	47	1	475	1	1	2	1
5	31	1	4	0	1	47	1	849	1	1	3	1
5	31	1	4	0	0	0	0	1250	1	1	3	1
5	31	1	4	0	0	47	1	400	1	1	3	1
5	31	1	4	0	0	47	1	479	1	1	3	1
5	32	1	0	2	666	57	1	718	1	1	1	0
5	32	1	0	0	1	49	0	492	1	1	1	0
5	32	1	0	0	0	47	1	376	1	1	1	1
5	32	1	0	0	0	47	1	459	1	1	1	1
5	32	1	0	0	1	49	0	406	1	1	1	1
5	32	1	0	0	1	47	0	326	1	1	2	1
5	32	1	0	0	0	47	1	506	1	1	2	1
5	32	1	0	0	0	49	1	416	1	1	2	1
5	32	1	0	0	1	47	0	632	1	1	2	1
5	32	1	0	0	0	49	1	357	1	1	3	1
5	32	1	0	0	1	49	0	507	1	1	3	1
5	32	1	0	0	0	49	1	493	1	1	3	1
5	32	1	0	0	1	47	0	510	1	1	3	1
5	33	2	4	0	1	47	0	529	1	0	0	0
5	33	2	4	0	0	49	1	316	1	0	0	0
5	33	2	4	0	1	49	0	526	1	0	0	0
5	33	2	4	0	0	47	1	613	1	0	0	0
5	33	2	4	3	666	57	1	1049	1	0	0	0
5	33	2	4	0	1	47	0	866	1	1	1	0
5	33	2	4	0	0	49	1	478	1	1	1	1
5	33	2	4	0	1	49	0	534	1	1	1	1
5	33	2	4	0	1	47	0	336	1	1	1	1
5	33	2	4	0	1	47	0	369	1	1	2	1
5	33	2	4	0	1	49	0	490	1	1	2	1
5	33	2	4	0	0	47	1	366	1	1	2	1
5	33	2	4	0	0	49	1	370	1	1	2	1
5	33	2	4	0	0	47	1	594	1	1	3	1
5	33	2	4	0	0	47	1	551	1	1	3	1
5	33	2	4	0	1	49	0	430	1	1	3	1
5	33	2	4	0	0	49	1	1152	1	1	3	1
5	33	2	4	1	666	49	1	628	1	1	3	1
5	34	2	0	0	1	47	0	595	1	1	1	0
5	34	2	0	0	0	47	1	592	1	1	1	1
5	34	2	0	0	1	47	0	481	1	1	1	1
5	34	2	0	0	0	49	1	420	1	1	1	1
5	34	2	0	0	0	49	1	445	1	1	2	1
5	34	2	0	0	1	49	0	574	1	1	2	1
5	34	2	0	0	1	47	0	354	1	1	2	1
5	34	2	0	0	0	47	1	523	1	1	2	1
5	34	2	0	0	0	47	1	529	1	1	3	1
5	34	2	0	0	1	49	0	449	1	1	3	1
5	34	2	0	0	0	49	1	454	1	1	3	1
5	34	2	0	0	1	49	0	571	1	1	3	1
5	34	2	0	1	666	47	1	828	1	1	3	1
5	35	0	0	1	666	49	1	840	1	1	1	0
5	35	0	0	0	0	49	1	496	1	1	1	0
5	35	0	0	0	0	47	1	433	1	1	1	1
5	35	0	0	0	1	49	0	482	1	1	1	1
5	35	0	0	0	0	49	1	491	1	1	1	1
5	35	0	0	0	0	47	1	349	1	1	2	1
5	35	0	0	0	0	47	1	433	1	1	2	1
5	35	0	0	0	0	49	1	620	1	1	2	1
5	35	0	0	0	1	49	0	409	1	1	2	1
5	35	0	0	0	1	47	0	354	1	1	3	1
5	35	0	0	0	1	49	0	357	1	1	3	1
5	35	0	0	0	1	47	0	488	1	1	3	1
5	35	0	0	0	1	47	0	463	1	1	3	1
5	37	0	0	1	666	47	1	419	1	1	1	0
5	37	0	0	0	0	49	1	395	1	1	1	0
5	37	0	0	0	1	49	0	478	1	1	1	1
5	37	0	0	0	1	49	0	470	1	1	1	1
5	37	0	0	0	1	47	0	621	1	1	1	1
5	37	0	0	0	0	47	1	614	1	1	2	1
5	37	0	0	0	0	47	1	715	1	1	2	1
5	37	0	0	0	0	49	1	715	1	1	2	1
5	37	0	0	0	1	47	0	468	1	1	2	1
5	37	0	0	0	0	49	1	351	1	1	3	1
5	37	0	0	0	1	47	0	355	1	1	3	1
5	37	0	0	0	1	49	0	388	1	1	3	1
5	37	0	0	0	0	47	1	360	1	1	3	1
5	38	1	0	2	666	57	1	708	1	1	1	0
5	38	1	0	0	1	47	0	479	1	1	1	0
5	38	1	0	0	1	49	0	362	1	1	1	1
5	38	1	0	0	0	47	1	417	1	1	1	1
5	38	1	0	0	0	47	1	519	1	1	1	1
5	38	1	0	0	0	49	1	398	1	1	2	1
5	38	1	0	0	1	49	0	433	1	1	2	1
5	38	1	0	0	1	49	0	484	1	1	2	1
5	38	1	0	0	0	47	1	531	1	1	2	1
5	38	1	0	0	0	49	1	461	1	1	3	1
5	38	1	0	0	1	47	0	859	1	1	3	1
5	38	1	0	0	0	49	1	531	1	1	3	1
5	38	1	0	0	1	47	0	460	1	1	3	1
5	39	2	4	0	0	47	1	595	1	0	0	0
5	39	2	4	0	1	49	0	349	1	0	0	0
5	39	2	4	0	1	47	0	354	1	0	0	0
5	39	2	4	0	0	49	1	345	1	0	0	0
5	39	2	4	3	666	57	1	698	1	0	0	0
5	39	2	4	0	1	47	0	387	1	1	1	0
5	39	2	4	0	0	49	1	343	1	1	1	1
5	39	2	4	0	0	47	1	421	1	1	1	1
5	39	2	4	0	1	49	0	378	1	1	1	1
5	39	2	4	0	0	47	1	388	1	1	2	1
5	39	2	4	0	0	49	1	375	1	1	2	1
5	39	2	4	0	1	47	0	379	1	1	2	1
5	39	2	4	0	0	49	0	367	1	1	2	1
5	39	2	4	0	1	47	0	482	1	1	3	1
5	39	2	4	0	0	49	1	339	1	1	3	1
5	39	2	4	0	1	49	0	533	1	1	3	1
5	39	2	4	0	1	49	0	411	1	1	3	1
5	39	2	4	1	666	49	1	587	1	1	3	1
5	40	2	0	0	0	49	1	496	1	1	1	0
5	40	2	0	0	1	47	0	361	1	1	1	1
5	40	2	0	0	0	47	1	562	1	1	1	1
5	40	2	0	0	1	49	0	475	1	1	1	1
5	40	2	0	0	1	49	0	493	1	1	2	1
5	40	2	0	0	1	47	0	473	1	1	2	1
5	40	2	0	0	1	47	0	588	1	1	2	1
5	40	2	0	0	0	47	1	412	1	1	2	1
5	40	2	0	0	0	49	1	449	1	1	3	1
5	40	2	0	0	0	0	0	1250	1	1	3	1
5	40	2	0	0	0	47	1	582	1	1	3	1
5	40	2	0	0	1	47	1	666	1	1	3	1
5	40	2	0	1	666	49	1	1100	1	1	3	1
5	41	1	4	0	0	49	1	673	1	0	0	0
5	41	1	4	0	0	47	1	448	1	0	0	0
5	41	1	4	0	1	49	1	732	1	0	0	0
5	41	1	4	0	1	49	0	1003	1	0	0	0
5	41	1	4	2	666	57	1	1237	1	0	0	0
5	41	1	4	0	0	47	0	1191	1	1	1	0
5	41	1	4	0	1	47	0	487	1	1	1	1
5	41	1	4	0	0	47	1	498	1	1	1	1
5	41	1	4	0	0	49	1	385	1	1	1	1
5	41	1	4	0	1	47	1	686	1	1	2	1
5	41	1	4	0	0	47	1	1195	1	1	2	1
5	41	1	4	0	1	47	0	864	1	1	2	1
5	41	1	4	0	1	47	0	601	1	1	2	1
5	41	1	4	0	0	47	1	552	1	1	3	1
5	41	1	4	0	1	49	0	490	1	1	3	1
5	41	1	4	0	0	49	1	453	1	1	3	1
5	41	1	4	0	1	0	0	1250	1	1	3	1
5	42	0	4	0	1	47	0	699	1	0	0	0
5	42	0	4	0	1	49	0	404	1	0	0	0
5	42	0	4	0	0	47	1	446	1	0	0	0
5	42	0	4	0	0	49	1	378	1	0	0	0
5	42	0	4	1	666	49	1	600	1	0	0	0
5	42	0	4	0	0	49	1	626	1	1	1	0
5	42	0	4	0	1	47	0	381	1	1	1	1
5	42	0	4	0	1	49	0	351	1	1	1	1
5	42	0	4	0	0	47	1	388	1	1	1	1
5	42	0	4	0	1	49	0	347	1	1	2	1
5	42	0	4	0	0	47	1	392	1	1	2	1
5	42	0	4	0	1	47	0	544	1	1	2	1
5	42	0	4	0	1	49	0	471	1	1	2	1
5	42	0	4	0	1	47	0	383	1	1	3	1
5	42	0	4	0	0	49	1	645	1	1	3	1
5	42	0	4	0	0	49	1	559	1	1	3	1
5	42	0	4	0	0	47	1	361	1	1	3	1
5	44	1	4	0	0	49	1	554	1	0	0	0
5	44	1	4	0	1	49	0	476	1	0	0	0
5	44	1	4	0	1	47	0	370	1	0	0	0
5	44	1	4	0	0	47	1	530	1	0	0	0
5	44	1	4	2	666	57	1	802	1	0	0	0
5	44	1	4	0	1	49	0	612	1	1	1	0
5	44	1	4	0	0	49	1	560	1	1	1	1
5	44	1	4	0	0	47	1	455	1	1	1	1
5	44	1	4	0	0	47	1	489	1	1	1	1
5	44	1	4	0	1	49	0	369	1	1	2	1
5	44	1	4	0	1	47	0	318	1	1	2	1
5	44	1	4	0	1	47	0	538	1	1	2	1
5	44	1	4	0	1	49	0	370	1	1	2	1
5	44	1	4	0	0	47	1	317	1	1	3	1
5	44	1	4	0	0	49	1	370	1	1	3	1
5	44	1	4	0	1	47	0	255	1	1	3	1
5	44	1	4	0	0	49	1	375	1	1	3	1
5	45	2	0	0	0	47	1	518	1	1	1	0
5	45	2	0	0	0	47	1	573	1	1	1	1
5	45	2	0	0	1	47	0	519	1	1	1	1
5	45	2	0	0	1	49	0	365	1	1	1	1
5	45	2	0	0	0	47	1	459	1	1	2	1
5	45	2	0	0	0	49	1	388	1	1	2	1
5	45	2	0	0	1	47	0	341	1	1	2	1
5	45	2	0	0	1	49	0	331	1	1	2	1
5	45	2	0	0	0	49	1	671	1	1	3	1
5	45	2	0	0	0	49	1	584	1	1	3	1
5	45	2	0	0	1	49	0	523	1	1	3	1
5	45	2	0	0	1	47	0	383	1	1	3	1
5	45	2	0	1	666	47	1	690	1	1	3	1
5	46	2	4	0	1	49	0	553	1	0	0	0
5	46	2	4	0	0	49	1	705	1	0	0	0
5	46	2	4	0	1	47	0	346	1	0	0	0
5	46	2	4	0	0	47	1	400	1	0	0	0
5	46	2	4	3	666	57	1	852	1	0	0	0
5	46	2	4	0	0	47	1	556	1	1	1	0
5	46	2	4	0	0	49	1	460	1	1	1	1
5	46	2	4	0	1	47	0	511	1	1	1	1
5	46	2	4	0	1	49	0	346	1	1	1	1
5	46	2	4	0	1	47	0	366	1	1	2	1
5	46	2	4	0	1	47	0	766	1	1	2	1
5	46	2	4	0	0	47	1	616	1	1	2	1
5	46	2	4	0	0	49	1	443	1	1	2	1
5	46	2	4	0	0	47	1	454	1	1	3	1
5	46	2	4	0	1	49	0	399	1	1	3	1
5	46	2	4	0	1	47	1	847	1	1	3	1
5	46	2	4	0	0	49	1	1208	1	1	3	1
5	46	2	4	1	666	47	1	516	1	1	3	1
5	47	1	0	2	666	57	1	714	1	1	1	0
5	47	1	0	0	0	49	1	634	1	1	1	0
5	47	1	0	0	1	47	0	362	1	1	1	1
5	47	1	0	0	1	49	0	377	1	1	1	1
5	47	1	0	0	0	47	1	315	1	1	1	1
5	47	1	0	0	0	47	1	497	1	1	2	1
5	47	1	0	0	0	47	0	390	1	1	2	1
5	47	1	0	0	1	49	0	763	1	1	2	1
5	47	1	0	0	0	47	1	345	1	1	2	1
5	47	1	0	0	0	49	1	466	1	1	3	1
5	47	1	0	0	1	49	0	522	1	1	3	1
5	47	1	0	0	1	47	0	319	1	1	3	1
5	47	1	0	0	1	47	0	484	1	1	3	1
5	48	0	0	1	666	49	1	749	1	1	1	0
5	48	0	0	0	1	49	0	487	1	1	1	0
5	48	0	0	0	0	49	1	459	1	1	1	1
5	48	0	0	0	1	47	0	470	1	1	1	1
5	48	0	0	0	0	47	1	405	1	1	1	1
5	48	0	0	0	0	49	1	400	1	1	2	1
5	48	0	0	0	1	49	0	552	1	1	2	1
5	48	0	0	0	1	47	0	589	1	1	2	1
5	48	0	0	0	1	49	0	353	1	1	2	1
5	48	0	0	0	1	47	0	300	1	1	3	1
5	48	0	0	0	0	47	1	462	1	1	3	1
5	48	0	0	0	0	49	1	385	1	1	3	1
5	48	0	0	0	0	47	1	373	1	1	3	1
5	49	0	4	0	1	49	0	525	1	0	0	0
5	49	0	4	0	0	47	1	342	1	0	0	0
5	49	0	4	0	0	49	1	489	1	0	0	0
5	49	0	4	0	1	47	0	354	1	0	0	0
5	49	0	4	1	666	47	1	526	1	0	0	0
5	49	0	4	0	0	49	1	449	1	1	1	0
5	49	0	4	0	1	49	0	504	1	1	1	1
5	49	0	4	0	1	49	0	496	1	1	1	1
5	49	0	4	0	0	49	1	368	1	1	1	1
5	49	0	4	0	1	47	0	367	1	1	2	1
5	49	0	4	0	1	47	0	534	1	1	2	1
5	49	0	4	0	1	47	0	463	1	1	2	1
5	49	0	4	0	0	47	1	411	1	1	2	1
5	49	0	4	0	0	47	1	600	1	1	3	1
5	49	0	4	0	0	47	1	443	1	1	3	1
5	49	0	4	0	1	49	0	465	1	1	3	1
5	49	0	4	0	0	49	1	412	1	1	3	1
5	51	0	4	0	0	49	1	498	1	0	0	0
5	51	0	4	0	0	47	1	349	1	0	0	0
5	51	0	4	0	1	49	0	370	1	0	0	0
5	51	0	4	0	1	47	0	307	1	0	0	0
5	51	0	4	1	666	47	1	488	1	0	0	0
5	51	0	4	0	1	47	0	506	1	1	1	0
5	51	0	4	0	0	47	1	319	1	1	1	1
5	51	0	4	0	0	47	1	481	1	1	1	1
5	51	0	4	0	1	49	0	507	1	1	1	1
5	51	0	4	0	1	47	0	480	1	1	2	1
5	51	0	4	0	0	49	1	494	1	1	2	1
5	51	0	4	0	0	49	1	505	1	1	2	1
5	51	0	4	0	0	47	1	531	1	1	2	1
5	51	0	4	0	1	47	0	526	1	1	3	1
5	51	0	4	0	0	49	1	420	1	1	3	1
5	51	0	4	0	1	49	0	646	1	1	3	1
5	51	0	4	0	1	49	0	521	1	1	3	1
5	52	0	0	1	666	47	1	548	1	1	1	0
5	52	0	0	0	1	47	0	491	1	1	1	0
5	52	0	0	0	1	47	0	494	1	1	1	1
5	52	0	0	0	0	49	1	388	1	1	1	1
5	52	0	0	0	0	47	1	442	1	1	1	1
5	52	0	0	0	1	49	0	408	1	1	2	1
5	52	0	0	0	0	47	1	299	1	1	2	1
5	52	0	0	0	1	49	0	395	1	1	2	1
5	52	0	0	0	0	49	1	479	1	1	2	1
5	52	0	0	0	0	49	1	658	1	1	3	1
5	52	0	0	0	0	47	1	340	1	1	3	1
5	52	0	0	0	1	47	0	460	1	1	3	1
5	52	0	0	0	1	49	0	366	1	1	3	1
5	53	2	0	0	1	47	0	432	1	1	1	0
5	53	2	0	0	0	49	1	419	1	1	1	1
5	53	2	0	0	1	49	0	495	1	1	1	1
5	53	2	0	0	1	49	0	427	1	1	1	1
5	53	2	0	0	0	47	1	395	1	1	2	1
5	53	2	0	0	0	47	1	504	1	1	2	1
5	53	2	0	0	1	47	0	540	1	1	2	1
5	53	2	0	0	0	47	1	806	1	1	2	1
5	53	2	0	0	1	0	0	1250	1	1	3	1
5	53	2	0	0	1	49	0	457	1	1	3	1
5	53	2	0	0	0	49	1	460	1	1	3	1
5	53	2	0	0	0	49	1	528	1	1	3	1
5	53	2	0	1	666	49	1	558	1	1	3	1
5	54	1	0	2	666	57	1	759	1	1	1	0
5	54	1	0	0	1	47	0	488	1	1	1	0
5	54	1	0	0	1	49	0	315	1	1	1	1
5	54	1	0	0	0	47	1	328	1	1	1	1
5	54	1	0	0	1	47	0	554	1	1	1	1
5	54	1	0	0	1	49	0	474	1	1	2	1
5	54	1	0	0	0	49	1	516	1	1	2	1
5	54	1	0	0	0	47	1	617	1	1	2	1
5	54	1	0	0	1	47	0	603	1	1	2	1
5	54	1	0	0	0	49	1	509	1	1	3	1
5	54	1	0	0	0	49	1	728	1	1	3	1
5	54	1	0	0	1	49	0	631	1	1	3	1
5	54	1	0	0	0	47	1	379	1	1	3	1
5	55	1	4	0	1	47	0	383	1	0	0	0
5	55	1	4	0	1	49	0	357	1	0	0	0
5	55	1	4	0	0	49	1	567	1	0	0	0
5	55	1	4	0	0	47	1	760	1	0	0	0
5	55	1	4	2	666	57	1	857	1	0	0	0
5	55	1	4	0	0	49	1	1097	1	1	1	0
5	55	1	4	0	0	47	1	314	1	1	1	1
5	55	1	4	0	0	49	1	390	1	1	1	1
5	55	1	4	0	1	47	0	275	1	1	1	1
5	55	1	4	0	1	49	0	350	1	1	2	1
5	55	1	4	0	0	47	1	428	1	1	2	1
5	55	1	4	0	1	47	0	878	1	1	2	1
5	55	1	4	0	1	49	0	374	1	1	2	1
5	55	1	4	0	0	47	0	263	1	1	3	1
5	55	1	4	0	1	49	0	659	1	1	3	1
5	55	1	4	0	0	47	1	606	1	1	3	1
5	55	1	4	0	1	47	0	983	1	1	3	1
5	56	2	4	0	1	47	0	515	1	0	0	0
5	56	2	4	0	0	49	1	364	1	0	0	0
5	56	2	4	0	1	49	0	561	1	0	0	0
5	56	2	4	0	0	47	1	570	1	0	0	0
5	56	2	4	3	666	57	1	802	1	0	0	0
5	56	2	4	0	1	49	0	652	1	1	1	0
5	56	2	4	0	1	49	0	640	1	1	1	1
5	56	2	4	0	1	47	0	499	1	1	1	1
5	56	2	4	0	1	47	0	560	1	1	1	1
5	56	2	4	0	0	49	1	552	1	1	2	1
5	56	2	4	0	1	49	0	460	1	1	2	1
5	56	2	4	0	0	49	1	484	1	1	2	1
5	56	2	4	0	0	47	1	402	1	1	2	1
5	56	2	4	0	1	47	0	497	1	1	3	1
5	56	2	4	0	0	49	1	341	1	1	3	1
5	56	2	4	0	0	47	1	384	1	1	3	1
5	56	2	4	0	0	47	1	573	1	1	3	1
5	56	2	4	1	666	47	1	639	1	1	3	1
6	9	0	4	0	1	49	1	553	1	0	0	0
6	9	0	4	0	0	47	1	464	1	0	0	0
6	9	0	4	0	1	47	1	565	1	0	0	0
6	9	0	4	0	0	49	1	498	1	0	0	0
6	9	0	4	1	666	47	1	777	1	0	0	0
6	9	0	4	0	1	49	1	594	1	1	1	0
6	9	0	4	0	1	47	1	514	1	1	1	1
6	9	0	4	0	0	47	1	461	1	1	1	1
6	9	0	4	0	1	47	1	477	1	1	1	1
6	9	0	4	0	0	47	1	485	1	1	2	1
6	9	0	4	0	1	47	1	708	1	1	2	1
6	9	0	4	0	0	49	1	481	1	1	2	1
6	9	0	4	0	1	49	1	615	1	1	2	1
6	9	0	4	0	1	49	1	452	1	1	3	1
6	9	0	4	0	0	49	1	516	1	1	3	1
6	9	0	4	0	0	47	1	590	1	1	3	1
6	9	0	4	0	0	49	1	515	1	1	3	1
6	10	2	4	0	0	49	1	720	1	0	0	0
6	10	2	4	0	1	49	1	498	1	0	0	0
6	10	2	4	0	1	47	1	696	1	0	0	0
6	10	2	4	0	0	47	1	440	1	0	0	0
6	10	2	4	3	666	57	1	754	1	0	0	0
6	10	2	4	0	1	49	1	687	1	1	1	0
6	10	2	4	0	1	49	1	493	1	1	1	1
6	10	2	4	0	0	49	1	521	1	1	1	1
6	10	2	4	0	0	47	1	599	1	1	1	1
6	10	2	4	0	0	49	1	747	1	1	2	1
6	10	2	4	0	1	47	1	594	1	1	2	1
6	10	2	4	0	1	47	1	541	1	1	2	1
6	10	2	4	0	0	47	1	583	1	1	2	1
6	10	2	4	0	0	47	1	480	1	1	3	1
6	10	2	4	0	0	49	1	640	1	1	3	1
6	10	2	4	0	1	49	1	459	1	1	3	1
6	10	2	4	0	1	47	1	502	1	1	3	1
6	10	2	4	1	666	49	1	838	1	1	3	1
6	11	1	4	0	0	47	1	719	1	0	0	0
6	11	1	4	0	1	49	1	399	1	0	0	0
6	11	1	4	0	1	47	1	514	1	0	0	0
6	11	1	4	0	0	49	1	1029	1	0	0	0
6	11	1	4	2	666	57	1	620	1	0	0	0
6	11	1	4	0	1	49	1	558	1	1	1	0
6	11	1	4	0	0	49	1	463	1	1	1	1
6	11	1	4	0	1	49	1	466	1	1	1	1
6	11	1	4	0	0	47	1	457	1	1	1	1
6	11	1	4	0	1	47	1	411	1	1	2	1
6	11	1	4	0	0	49	1	422	1	1	2	1
6	11	1	4	0	1	49	1	572	1	1	2	1
6	11	1	4	0	1	47	1	456	1	1	2	1
6	11	1	4	0	1	47	1	442	1	1	3	1
6	11	1	4	0	0	47	1	473	1	1	3	1
6	11	1	4	0	0	49	1	419	1	1	3	1
6	11	1	4	0	0	47	1	446	1	1	3	1
6	12	0	0	1	666	47	1	788	1	1	1	0
6	12	0	0	0	1	49	1	818	1	1	1	0
6	12	0	0	0	1	49	1	405	1	1	1	1
6	12	0	0	0	1	47	1	912	1	1	1	1
6	12	0	0	0	0	49	1	553	1	1	1	1
6	12	0	0	0	1	47	1	909	1	1	2	1
6	12	0	0	0	0	49	1	503	1	1	2	1
6	12	0	0	0	0	47	1	878	1	1	2	1
6	12	0	0	0	0	47	1	730	1	1	2	1
6	12	0	0	0	1	47	1	565	1	1	3	1
6	12	0	0	0	1	49	1	614	1	1	3	1
6	12	0	0	0	0	49	1	466	1	1	3	1
6	12	0	0	0	0	47	1	815	1	1	3	1
6	13	1	0	2	666	57	1	841	1	1	1	0
6	13	1	0	0	1	49	1	451	1	1	1	0
6	13	1	0	0	1	47	1	556	1	1	1	1
6	13	1	0	0	1	49	1	684	1	1	1	1
6	13	1	0	0	1	47	1	409	1	1	1	1
6	13	1	0	0	0	49	1	690	1	1	2	1
6	13	1	0	0	0	49	1	625	1	1	2	1
6	13	1	0	0	0	47	1	560	1	1	2	1
6	13	1	0	0	1	47	1	465	1	1	2	1
6	13	1	0	0	0	47	1	424	1	1	3	1
6	13	1	0	0	1	49	1	440	1	1	3	1
6	13	1	0	0	0	47	1	415	1	1	3	1
6	13	1	0	0	0	49	1	417	1	1	3	1
6	14	2	0	0	0	49	1	558	1	1	1	0
6	14	2	0	0	1	47	1	605	1	1	1	1
6	14	2	0	0	1	47	1	451	1	1	1	1
6	14	2	0	0	0	47	1	616	1	1	1	1
6	14	2	0	0	0	49	1	460	1	1	2	1
6	14	2	0	0	1	49	1	551	1	1	2	1
6	14	2	0	0	1	49	1	423	1	1	2	1
6	14	2	0	0	0	47	1	686	1	1	2	1
6	14	2	0	0	1	47	1	1190	1	1	3	1
6	14	2	0	0	0	49	1	453	1	1	3	1
6	14	2	0	0	1	49	1	578	1	1	3	1
6	14	2	0	0	0	47	1	550	1	1	3	1
6	14	2	0	1	666	47	1	700	1	1	3	1
6	16	0	4	0	1	49	1	582	1	0	0	0
6	16	0	4	0	0	49	1	478	1	0	0	0
6	16	0	4	0	0	47	1	581	1	0	0	0
6	16	0	4	0	1	47	1	685	1	0	0	0
6	16	0	4	1	666	49	1	889	1	0	0	0
6	16	0	4	0	0	49	1	585	1	1	1	0
6	16	0	4	0	1	47	1	592	1	1	1	1
6	16	0	4	0	1	49	1	558	1	1	1	1
6	16	0	4	0	0	49	1	603	1	1	1	1
6	16	0	4	0	0	47	1	737	1	1	2	1
6	16	0	4	0	1	49	1	579	1	1	2	1
6	16	0	4	0	0	47	1	473	1	1	2	1
6	16	0	4	0	0	47	1	630	1	1	2	1
6	16	0	4	0	0	49	1	404	1	1	3	1
6	16	0	4	0	1	49	1	542	1	1	3	1
6	16	0	4	0	1	47	1	485	1	1	3	1
6	16	0	4	0	1	47	1	462	1	1	3	1
6	17	2	0	0	0	49	1	563	1	1	1	0
6	17	2	0	0	1	49	1	478	1	1	1	1
6	17	2	0	0	0	49	1	466	1	1	1	1
6	17	2	0	0	1	47	1	541	1	1	1	1
6	17	2	0	0	0	47	1	468	1	1	2	1
6	17	2	0	0	1	49	1	595	1	1	2	1
6	17	2	0	0	0	49	1	483	1	1	2	1
6	17	2	0	0	0	47	1	686	1	1	2	1
6	17	2	0	0	1	49	1	556	1	1	3	1
6	17	2	0	0	1	47	1	727	1	1	3	1
6	17	2	0	0	0	47	1	590	1	1	3	1
6	17	2	0	0	1	47	1	725	1	1	3	1
6	17	2	0	1	666	47	1	785	1	1	3	1
6	18	1	4	0	0	49	1	603	1	0	0	0
6	18	1	4	0	1	47	1	543	1	0	0	0
6	18	1	4	0	1	49	1	510	1	0	0	0
6	18	1	4	0	0	47	1	453	1	0	0	0
6	18	1	4	2	666	57	1	910	1	0	0	0
6	18	1	4	0	0	47	1	535	1	1	1	0
6	18	1	4	0	1	47	1	424	1	1	1	1
6	18	1	4	0	0	49	1	400	1	1	1	1
