"value","trial_type","trial_index","time_elapsed","internal_node_id","id","width","height","webaudio","browser","browser_version","mobile","os","fullscreen","vsync_rate","webcam","microphone","view_history","rt","stimulus","trial_info","success","response","inducer_run","diagnostic_run","inducer_trial","italic","correct_diag_response_side","correct_response_key","correct_response","correct_inducer_response_side","congruent","accuracy","open_feedback","interactive"
"","call-function","0","1","0.0-0.0","2kvo513m","","","","","","","","","","","","","","","","","","","","","","","","","","","","",""
"","browser-check","1","367","0.0-1.0","2kvo513m","1606","809","true","opera","105.0.0","false","Windows 10","true","167.04","true","true","","","","","","","","","","","","","","","","","",""
"","instructions","2","55167","0.0-2.0","2kvo513m","","","","","","","","","","","","[{""page_index"":0,""viewing_time"":11117},{""page_index"":1,""viewing_time"":23766},{""page_index"":2,""viewing_time"":19916}]","54800","The experiment and consent","The experiment and consent","","","","","","","","","","","","","",""
"","fullscreen","3","68545","0.0-3.0","2kvo513m","2048","1152","","","","","","","","","","","12367","","Full screen","true","","","","","","","","","","","","",""
"","instructions","4","99179","0.0-4.0","2kvo513m","2048","1152","","","","","","","","","","[{""page_index"":0,""viewing_time"":22833},{""page_index"":1,""viewing_time"":7800}]","30633","Instructions","Basic overview explanation","","","","","","","","","","","","","",""
"","html-keyboard-response","5","112469","0.0-5.0","2kvo513m","2048","1152","","","","","","","","","","","11778","If italic press LEFT | If upright press RIGHT","Diagnostic instructions",""," ","","","","","","","","","","","",""
"","html-keyboard-response","6","113234","0.0-6.0","2kvo513m","2048","1152","","","","","","","","","","","null","+","Fixation - short","","null","","","","","","","","","","","",""
"","html-keyboard-response","7","113728","0.0-7.0","2kvo513m","2048","1152","","","","","","","","","","","494","crt","Practice diganostic trial","","f","practice","0","false","true","LEFT","f","1","","","","",""
"","html-keyboard-response","8","114483","0.0-10.0","2kvo513m","2048","1152","","","","","","","","","","","null","+","Fixation - short","","null","","","","","","","","","","","",""
"","html-keyboard-response","9","114866","0.0-11.0","2kvo513m","2048","1152","","","","","","","","","","","381","crt","Practice diganostic trial","","f","practice","1","false","true","LEFT","f","1","","","","",""
"","html-keyboard-response","10","115619","0.0-14.0","2kvo513m","2048","1152","","","","","","","","","","","null","+","Fixation - short","","null","","","","","","","","","","","",""
"","html-keyboard-response","11","115972","0.0-15.0","2kvo513m","2048","1152","","","","","","","","","","","352","s.r","Practice diganostic trial","","j","practice","2","false","true","LEFT","f","0","","","","",""
"","call-function","12","115973","0.0-17.0-0.0","2kvo513m","","","","","","","","","","","","","","","","","","","","","","","","","","","","",""
"","html-keyboard-response","13","116281","0.0-17.0-1.0","2kvo513m","2048","1152","","","","","","","","","","","null","Wrong","Feedback","","null","","","","","","","","","","","",""
"","call-function","14","116282","0.0-17.0-2.0","2kvo513m","","","","","","","","","","","","","","","","","","","","","","","","","","","","",""
"","html-keyboard-response","15","117042","0.0-18.0","2kvo513m","2048","1152","","","","","","","","","","","null","+","Fixation - short","","null","","","","","","","","","","","",""
"","html-keyboard-response","16","117364","0.0-19.0","2kvo513m","2048","1152","","","","","","","","","","","321","crt","Practice diganostic trial","","f","practice","3","false","true","LEFT","f","1","","","","",""
"","html-keyboard-response","17","118125","0.0-22.0","2kvo513m","2048","1152","","","","","","","","","","","null","+","Fixation - short","","null","","","","","","","","","","","",""
"","html-keyboard-response","18","118598","0.0-23.0","2kvo513m","2048","1152","","","","","","","","","","","472","s.r","Practice diganostic trial","","j","practice","4","false","false","RIGHT","j","1","","","","",""
"","html-keyboard-response","19","119350","0.0-26.0","2kvo513m","2048","1152","","","","","","","","","","","null","+","Fixation - short","","null","","","","","","","","","","","",""
"","html-keyboard-response","20","119780","0.0-27.0","2kvo513m","2048","1152","","","","","","","","","","","428","crt","Practice diganostic trial","","f","practice","5","false","false","RIGHT","j","0","","","","",""
"","call-function","21","119780","0.0-29.0-0.0","2kvo513m","","","","","","","","","","","","","","","","","","","","","","","","","","","","",""
"","html-keyboard-response","22","120089","0.0-29.0-1.0","2kvo513m","2048","1152","","","","","","","","","","","null","Wrong","Feedback","","null","","","","","","","","","","","",""
"","call-function","23","120090","0.0-29.0-2.0","2kvo513m","","","","","","","","","","","","","","","","","","","","","","","","","","","","",""
"","html-keyboard-response","24","120857","0.0-30.0","2kvo513m","2048","1152","","","","","","","","","","","null","+","Fixation - short","","null","","","","","","","","","","","",""
"","html-keyboard-response","25","121345","0.0-31.0","2kvo513m","2048","1152","","","","","","","","","","","488","s.r","Practice diganostic trial","","j","practice","6","false","false","RIGHT","j","1","","","","",""
"","html-keyboard-response","26","122097","0.0-34.0","2kvo513m","2048","1152","","","","","","","","","","","null","+","Fixation - short","","null","","","","","","","","","","","",""
"","html-keyboard-response","27","122404","0.0-35.0","2kvo513m","2048","1152","","","","","","","","","","","305","s.r","Practice diganostic trial","","j","practice","7","false","true","LEFT","f","0","","","","",""
"","call-function","28","122404","0.0-37.0-0.0","2kvo513m","","","","","","","","","","","","","","","","","","","","","","","","","","","","",""
"","html-keyboard-response","29","122714","0.0-37.0-1.0","2kvo513m","2048","1152","","","","","","","","","","","null","Wrong","Feedback","","null","","","","","","","","","","","",""
"","call-function","30","122715","0.0-37.0-2.0","2kvo513m","","","","","","","","","","","","","","","","","","","","","","","","","","","","",""
"","html-keyboard-response","31","123469","0.0-38.0","2kvo513m","2048","1152","","","","","","","","","","","null","+","Fixation - short","","null","","","","","","","","","","","",""
"","html-keyboard-response","32","123898","0.0-39.0","2kvo513m","2048","1152","","","","","","","","","","","428","crt","Practice diganostic trial","","f","practice","8","false","true","LEFT","f","1","","","","",""
"","html-keyboard-response","33","124663","0.0-42.0","2kvo513m","2048","1152","","","","","","","","","","","null","+","Fixation - short","","null","","","","","","","","","","","",""
"","html-keyboard-response","34","124976","0.0-43.0","2kvo513m","2048","1152","","","","","","","","","","","311","crt","Practice diganostic trial","","f","practice","9","false","false","RIGHT","j","0","","","","",""
"","call-function","35","124976","0.0-45.0-0.0","2kvo513m","","","","","","","","","","","","","","","","","","","","","","","","","","","","",""
"","html-keyboard-response","36","125290","0.0-45.0-1.0","2kvo513m","2048","1152","","","","","","","","","","","null","Wrong","Feedback","","null","","","","","","","","","","","",""
"","call-function","37","125292","0.0-45.0-2.0","2kvo513m","","","","","","","","","","","","","","","","","","","","","","","","","","","","",""
"","html-keyboard-response","38","126046","0.0-46.0","2kvo513m","2048","1152","","","","","","","","","","","null","+","Fixation - short","","null","","","","","","","","","","","",""
"","html-keyboard-response","39","126497","0.0-47.0","2kvo513m","2048","1152","","","","","","","","","","","450","crt","Practice diganostic trial","","f","practice","10","false","true","LEFT","f","1","","","","",""
"","html-keyboard-response","40","127256","0.0-50.0","2kvo513m","2048","1152","","","","","","","","","","","null","+","Fixation - short","","null","","","","","","","","","","","",""
"","html-keyboard-response","41","127559","0.0-51.0","2kvo513m","2048","1152","","","","","","","","","","","302","crt","Practice diganostic trial","","f","practice","11","false","false","RIGHT","j","0","","","","",""
"","call-function","42","127560","0.0-53.0-0.0","2kvo513m","","","","","","","","","","","","","","","","","","","","","","","","","","","","",""
"","html-keyboard-response","43","127872","0.0-53.0-1.0","2kvo513m","2048","1152","","","","","","","","","","","null","Wrong","Feedback","","null","","","","","","","","","","","",""
"","call-function","44","127872","0.0-53.0-2.0","2kvo513m","","","","","","","","","","","","","","","","","","","","","","","","","","","","",""
"","html-keyboard-response","45","128624","0.0-54.0","2kvo513m","2048","1152","","","","","","","","","","","null","+","Fixation - short","","null","","","","","","","","","","","",""
"","html-keyboard-response","46","129127","0.0-55.0","2kvo513m","2048","1152","","","","","","","","","","","502","s.r","Practice diganostic trial","","j","practice","12","false","false","RIGHT","j","1","","","","",""
"","html-keyboard-response","47","129892","0.0-58.0","2kvo513m","2048","1152","","","","","","","","","","","null","+","Fixation - short","","null","","","","","","","","","","","",""
"","html-keyboard-response","48","130265","0.0-59.0","2kvo513m","2048","1152","","","","","","","","","","","372","s.r","Practice diganostic trial","","j","practice","13","false","true","LEFT","f","0","","","","",""
"","call-function","49","130266","0.0-61.0-0.0","2kvo513m","","","","","","","","","","","","","","","","","","","","","","","","","","","","",""
"","html-keyboard-response","50","130581","0.0-61.0-1.0","2kvo513m","2048","1152","","","","","","","","","","","null","Wrong","Feedback","","null","","","","","","","","","","","",""
"","call-function","51","130582","0.0-61.0-2.0","2kvo513m","","","","","","","","","","","","","","","","","","","","","","","","","","","","",""
"","html-keyboard-response","52","131336","0.0-62.0","2kvo513m","2048","1152","","","","","","","","","","","null","+","Fixation - short","","null","","","","","","","","","","","",""
"","html-keyboard-response","53","131819","0.0-63.0","2kvo513m","2048","1152","","","","","","","","","","","482","s.r","Practice diganostic trial","","f","practice","14","false","false","RIGHT","j","0","","","","",""
"","call-function","54","131820","0.0-65.0-0.0","2kvo513m","","","","","","","","","","","","","","","","","","","","","","","","","","","","",""
"","html-keyboard-response","55","132122","0.0-65.0-1.0","2kvo513m","2048","1152","","","","","","","","","","","null","Wrong","Feedback","","null","","","","","","","","","","","",""
"","call-function","56","132123","0.0-65.0-2.0","2kvo513m","","","","","","","","","","","","","","","","","","","","","","","","","","","","",""
"","html-keyboard-response","57","132889","0.0-66.0","2kvo513m","2048","1152","","","","","","","","","","","null","+","Fixation - short","","null","","","","","","","","","","","",""
"","instructions","58","143602","0.0-67.0","2kvo513m","2048","1152","","","","","","","","","","[{""page_index"":0,""viewing_time"":10713}]","10713","Instructions","Final experiment explanation","","","","","","","","","","","","","",""
"","html-keyboard-response","59","152264","0.0-68.0","2kvo513m","2048","1152","","","","","","","","","","","7145","If eal press LEFT | If alh press RIGHT","Practice inducer instructions",""," ","practice","","","","","","","","","","",""
"","html-keyboard-response","60","152804","0.0-69.0","2kvo513m","2048","1152","","","","","","","","","","","538","eal","Practice inducer trial","","f","practice","","true","","","","1","","","","",""
"","html-keyboard-response","61","153569","0.0-72.0","2kvo513m","2048","1152","","","","","","","","","","","null","+","Fixation - short","","null","","","","","","","","","","","",""
"","html-keyboard-response","62","160325","0.0-73.0","2kvo513m","2048","1152","","","","","","","","","","","6754","If z28 press LEFT | If rch press RIGHT","Practice inducer instructions",""," ","practice","","","","","","","","","","",""
"","html-keyboard-response","63","160771","0.0-74.0","2kvo513m","2048","1152","","","","","","","","","","","444","z28","Practice inducer trial","","f","practice","","true","","","","1","","","","",""
"","html-keyboard-response","64","161530","0.0-77.0","2kvo513m","2048","1152","","","","","","","","","","","null","+","Fixation - short","","null","","","","","","","","","","","",""
"","html-keyboard-response","65","166814","0.0-78.0","2kvo513m","2048","1152","","","","","","","","","","","5283","If mhs press LEFT | If ysh press RIGHT","Practice inducer instructions",""," ","practice","","","","","","","","","","",""
"","html-keyboard-response","66","167305","0.0-79.0","2kvo513m","2048","1152","","","","","","","","","","","490","mhs","Practice inducer trial","","f","practice","","true","","","","1","","","","",""
"","html-keyboard-response","67","168068","0.0-82.0","2kvo513m","2048","1152","","","","","","","","","","","null","+","Fixation - short","","null","","","","","","","","","","","",""
"","html-keyboard-response","68","173907","0.0-83.0","2kvo513m","2048","1152","","","","","","","","","","","5839","If f47 press LEFT | If gwn press RIGHT","Practice inducer instructions",""," ","practice","","","","","","","","","","",""
"","html-keyboard-response","69","174339","0.0-84.0","2kvo513m","2048","1152","","","","","","","","","","","430","gwn","Practice inducer trial","","j","practice","","true","","","","1","","","","",""
"","html-keyboard-response","70","175095","0.0-87.0","2kvo513m","2048","1152","","","","","","","","","","","null","+","Fixation - short","","null","","","","","","","","","","","",""
"","html-keyboard-response","71","178987","0.0-88.0","2kvo513m","2048","1152","","","","","","","","","","","3891","End practice","End of practice",""," ","","","","","","","","","","","",""
"","html-keyboard-response","72","180495","0.0-89.0","2kvo513m","2048","1152","","","","","","","","","","","null","+","Fixation - long","","null","","","","","","","","","","","",""
"","html-keyboard-response","73","187628","0.0-90.0","2kvo513m","2048","1152","","","","","","","","","","","7131","If upv press LEFT | If f.w press RIGHT","Inducer instructions",""," ","0","","","","","","","","","","",""
"","html-keyboard-response","74","188385","0.0-91.0","2kvo513m","2048","1152","","","","","","","","","","","null","+","Fixation - short","","null","","","","","","","","","","","",""
"","html-keyboard-response","75","188773","0.0-92.0","2kvo513m","2048","1152","","","","","","","","","","","387","upv","Diagnostic trial","","f","0","0","false","true","LEFT","f","1","LEFT","true","","",""
"","html-keyboard-response","76","189537","0.0-95.0","2kvo513m","2048","1152","","","","","","","","","","","null","+","Fixation - short","","null","","","","","","","","","","","",""
"","html-keyboard-response","77","189887","0.0-96.0","2kvo513m","2048","1152","","","","","","","","","","","349","upv","Diagnostic trial","","f","0","1","false","true","LEFT","f","1","LEFT","true","","",""
"","html-keyboard-response","78","190641","0.0-99.0","2kvo513m","2048","1152","","","","","","","","","","","null","+","Fixation - short","","null","","","","","","","","","","","",""
"","html-keyboard-response","79","190941","0.0-100.0","2kvo513m","2048","1152","","","","","","","","","","","298","upv","Diagnostic trial","","f","0","2","false","false","RIGHT","j","0","LEFT","false","","",""
"","call-function","80","190941","0.0-102.0-0.0","2kvo513m","","","","","","","","","","","","","","","","","","","","","","","","","","","","",""
"","html-keyboard-response","81","191256","0.0-102.0-1.0","2kvo513m","2048","1152","","","","","","","","","","","null","Wrong","Feedback","","null","","","","","","","","","","","",""
"","call-function","82","191257","0.0-102.0-2.0","2kvo513m","","","","","","","","","","","","","","","","","","","","","","","","","","","","",""
"","html-keyboard-response","83","192010","0.0-103.0","2kvo513m","2048","1152","","","","","","","","","","","null","+","Fixation - short","","null","","","","","","","","","","","",""
"","html-keyboard-response","84","192560","0.0-104.0","2kvo513m","2048","1152","","","","","","","","","","","549","f.w","Diagnostic trial","","j","0","3","false","false","RIGHT","j","1","RIGHT","true","","",""
"","html-keyboard-response","85","193312","0.0-107.0","2kvo513m","2048","1152","","","","","","","","","","","null","+","Fixation - short","","null","","","","","","","","","","","",""
"","html-keyboard-response","86","193616","0.0-108.0","2kvo513m","2048","1152","","","","","","","","","","","303","f.w","Diagnostic trial","","j","0","4","false","false","RIGHT","j","1","RIGHT","true","","",""
"","html-keyboard-response","87","194368","0.0-111.0","2kvo513m","2048","1152","","","","","","","","","","","null","+","Fixation - short","","null","","","","","","","","","","","",""
"","html-keyboard-response","88","194719","0.0-112.0","2kvo513m","2048","1152","","","","","","","","","","","349","upv","Inducer trial","","f","0","","true","","","","1","","","","",""
"","html-keyboard-response","89","196232","0.0-115.0","2kvo513m","2048","1152","","","","","","","","","","","null","+","Fixation - long","","null","","","","","","","","","","","",""
"","html-keyboard-response","90","210009","0.0-116.0","2kvo513m","2048","1152","","","","","","","","","","","13775","If ubr press LEFT | If nua press RIGHT","Inducer instructions",""," ","1","","","","","","","","","","",""
"","html-keyboard-response","91","210770","0.0-117.0","2kvo513m","2048","1152","","","","","","","","","","","null","+","Fixation - short","","null","","","","","","","","","","","",""
"","html-keyboard-response","92","211243","0.0-118.0","2kvo513m","2048","1152","","","","","","","","","","","472","nua","Diagnostic trial","","j","1","0","false","true","LEFT","f","0","RIGHT","false","","",""
"","call-function","93","211244","0.0-120.0-0.0","2kvo513m","","","","","","","","","","","","","","","","","","","","","","","","","","","","",""
"","html-keyboard-response","94","211558","0.0-120.0-1.0","2kvo513m","2048","1152","","","","","","","","","","","null","Wrong","Feedback","","null","","","","","","","","","","","",""
"","call-function","95","211559","0.0-120.0-2.0","2kvo513m","","","","","","","","","","","","","","","","","","","","","","","","","","","","",""
"","html-keyboard-response","96","212314","0.0-121.0","2kvo513m","2048","1152","","","","","","","","","","","null","+","Fixation - short","","null","","","","","","","","","","","",""
"","html-keyboard-response","97","212933","0.0-122.0","2kvo513m","2048","1152","","","","","","","","","","","618","ubr","Diagnostic trial","","f","1","1","false","false","RIGHT","j","0","LEFT","false","","",""
"","call-function","98","212934","0.0-124.0-0.0","2kvo513m","","","","","","","","","","","","","","","","","","","","","","","","","","","","",""
"","html-keyboard-response","99","213249","0.0-124.0-1.0","2kvo513m","2048","1152","","","","","","","","","","","null","Wrong","Feedback","","null","","","","","","","","","","","",""
"","call-function","100","213250","0.0-124.0-2.0","2kvo513m","","","","","","","","","","","","","","","","","","","","","","","","","","","","",""
"","html-keyboard-response","101","214006","0.0-125.0","2kvo513m","2048","1152","","","","","","","","","","","null","+","Fixation - short","","null","","","","","","","","","","","",""
"","html-keyboard-response","102","214773","0.0-126.0","2kvo513m","2048","1152","","","","","","","","","","","766","ubr","Diagnostic trial","","j","1","2","false","false","RIGHT","j","1","LEFT","false","","",""
"","html-keyboard-response","103","215532","0.0-129.0","2kvo513m","2048","1152","","","","","","","","","","","null","+","Fixation - short","","null","","","","","","","","","","","",""
"","html-keyboard-response","104","216135","0.0-130.0","2kvo513m","2048","1152","","","","","","","","","","","602","nua","Diagnostic trial","","f","1","3","false","true","LEFT","f","1","RIGHT","false","","",""
"","html-keyboard-response","105","216902","0.0-133.0","2kvo513m","2048","1152","","","","","","","","","","","null","+","Fixation - short","","null","","","","","","","","","","","",""
"","html-keyboard-response","106","217414","0.0-134.0","2kvo513m","2048","1152","","","","","","","","","","","511","nua","Diagnostic trial","","j","1","4","false","false","RIGHT","j","1","RIGHT","true","","",""
"","html-keyboard-response","107","218170","0.0-137.0","2kvo513m","2048","1152","","","","","","","","","","","null","+","Fixation - short","","null","","","","","","","","","","","",""
"","html-keyboard-response","108","218634","0.0-138.0","2kvo513m","2048","1152","","","","","","","","","","","463","ubr","Diagnostic trial","","f","1","5","false","true","LEFT","f","1","LEFT","true","","",""
"","html-keyboard-response","109","219395","0.0-141.0","2kvo513m","2048","1152","","","","","","","","","","","null","+","Fixation - short","","null","","","","","","","","","","","",""
"","html-keyboard-response","110","220041","0.0-142.0","2kvo513m","2048","1152","","","","","","","","","","","645","ubr","Diagnostic trial","","f","1","6","false","true","LEFT","f","1","LEFT","true","","",""
"","html-keyboard-response","111","220805","0.0-145.0","2kvo513m","2048","1152","","","","","","","","","","","null","+","Fixation - short","","null","","","","","","","","","","","",""
"","html-keyboard-response","112","221298","0.0-146.0","2kvo513m","2048","1152","","","","","","","","","","","491","ubr","Diagnostic trial","","f","1","7","false","true","LEFT","f","1","LEFT","true","","",""
"","html-keyboard-response","113","222062","0.0-149.0","2kvo513m","2048","1152","","","","","","","","","","","null","+","Fixation - short","","null","","","","","","","","","","","",""
"","html-keyboard-response","114","222465","0.0-150.0","2kvo513m","2048","1152","","","","","","","","","","","402","nua","Diagnostic trial","","j","1","8","false","false","RIGHT","j","1","RIGHT","true","","",""
"","html-keyboard-response","115","223218","0.0-153.0","2kvo513m","2048","1152","","","","","","","","","","","null","+","Fixation - short","","null","","","","","","","","","","","",""
"","html-keyboard-response","116","223746","0.0-154.0","2kvo513m","2048","1152","","","","","","","","","","","527","ubr","Diagnostic trial","","j","1","9","false","false","RIGHT","j","1","LEFT","false","","",""
"","html-keyboard-response","117","224504","0.0-157.0","2kvo513m","2048","1152","","","","","","","","","","","null","+","Fixation - short","","null","","","","","","","","","","","",""
"","html-keyboard-response","118","224943","0.0-158.0","2kvo513m","2048","1152","","","","","","","","","","","438","ubr","Inducer trial","","j","1","","true","","","","0","","","","",""
"","call-function","119","224944","0.0-160.0-0.0","2kvo513m","","","","","","","","","","","","","","","","","","","","","","","","","","","","",""
"","html-keyboard-response","120","225248","0.0-160.0-1.0","2kvo513m","2048","1152","","","","","","","","","","","null","Wrong","Feedback","","null","","","","","","","","","","","",""
"","call-function","121","225248","0.0-160.0-2.0","2kvo513m","","","","","","","","","","","","","","","","","","","","","","","","","","","","",""
"","html-keyboard-response","122","226753","0.0-161.0","2kvo513m","2048","1152","","","","","","","","","","","null","+","Fixation - long","","null","","","","","","","","","","","",""
"","html-keyboard-response","123","236901","0.0-162.0","2kvo513m","2048","1152","","","","","","","","","","","10147","If dnc press LEFT | If qut press RIGHT","Inducer instructions",""," ","2","","","","","","","","","","",""
"","html-keyboard-response","124","237655","0.0-163.0","2kvo513m","2048","1152","","","","","","","","","","","null","+","Fixation - short","","null","","","","","","","","","","","",""
"","html-keyboard-response","125","238214","0.0-164.0","2kvo513m","2048","1152","","","","","","","","","","","558","dnc","Diagnostic trial","","f","2","0","false","true","LEFT","f","1","LEFT","true","","",""
"","html-keyboard-response","126","238975","0.0-167.0","2kvo513m","2048","1152","","","","","","","","","","","null","+","Fixation - short","","null","","","","","","","","","","","",""
"","html-keyboard-response","127","239325","0.0-168.0","2kvo513m","2048","1152","","","","","","","","","","","349","dnc","Diagnostic trial","","f","2","1","false","true","LEFT","f","1","LEFT","true","","",""
"","html-keyboard-response","128","240092","0.0-171.0","2kvo513m","2048","1152","","","","","","","","","","","null","+","Fixation - short","","null","","","","","","","","","","","",""
"","html-keyboard-response","129","240395","0.0-172.0","2kvo513m","2048","1152","","","","","","","","","","","302","dnc","Diagnostic trial","","f","2","2","false","false","RIGHT","j","0","LEFT","false","","",""
"","call-function","130","240396","0.0-174.0-0.0","2kvo513m","","","","","","","","","","","","","","","","","","","","","","","","","","","","",""
"","html-keyboard-response","131","240701","0.0-174.0-1.0","2kvo513m","2048","1152","","","","","","","","","","","null","Wrong","Feedback","","null","","","","","","","","","","","",""
"","call-function","132","240701","0.0-174.0-2.0","2kvo513m","","","","","","","","","","","","","","","","","","","","","","","","","","","","",""
"","html-keyboard-response","133","241456","0.0-175.0","2kvo513m","2048","1152","","","","","","","","","","","null","+","Fixation - short","","null","","","","","","","","","","","",""
"","html-keyboard-response","134","241899","0.0-176.0","2kvo513m","2048","1152","","","","","","","","","","","441","dnc","Diagnostic trial","","j","2","3","false","false","RIGHT","j","1","LEFT","false","","",""
"","html-keyboard-response","135","242660","0.0-179.0","2kvo513m","2048","1152","","","","","","","","","","","null","+","Fixation - short","","null","","","","","","","","","","","",""
"","html-keyboard-response","136","243079","0.0-180.0","2kvo513m","2048","1152","","","","","","","","","","","417","dnc","Diagnostic trial","","f","2","4","false","true","LEFT","f","1","LEFT","true","","",""
"","html-keyboard-response","137","243838","0.0-183.0","2kvo513m","2048","1152","","","","","","","","","","","null","+","Fixation - short","","null","","","","","","","","","","","",""
"","html-keyboard-response","138","244303","0.0-184.0","2kvo513m","2048","1152","","","","","","","","","","","463","dnc","Diagnostic trial","","j","2","5","false","false","RIGHT","j","1","LEFT","false","","",""
"","html-keyboard-response","139","245066","0.0-187.0","2kvo513m","2048","1152","","","","","","","","","","","null","+","Fixation - short","","null","","","","","","","","","","","",""
"","html-keyboard-response","140","245451","0.0-188.0","2kvo513m","2048","1152","","","","","","","","","","","385","qut","Diagnostic trial","","f","2","6","false","true","LEFT","f","1","RIGHT","false","","",""
"","html-keyboard-response","141","246209","0.0-191.0","2kvo513m","2048","1152","","","","","","","","","","","null","+","Fixation - short","","null","","","","","","","","","","","",""
"","html-keyboard-response","142","246575","0.0-192.0","2kvo513m","2048","1152","","","","","","","","","","","366","dnc","Diagnostic trial","","j","2","7","false","false","RIGHT","j","1","LEFT","false","","",""
"","html-keyboard-response","143","247335","0.0-195.0","2kvo513m","2048","1152","","","","","","","","","","","null","+","Fixation - short","","null","","","","","","","","","","","",""
"","html-keyboard-response","144","247776","0.0-196.0","2kvo513m","2048","1152","","","","","","","","","","","439","dnc","Diagnostic trial","","f","2","8","false","true","LEFT","f","1","LEFT","true","","",""
"","html-keyboard-response","145","248531","0.0-199.0","2kvo513m","2048","1152","","","","","","","","","","","null","+","Fixation - short","","null","","","","","","","","","","","",""
"","html-keyboard-response","146","248896","0.0-200.0","2kvo513m","2048","1152","","","","","","","","","","","364","dnc","Diagnostic trial","","j","2","9","false","false","RIGHT","j","1","LEFT","false","","",""
"","html-keyboard-response","147","249648","0.0-203.0","2kvo513m","2048","1152","","","","","","","","","","","null","+","Fixation - short","","null","","","","","","","","","","","",""
"","html-keyboard-response","148","249982","0.0-204.0","2kvo513m","2048","1152","","","","","","","","","","","333","qut","Diagnostic trial","","f","2","10","false","true","LEFT","f","1","RIGHT","false","","",""
"","html-keyboard-response","149","250733","0.0-207.0","2kvo513m","2048","1152","","","","","","","","","","","null","+","Fixation - short","","null","","","","","","","","","","","",""
"","html-keyboard-response","150","251133","0.0-208.0","2kvo513m","2048","1152","","","","","","","","","","","399","qut","Diagnostic trial","","j","2","11","false","false","RIGHT","j","1","RIGHT","true","","",""
"","html-keyboard-response","151","251890","0.0-211.0","2kvo513m","2048","1152","","","","","","","","","","","null","+","Fixation - short","","null","","","","","","","","","","","",""
"","html-keyboard-response","152","252245","0.0-212.0","2kvo513m","2048","1152","","","","","","","","","","","354","dnc","Diagnostic trial","","f","2","12","false","false","RIGHT","j","0","LEFT","false","","",""
"","call-function","153","252246","0.0-214.0-0.0","2kvo513m","","","","","","","","","","","","","","","","","","","","","","","","","","","","",""
"","html-keyboard-response","154","252548","0.0-214.0-1.0","2kvo513m","2048","1152","","","","","","","","","","","null","Wrong","Feedback","","null","","","","","","","","","","","",""
"","call-function","155","252548","0.0-214.0-2.0","2kvo513m","","","","","","","","","","","","","","","","","","","","","","","","","","","","",""
"","html-keyboard-response","156","253304","0.0-215.0","2kvo513m","2048","1152","","","","","","","","","","","null","+","Fixation - short","","null","","","","","","","","","","","",""
"","html-keyboard-response","157","253675","0.0-216.0","2kvo513m","2048","1152","","","","","","","","","","","371","dnc","Diagnostic trial","","j","2","13","false","false","RIGHT","j","1","LEFT","false","","",""
"","html-keyboard-response","158","254429","0.0-219.0","2kvo513m","2048","1152","","","","","","","","","","","null","+","Fixation - short","","null","","","","","","","","","","","",""
"","html-keyboard-response","159","254790","0.0-220.0","2kvo513m","2048","1152","","","","","","","","","","","361","qut","Inducer trial","","f","2","","true","","","","0","","","","",""
"","call-function","160","254791","0.0-222.0-0.0","2kvo513m","","","","","","","","","","","","","","","","","","","","","","","","","","","","",""
"","html-keyboard-response","161","255103","0.0-222.0-1.0","2kvo513m","2048","1152","","","","","","","","","","","null","Wrong","Feedback","","null","","","","","","","","","","","",""
"","call-function","162","255103","0.0-222.0-2.0","2kvo513m","","","","","","","","","","","","","","","","","","","","","","","","","","","","",""
"","html-keyboard-response","163","256607","0.0-223.0","2kvo513m","2048","1152","","","","","","","","","","","null","+","Fixation - long","","null","","","","","","","","","","","",""
"","html-keyboard-response","164","262994","0.0-224.0","2kvo513m","2048","1152","","","","","","","","","","","6386","If rve press LEFT | If spm press RIGHT","Inducer instructions",""," ","3","","","","","","","","","","",""
"","html-keyboard-response","165","263759","0.0-225.0","2kvo513m","2048","1152","","","","","","","","","","","null","+","Fixation - short","","null","","","","","","","","","","","",""
"","html-keyboard-response","166","264090","0.0-226.0","2kvo513m","2048","1152","","","","","","","","","","","330","spm","Diagnostic trial","","j","3","0","false","false","RIGHT","j","1","RIGHT","true","","",""
"","html-keyboard-response","167","264847","0.0-229.0","2kvo513m","2048","1152","","","","","","","","","","","null","+","Fixation - short","","null","","","","","","","","","","","",""
"","html-keyboard-response","168","265294","0.0-230.0","2kvo513m","2048","1152","","","","","","","","","","","447","rve","Diagnostic trial","","j","3","1","false","true","LEFT","f","0","LEFT","true","","",""
"","call-function","169","265295","0.0-232.0-0.0","2kvo513m","","","","","","","","","","","","","","","","","","","","","","","","","","","","",""
"","html-keyboard-response","170","265604","0.0-232.0-1.0","2kvo513m","2048","1152","","","","","","","","","","","null","Wrong","Feedback","","null","","","","","","","","","","","",""
"","call-function","171","265605","0.0-232.0-2.0","2kvo513m","","","","","","","","","","","","","","","","","","","","","","","","","","","","",""
"","html-keyboard-response","172","266358","0.0-233.0","2kvo513m","2048","1152","","","","","","","","","","","null","+","Fixation - short","","null","","","","","","","","","","","",""
"","html-keyboard-response","173","266787","0.0-234.0","2kvo513m","2048","1152","","","","","","","","","","","428","rve","Diagnostic trial","","j","3","2","false","false","RIGHT","j","1","LEFT","false","","",""
"","html-keyboard-response","174","267540","0.0-237.0","2kvo513m","2048","1152","","","","","","","","","","","null","+","Fixation - short","","null","","","","","","","","","","","",""
"","html-keyboard-response","175","267872","0.0-238.0","2kvo513m","2048","1152","","","","","","","","","","","331","rve","Diagnostic trial","","j","3","3","false","false","RIGHT","j","1","LEFT","false","","",""
"","html-keyboard-response","176","268625","0.0-241.0","2kvo513m","2048","1152","","","","","","","","","","","null","+","Fixation - short","","null","","","","","","","","","","","",""
"","html-keyboard-response","177","268913","0.0-242.0","2kvo513m","2048","1152","","","","","","","","","","","288","rve","Diagnostic trial","","j","3","4","false","true","LEFT","f","0","LEFT","true","","",""
"","call-function","178","268913","0.0-244.0-0.0","2kvo513m","","","","","","","","","","","","","","","","","","","","","","","","","","","","",""
"","html-keyboard-response","179","269223","0.0-244.0-1.0","2kvo513m","2048","1152","","","","","","","","","","","null","Wrong","Feedback","","null","","","","","","","","","","","",""
"","call-function","180","269224","0.0-244.0-2.0","2kvo513m","","","","","","","","","","","","","","","","","","","","","","","","","","","","",""
"","html-keyboard-response","181","269976","0.0-245.0","2kvo513m","2048","1152","","","","","","","","","","","null","+","Fixation - short","","null","","","","","","","","","","","",""
"","html-keyboard-response","182","270286","0.0-246.0","2kvo513m","2048","1152","","","","","","","","","","","309","rve","Diagnostic trial","","j","3","5","false","false","RIGHT","j","1","LEFT","false","","",""
"","html-keyboard-response","183","271047","0.0-249.0","2kvo513m","2048","1152","","","","","","","","","","","null","+","Fixation - short","","null","","","","","","","","","","","",""
"","html-keyboard-response","184","271362","0.0-250.0","2kvo513m","2048","1152","","","","","","","","","","","310","rve","Diagnostic trial","","j","3","6","false","true","LEFT","f","0","LEFT","true","","",""
"","call-function","185","271364","0.0-252.0-0.0","2kvo513m","","","","","","","","","","","","","","","","","","","","","","","","","","","","",""
"","html-keyboard-response","186","271677","0.0-252.0-1.0","2kvo513m","2048","1152","","","","","","","","","","","null","Wrong","Feedback","","null","","","","","","","","","","","",""
"","call-function","187","271677","0.0-252.0-2.0","2kvo513m","","","","","","","","","","","","","","","","","","","","","","","","","","","","",""
"","html-keyboard-response","188","272433","0.0-253.0","2kvo513m","2048","1152","","","","","","","","","","","null","+","Fixation - short","","null","","","","","","","","","","","",""
"","html-keyboard-response","189","272785","0.0-254.0","2kvo513m","2048","1152","","","","","","","","","","","352","spm","Diagnostic trial","","j","3","7","false","false","RIGHT","j","1","RIGHT","true","","",""
"","html-keyboard-response","190","273547","0.0-257.0","2kvo513m","2048","1152","","","","","","","","","","","null","+","Fixation - short","","null","","","","","","","","","","","",""
"","html-keyboard-response","191","273907","0.0-258.0","2kvo513m","2048","1152","","","","","","","","","","","359","rve","Diagnostic trial","","j","3","8","false","true","LEFT","f","0","LEFT","true","","",""
"","call-function","192","273908","0.0-260.0-0.0","2kvo513m","","","","","","","","","","","","","","","","","","","","","","","","","","","","",""
"","html-keyboard-response","193","274222","0.0-260.0-1.0","2kvo513m","2048","1152","","","","","","","","","","","null","Wrong","Feedback","","null","","","","","","","","","","","",""
"","call-function","194","274222","0.0-260.0-2.0","2kvo513m","","","","","","","","","","","","","","","","","","","","","","","","","","","","",""
"","html-keyboard-response","195","274975","0.0-261.0","2kvo513m","2048","1152","","","","","","","","","","","null","+","Fixation - short","","null","","","","","","","","","","","",""
"","html-keyboard-response","196","275386","0.0-262.0","2kvo513m","2048","1152","","","","","","","","","","","411","rve","Inducer trial","","j","3","","true","","","","0","","","","",""
"","call-function","197","275387","0.0-264.0-0.0","2kvo513m","","","","","","","","","","","","","","","","","","","","","","","","","","","","",""
"","html-keyboard-response","198","275699","0.0-264.0-1.0","2kvo513m","2048","1152","","","","","","","","","","","null","Wrong","Feedback","","null","","","","","","","","","","","",""
"","call-function","199","275699","0.0-264.0-2.0","2kvo513m","","","","","","","","","","","","","","","","","","","","","","","","","","","","",""
"","html-keyboard-response","200","277211","0.0-265.0","2kvo513m","2048","1152","","","","","","","","","","","null","+","Fixation - long","","null","","","","","","","","","","","",""
"","html-keyboard-response","201","282068","0.0-266.0","2kvo513m","2048","1152","","","","","","","","","","","4856","If a82 press LEFT | If ff4 press RIGHT","Inducer instructions",""," ","4","","","","","","","","","","",""
"","html-keyboard-response","202","282827","0.0-267.0","2kvo513m","2048","1152","","","","","","","","","","","null","+","Fixation - short","","null","","","","","","","","","","","",""
"","html-keyboard-response","203","283286","0.0-268.0","2kvo513m","2048","1152","","","","","","","","","","","458","ff4","Diagnostic trial","","j","4","0","false","false","RIGHT","j","1","RIGHT","true","","",""
"","html-keyboard-response","204","284046","0.0-271.0","2kvo513m","2048","1152","","","","","","","","","","","null","+","Fixation - short","","null","","","","","","","","","","","",""
"","html-keyboard-response","205","284454","0.0-272.0","2kvo513m","2048","1152","","","","","","","","","","","407","a82","Diagnostic trial","","f","4","1","false","true","LEFT","f","1","LEFT","true","","",""
"","html-keyboard-response","206","285216","0.0-275.0","2kvo513m","2048","1152","","","","","","","","","","","null","+","Fixation - short","","null","","","","","","","","","","","",""
"","html-keyboard-response","207","285651","0.0-276.0","2kvo513m","2048","1152","","","","","","","","","","","434","a82","Diagnostic trial","","j","4","2","false","false","RIGHT","j","1","LEFT","false","","",""
"","html-keyboard-response","208","286416","0.0-279.0","2kvo513m","2048","1152","","","","","","","","","","","null","+","Fixation - short","","null","","","","","","","","","","","",""
"","html-keyboard-response","209","286786","0.0-280.0","2kvo513m","2048","1152","","","","","","","","","","","369","a82","Diagnostic trial","","j","4","3","false","false","RIGHT","j","1","LEFT","false","","",""
"","html-keyboard-response","210","287545","0.0-283.0","2kvo513m","2048","1152","","","","","","","","","","","null","+","Fixation - short","","null","","","","","","","","","","","",""
"","html-keyboard-response","211","287945","0.0-284.0","2kvo513m","2048","1152","","","","","","","","","","","398","ff4","Diagnostic trial","","j","4","4","false","false","RIGHT","j","1","RIGHT","true","","",""
"","html-keyboard-response","212","288708","0.0-287.0","2kvo513m","2048","1152","","","","","","","","","","","null","+","Fixation - short","","null","","","","","","","","","","","",""
"","html-keyboard-response","213","289184","0.0-288.0","2kvo513m","2048","1152","","","","","","","","","","","475","a82","Diagnostic trial","","f","4","5","false","true","LEFT","f","1","LEFT","true","","",""
"","html-keyboard-response","214","289937","0.0-291.0","2kvo513m","2048","1152","","","","","","","","","","","null","+","Fixation - short","","null","","","","","","","","","","","",""
"","html-keyboard-response","215","290204","0.0-292.0","2kvo513m","2048","1152","","","","","","","","","","","266","a82","Diagnostic trial","","j","4","6","false","false","RIGHT","j","1","LEFT","false","","",""
"","html-keyboard-response","216","290969","0.0-295.0","2kvo513m","2048","1152","","","","","","","","","","","null","+","Fixation - short","","null","","","","","","","","","","","",""
"","html-keyboard-response","217","291302","0.0-296.0","2kvo513m","2048","1152","","","","","","","","","","","333","a82","Diagnostic trial","","f","4","7","false","true","LEFT","f","1","LEFT","true","","",""
"","html-keyboard-response","218","292062","0.0-299.0","2kvo513m","2048","1152","","","","","","","","","","","null","+","Fixation - short","","null","","","","","","","","","","","",""
"","html-keyboard-response","219","292394","0.0-300.0","2kvo513m","2048","1152","","","","","","","","","","","332","a82","Inducer trial","","j","4","","true","","","","0","","","","",""
"","call-function","220","292395","0.0-302.0-0.0","2kvo513m","","","","","","","","","","","","","","","","","","","","","","","","","","","","",""
"","html-keyboard-response","221","292704","0.0-302.0-1.0","2kvo513m","2048","1152","","","","","","","","","","","null","Wrong","Feedback","","null","","","","","","","","","","","",""
"","call-function","222","292705","0.0-302.0-2.0","2kvo513m","","","","","","","","","","","","","","","","","","","","","","","","","","","","",""
"","html-keyboard-response","223","294208","0.0-303.0","2kvo513m","2048","1152","","","","","","","","","","","null","+","Fixation - long","","null","","","","","","","","","","","",""
"","html-keyboard-response","224","304847","0.0-304.0","2kvo513m","2048","1152","","","","","","","","","","","10639","If lpo press LEFT | If ows press RIGHT","Inducer instructions",""," ","5","","","","","","","","","","",""
"","html-keyboard-response","225","305608","0.0-305.0","2kvo513m","2048","1152","","","","","","","","","","","null","+","Fixation - short","","null","","","","","","","","","","","",""
"","html-keyboard-response","226","306023","0.0-306.0","2kvo513m","2048","1152","","","","","","","","","","","414","ows","Diagnostic trial","","j","5","0","false","false","RIGHT","j","1","RIGHT","true","","",""
"","html-keyboard-response","227","306784","0.0-309.0","2kvo513m","2048","1152","","","","","","","","","","","null","+","Fixation - short","","null","","","","","","","","","","","",""
"","html-keyboard-response","228","307098","0.0-310.0","2kvo513m","2048","1152","","","","","","","","","","","313","lpo","Diagnostic trial","","j","5","1","false","false","RIGHT","j","1","LEFT","false","","",""
"","html-keyboard-response","229","307857","0.0-313.0","2kvo513m","2048","1152","","","","","","","","","","","null","+","Fixation - short","","null","","","","","","","","","","","",""
"","html-keyboard-response","230","308155","0.0-314.0","2kvo513m","2048","1152","","","","","","","","","","","297","lpo","Diagnostic trial","","j","5","2","false","true","LEFT","f","0","LEFT","true","","",""
"","call-function","231","308155","0.0-316.0-0.0","2kvo513m","","","","","","","","","","","","","","","","","","","","","","","","","","","","",""
"","html-keyboard-response","232","308469","0.0-316.0-1.0","2kvo513m","2048","1152","","","","","","","","","","","null","Wrong","Feedback","","null","","","","","","","","","","","",""
"","call-function","233","308470","0.0-316.0-2.0","2kvo513m","","","","","","","","","","","","","","","","","","","","","","","","","","","","",""
"","html-keyboard-response","234","309221","0.0-317.0","2kvo513m","2048","1152","","","","","","","","","","","null","+","Fixation - short","","null","","","","","","","","","","","",""
"","html-keyboard-response","235","309559","0.0-318.0","2kvo513m","2048","1152","","","","","","","","","","","337","ows","Diagnostic trial","","j","5","3","false","true","LEFT","f","0","RIGHT","false","","",""
"","call-function","236","309560","0.0-320.0-0.0","2kvo513m","","","","","","","","","","","","","","","","","","","","","","","","","","","","",""
"","html-keyboard-response","237","309865","0.0-320.0-1.0","2kvo513m","2048","1152","","","","","","","","","","","null","Wrong","Feedback","","null","","","","","","","","","","","",""
"","call-function","238","309866","0.0-320.0-2.0","2kvo513m","","","","","","","","","","","","","","","","","","","","","","","","","","","","",""
"","html-keyboard-response","239","310618","0.0-321.0","2kvo513m","2048","1152","","","","","","","","","","","null","+","Fixation - short","","null","","","","","","","","","","","",""
"","html-keyboard-response","240","311068","0.0-322.0","2kvo513m","2048","1152","","","","","","","","","","","448","ows","Diagnostic trial","","f","5","4","false","true","LEFT","f","1","RIGHT","false","","",""
"","html-keyboard-response","241","311827","0.0-325.0","2kvo513m","2048","1152","","","","","","","","","","","null","+","Fixation - short","","null","","","","","","","","","","","",""
"","html-keyboard-response","242","312210","0.0-326.0","2kvo513m","2048","1152","","","","","","","","","","","382","ows","Diagnostic trial","","f","5","5","false","true","LEFT","f","1","RIGHT","false","","",""
"","html-keyboard-response","243","312974","0.0-329.0","2kvo513m","2048","1152","","","","","","","","","","","null","+","Fixation - short","","null","","","","","","","","","","","",""
"","html-keyboard-response","244","313273","0.0-330.0","2kvo513m","2048","1152","","","","","","","","","","","297","ows","Diagnostic trial","","f","5","6","false","false","RIGHT","j","0","RIGHT","true","","",""
"","call-function","245","313274","0.0-332.0-0.0","2kvo513m","","","","","","","","","","","","","","","","","","","","","","","","","","","","",""
"","html-keyboard-response","246","313590","0.0-332.0-1.0","2kvo513m","2048","1152","","","","","","","","","","","null","Wrong","Feedback","","null","","","","","","","","","","","",""
"","call-function","247","313590","0.0-332.0-2.0","2kvo513m","","","","","","","","","","","","","","","","","","","","","","","","","","","","",""
"","html-keyboard-response","248","314346","0.0-333.0","2kvo513m","2048","1152","","","","","","","","","","","null","+","Fixation - short","","null","","","","","","","","","","","",""
"","html-keyboard-response","249","314747","0.0-334.0","2kvo513m","2048","1152","","","","","","","","","","","400","ows","Diagnostic trial","","j","5","7","false","true","LEFT","f","0","RIGHT","false","","",""
"","call-function","250","314748","0.0-336.0-0.0","2kvo513m","","","","","","","","","","","","","","","","","","","","","","","","","","","","",""
"","html-keyboard-response","251","315053","0.0-336.0-1.0","2kvo513m","2048","1152","","","","","","","","","","","null","Wrong","Feedback","","null","","","","","","","","","","","",""
"","call-function","252","315054","0.0-336.0-2.0","2kvo513m","","","","","","","","","","","","","","","","","","","","","","","","","","","","",""
"","html-keyboard-response","253","315808","0.0-337.0","2kvo513m","2048","1152","","","","","","","","","","","null","+","Fixation - short","","null","","","","","","","","","","","",""
"","html-keyboard-response","254","316266","0.0-338.0","2kvo513m","2048","1152","","","","","","","","","","","457","lpo","Diagnostic trial","","f","5","8","false","false","RIGHT","j","0","LEFT","false","","",""
"","call-function","255","316267","0.0-340.0-0.0","2kvo513m","","","","","","","","","","","","","","","","","","","","","","","","","","","","",""
"","html-keyboard-response","256","316581","0.0-340.0-1.0","2kvo513m","2048","1152","","","","","","","","","","","null","Wrong","Feedback","","null","","","","","","","","","","","",""
"","call-function","257","316582","0.0-340.0-2.0","2kvo513m","","","","","","","","","","","","","","","","","","","","","","","","","","","","",""
"","html-keyboard-response","258","317336","0.0-341.0","2kvo513m","2048","1152","","","","","","","","","","","null","+","Fixation - short","","null","","","","","","","","","","","",""
"","html-keyboard-response","259","318034","0.0-342.0","2kvo513m","2048","1152","","","","","","","","","","","698","lpo","Diagnostic trial","","f","5","9","false","true","LEFT","f","1","LEFT","true","","",""
"","html-keyboard-response","260","318797","0.0-345.0","2kvo513m","2048","1152","","","","","","","","","","","null","+","Fixation - short","","null","","","","","","","","","","","",""
"","html-keyboard-response","261","319198","0.0-346.0","2kvo513m","2048","1152","","","","","","","","","","","399","ows","Diagnostic trial","","j","5","10","false","true","LEFT","f","0","RIGHT","false","","",""
"","call-function","262","319198","0.0-348.0-0.0","2kvo513m","","","","","","","","","","","","","","","","","","","","","","","","","","","","",""
"","html-keyboard-response","263","319507","0.0-348.0-1.0","2kvo513m","2048","1152","","","","","","","","","","","null","Wrong","Feedback","","null","","","","","","","","","","","",""
"","call-function","264","319508","0.0-348.0-2.0","2kvo513m","","","","","","","","","","","","","","","","","","","","","","","","","","","","",""
"","html-keyboard-response","265","320266","0.0-349.0","2kvo513m","2048","1152","","","","","","","","","","","null","+","Fixation - short","","null","","","","","","","","","","","",""
"","html-keyboard-response","266","320748","0.0-350.0","2kvo513m","2048","1152","","","","","","","","","","","481","ows","Inducer trial","","f","5","","true","","","","0","","","","",""
"","call-function","267","320748","0.0-352.0-0.0","2kvo513m","","","","","","","","","","","","","","","","","","","","","","","","","","","","",""
"","html-keyboard-response","268","321056","0.0-352.0-1.0","2kvo513m","2048","1152","","","","","","","","","","","null","Wrong","Feedback","","null","","","","","","","","","","","",""
"","call-function","269","321056","0.0-352.0-2.0","2kvo513m","","","","","","","","","","","","","","","","","","","","","","","","","","","","",""
"","html-keyboard-response","270","322562","0.0-353.0","2kvo513m","2048","1152","","","","","","","","","","","null","+","Fixation - long","","null","","","","","","","","","","","",""
"","html-keyboard-response","271","327571","0.0-354.0","2kvo513m","2048","1152","","","","","","","","","","","5008","If hyo press LEFT | If svs press RIGHT","Inducer instructions",""," ","6","","","","","","","","","","",""
"","html-keyboard-response","272","328327","0.0-355.0","2kvo513m","2048","1152","","","","","","","","","","","null","+","Fixation - short","","null","","","","","","","","","","","",""
"","html-keyboard-response","273","328763","0.0-356.0","2kvo513m","2048","1152","","","","","","","","","","","435","hyo","Diagnostic trial","","j","6","0","false","true","LEFT","f","0","LEFT","true","","",""
"","call-function","274","328764","0.0-358.0-0.0","2kvo513m","","","","","","","","","","","","","","","","","","","","","","","","","","","","",""
"","html-keyboard-response","275","329078","0.0-358.0-1.0","2kvo513m","2048","1152","","","","","","","","","","","null","Wrong","Feedback","","null","","","","","","","","","","","",""
"","call-function","276","329079","0.0-358.0-2.0","2kvo513m","","","","","","","","","","","","","","","","","","","","","","","","","","","","",""
"","html-keyboard-response","277","329843","0.0-359.0","2kvo513m","2048","1152","","","","","","","","","","","null","+","Fixation - short","","null","","","","","","","","","","","",""
"","html-keyboard-response","278","330388","0.0-360.0","2kvo513m","2048","1152","","","","","","","","","","","544","svs","Diagnostic trial","","f","6","1","false","true","LEFT","f","1","RIGHT","false","","",""
"","html-keyboard-response","279","331142","0.0-363.0","2kvo513m","2048","1152","","","","","","","","","","","null","+","Fixation - short","","null","","","","","","","","","","","",""
"","html-keyboard-response","280","331612","0.0-364.0","2kvo513m","2048","1152","","","","","","","","","","","468","svs","Diagnostic trial","","f","6","2","false","true","LEFT","f","1","RIGHT","false","","",""
"","html-keyboard-response","281","332364","0.0-367.0","2kvo513m","2048","1152","","","","","","","","","","","null","+","Fixation - short","","null","","","","","","","","","","","",""
"","html-keyboard-response","282","332897","0.0-368.0","2kvo513m","2048","1152","","","","","","","","","","","531","svs","Diagnostic trial","","f","6","3","false","true","LEFT","f","1","RIGHT","false","","",""
"","html-keyboard-response","283","333649","0.0-371.0","2kvo513m","2048","1152","","","","","","","","","","","null","+","Fixation - short","","null","","","","","","","","","","","",""
"","html-keyboard-response","284","334046","0.0-372.0","2kvo513m","2048","1152","","","","","","","","","","","396","svs","Diagnostic trial","","f","6","4","false","false","RIGHT","j","0","RIGHT","true","","",""
"","call-function","285","334047","0.0-374.0-0.0","2kvo513m","","","","","","","","","","","","","","","","","","","","","","","","","","","","",""
"","html-keyboard-response","286","334357","0.0-374.0-1.0","2kvo513m","2048","1152","","","","","","","","","","","null","Wrong","Feedback","","null","","","","","","","","","","","",""
"","call-function","287","334357","0.0-374.0-2.0","2kvo513m","","","","","","","","","","","","","","","","","","","","","","","","","","","","",""
"","html-keyboard-response","288","335114","0.0-375.0","2kvo513m","2048","1152","","","","","","","","","","","null","+","Fixation - short","","null","","","","","","","","","","","",""
"","html-keyboard-response","289","335642","0.0-376.0","2kvo513m","2048","1152","","","","","","","","","","","527","hyo","Diagnostic trial","","f","6","5","false","true","LEFT","f","1","LEFT","true","","",""
"","html-keyboard-response","290","336405","0.0-379.0","2kvo513m","2048","1152","","","","","","","","","","","null","+","Fixation - short","","null","","","","","","","","","","","",""
"","html-keyboard-response","291","336932","0.0-380.0","2kvo513m","2048","1152","","","","","","","","","","","527","hyo","Diagnostic trial","","j","6","6","false","false","RIGHT","j","1","LEFT","false","","",""
"","html-keyboard-response","292","337691","0.0-383.0","2kvo513m","2048","1152","","","","","","","","","","","null","+","Fixation - short","","null","","","","","","","","","","","",""
"","html-keyboard-response","293","338113","0.0-384.0","2kvo513m","2048","1152","","","","","","","","","","","422","hyo","Diagnostic trial","","j","6","7","false","false","RIGHT","j","1","LEFT","false","","",""
"","html-keyboard-response","294","338870","0.0-387.0","2kvo513m","2048","1152","","","","","","","","","","","null","+","Fixation - short","","null","","","","","","","","","","","",""
"","html-keyboard-response","295","339349","0.0-388.0","2kvo513m","2048","1152","","","","","","","","","","","479","hyo","Diagnostic trial","","f","6","8","false","true","LEFT","f","1","LEFT","true","","",""
"","html-keyboard-response","296","340112","0.0-391.0","2kvo513m","2048","1152","","","","","","","","","","","null","+","Fixation - short","","null","","","","","","","","","","","",""
"","html-keyboard-response","297","340580","0.0-392.0","2kvo513m","2048","1152","","","","","","","","","","","467","svs","Diagnostic trial","","j","6","9","false","false","RIGHT","j","1","RIGHT","true","","",""
"","html-keyboard-response","298","341346","0.0-395.0","2kvo513m","2048","1152","","","","","","","","","","","null","+","Fixation - short","","null","","","","","","","","","","","",""
"","html-keyboard-response","299","341735","0.0-396.0","2kvo513m","2048","1152","","","","","","","","","","","388","svs","Diagnostic trial","","j","6","10","false","true","LEFT","f","0","RIGHT","false","","",""
"","call-function","300","341735","0.0-398.0-0.0","2kvo513m","","","","","","","","","","","","","","","","","","","","","","","","","","","","",""
"","html-keyboard-response","301","342039","0.0-398.0-1.0","2kvo513m","2048","1152","","","","","","","","","","","null","Wrong","Feedback","","null","","","","","","","","","","","",""
"","call-function","302","342039","0.0-398.0-2.0","2kvo513m","","","","","","","","","","","","","","","","","","","","","","","","","","","","",""
"","html-keyboard-response","303","342794","0.0-399.0","2kvo513m","2048","1152","","","","","","","","","","","null","+","Fixation - short","","null","","","","","","","","","","","",""
"","html-keyboard-response","304","343284","0.0-400.0","2kvo513m","2048","1152","","","","","","","","","","","490","svs","Diagnostic trial","","f","6","11","false","false","RIGHT","j","0","RIGHT","true","","",""
"","call-function","305","343285","0.0-402.0-0.0","2kvo513m","","","","","","","","","","","","","","","","","","","","","","","","","","","","",""
"","html-keyboard-response","306","343593","0.0-402.0-1.0","2kvo513m","2048","1152","","","","","","","","","","","null","Wrong","Feedback","","null","","","","","","","","","","","",""
"","call-function","307","343593","0.0-402.0-2.0","2kvo513m","","","","","","","","","","","","","","","","","","","","","","","","","","","","",""
"","html-keyboard-response","308","344346","0.0-403.0","2kvo513m","2048","1152","","","","","","","","","","","null","+","Fixation - short","","null","","","","","","","","","","","",""
"","html-keyboard-response","309","345016","0.0-404.0","2kvo513m","2048","1152","","","","","","","","","","","669","svs","Inducer trial","","j","6","","true","","","","1","","","","",""
"","html-keyboard-response","310","346528","0.0-407.0","2kvo513m","2048","1152","","","","","","","","","","","null","+","Fixation - long","","null","","","","","","","","","","","",""
"","html-keyboard-response","311","351329","0.0-408.0","2kvo513m","2048","1152","","","","","","","","","","","4800","If oac press LEFT | If re8 press RIGHT","Inducer instructions",""," ","7","","","","","","","","","","",""
"","html-keyboard-response","312","352086","0.0-409.0","2kvo513m","2048","1152","","","","","","","","","","","null","+","Fixation - short","","null","","","","","","","","","","","",""
"","html-keyboard-response","313","352629","0.0-410.0","2kvo513m","2048","1152","","","","","","","","","","","542","re8","Diagnostic trial","","j","7","0","false","false","RIGHT","j","1","RIGHT","true","","",""
"","html-keyboard-response","314","353387","0.0-413.0","2kvo513m","2048","1152","","","","","","","","","","","null","+","Fixation - short","","null","","","","","","","","","","","",""
"","html-keyboard-response","315","353885","0.0-414.0","2kvo513m","2048","1152","","","","","","","","","","","496","oac","Diagnostic trial","","f","7","1","false","true","LEFT","f","1","LEFT","true","","",""
"","html-keyboard-response","316","354645","0.0-417.0","2kvo513m","2048","1152","","","","","","","","","","","null","+","Fixation - short","","null","","","","","","","","","","","",""
"","html-keyboard-response","317","355365","0.0-418.0","2kvo513m","2048","1152","","","","","","","","","","","718","oac","Diagnostic trial","","j","7","2","false","false","RIGHT","j","1","LEFT","false","","",""
"","html-keyboard-response","318","356118","0.0-421.0","2kvo513m","2048","1152","","","","","","","","","","","null","+","Fixation - short","","null","","","","","","","","","","","",""
"","html-keyboard-response","319","356581","0.0-422.0","2kvo513m","2048","1152","","","","","","","","","","","462","oac","Diagnostic trial","","j","7","3","false","false","RIGHT","j","1","LEFT","false","","",""
"","html-keyboard-response","320","357339","0.0-425.0","2kvo513m","2048","1152","","","","","","","","","","","null","+","Fixation - short","","null","","","","","","","","","","","",""
"","html-keyboard-response","321","357940","0.0-426.0","2kvo513m","2048","1152","","","","","","","","","","","600","re8","Diagnostic trial","","f","7","4","false","false","RIGHT","j","0","RIGHT","true","","",""
"","call-function","322","357941","0.0-428.0-0.0","2kvo513m","","","","","","","","","","","","","","","","","","","","","","","","","","","","",""
"","html-keyboard-response","323","358250","0.0-428.0-1.0","2kvo513m","2048","1152","","","","","","","","","","","null","Wrong","Feedback","","null","","","","","","","","","","","",""
"","call-function","324","358251","0.0-428.0-2.0","2kvo513m","","","","","","","","","","","","","","","","","","","","","","","","","","","","",""
"","html-keyboard-response","325","359004","0.0-429.0","2kvo513m","2048","1152","","","","","","","","","","","null","+","Fixation - short","","null","","","","","","","","","","","",""
"","html-keyboard-response","326","359442","0.0-430.0","2kvo513m","2048","1152","","","","","","","","","","","437","oac","Diagnostic trial","","j","7","5","false","false","RIGHT","j","1","LEFT","false","","",""
"","html-keyboard-response","327","360203","0.0-433.0","2kvo513m","2048","1152","","","","","","","","","","","null","+","Fixation - short","","null","","","","","","","","","","","",""
"","html-keyboard-response","328","360682","0.0-434.0","2kvo513m","2048","1152","","","","","","","","","","","479","oac","Diagnostic trial","","f","7","6","false","true","LEFT","f","1","LEFT","true","","",""
"","html-keyboard-response","329","361437","0.0-437.0","2kvo513m","2048","1152","","","","","","","","","","","null","+","Fixation - short","","null","","","","","","","","","","","",""
"","html-keyboard-response","330","362102","0.0-438.0","2kvo513m","2048","1152","","","","","","","","","","","665","re8","Inducer trial","","j","7","","true","","","","1","","","","",""
"","html-keyboard-response","331","363607","0.0-441.0","2kvo513m","2048","1152","","","","","","","","","","","null","+","Fixation - long","","null","","","","","","","","","","","",""
"","html-keyboard-response","332","369800","0.0-442.0","2kvo513m","2048","1152","","","","","","","","","","","6191","If k5u press LEFT | If umf press RIGHT","Inducer instructions",""," ","8","","","","","","","","","","",""
"","html-keyboard-response","333","370562","0.0-443.0","2kvo513m","2048","1152","","","","","","","","","","","null","+","Fixation - short","","null","","","","","","","","","","","",""
"","html-keyboard-response","334","371046","0.0-444.0","2kvo513m","2048","1152","","","","","","","","","","","483","k5u","Diagnostic trial","","j","8","0","false","false","RIGHT","j","1","LEFT","false","","",""
"","html-keyboard-response","335","371800","0.0-447.0","2kvo513m","2048","1152","","","","","","","","","","","null","+","Fixation - short","","null","","","","","","","","","","","",""
"","html-keyboard-response","336","372359","0.0-448.0","2kvo513m","2048","1152","","","","","","","","","","","557","k5u","Diagnostic trial","","f","8","1","false","true","LEFT","f","1","LEFT","true","","",""
"","html-keyboard-response","337","373118","0.0-451.0","2kvo513m","2048","1152","","","","","","","","","","","null","+","Fixation - short","","null","","","","","","","","","","","",""
"","html-keyboard-response","338","373735","0.0-452.0","2kvo513m","2048","1152","","","","","","","","","","","615","k5u","Diagnostic trial","","j","8","2","false","false","RIGHT","j","1","LEFT","false","","",""
"","html-keyboard-response","339","374498","0.0-455.0","2kvo513m","2048","1152","","","","","","","","","","","null","+","Fixation - short","","null","","","","","","","","","","","",""
"","html-keyboard-response","340","375033","0.0-456.0","2kvo513m","2048","1152","","","","","","","","","","","535","k5u","Diagnostic trial","","j","8","3","false","false","RIGHT","j","1","LEFT","false","","",""
"","html-keyboard-response","341","375787","0.0-459.0","2kvo513m","2048","1152","","","","","","","","","","","null","+","Fixation - short","","null","","","","","","","","","","","",""
"","html-keyboard-response","342","376336","0.0-460.0","2kvo513m","2048","1152","","","","","","","","","","","548","umf","Diagnostic trial","","f","8","4","false","false","RIGHT","j","0","RIGHT","true","","",""
"","call-function","343","376336","0.0-462.0-0.0","2kvo513m","","","","","","","","","","","","","","","","","","","","","","","","","","","","",""
"","html-keyboard-response","344","376639","0.0-462.0-1.0","2kvo513m","2048","1152","","","","","","","","","","","null","Wrong","Feedback","","null","","","","","","","","","","","",""
"","call-function","345","376640","0.0-462.0-2.0","2kvo513m","","","","","","","","","","","","","","","","","","","","","","","","","","","","",""
"","html-keyboard-response","346","377392","0.0-463.0","2kvo513m","2048","1152","","","","","","","","","","","null","+","Fixation - short","","null","","","","","","","","","","","",""
"","html-keyboard-response","347","378208","0.0-464.0","2kvo513m","2048","1152","","","","","","","","","","","815","k5u","Diagnostic trial","","j","8","5","false","false","RIGHT","j","1","LEFT","false","","",""
"","html-keyboard-response","348","378967","0.0-467.0","2kvo513m","2048","1152","","","","","","","","","","","null","+","Fixation - short","","null","","","","","","","","","","","",""
"","html-keyboard-response","349","379725","0.0-468.0","2kvo513m","2048","1152","","","","","","","","","","","757","umf","Diagnostic trial","","f","8","6","false","true","LEFT","f","1","RIGHT","false","","",""
"","html-keyboard-response","350","380485","0.0-471.0","2kvo513m","2048","1152","","","","","","","","","","","null","+","Fixation - short","","null","","","","","","","","","","","",""
"","html-keyboard-response","351","381108","0.0-472.0","2kvo513m","2048","1152","","","","","","","","","","","621","umf","Diagnostic trial","","j","8","7","false","true","LEFT","f","0","RIGHT","false","","",""
"","call-function","352","381109","0.0-474.0-0.0","2kvo513m","","","","","","","","","","","","","","","","","","","","","","","","","","","","",""
"","html-keyboard-response","353","381415","0.0-474.0-1.0","2kvo513m","2048","1152","","","","","","","","","","","null","Wrong","Feedback","","null","","","","","","","","","","","",""
"","call-function","354","381416","0.0-474.0-2.0","2kvo513m","","","","","","","","","","","","","","","","","","","","","","","","","","","","",""
"","html-keyboard-response","355","382179","0.0-475.0","2kvo513m","2048","1152","","","","","","","","","","","null","+","Fixation - short","","null","","","","","","","","","","","",""
"","html-keyboard-response","356","382984","0.0-476.0","2kvo513m","2048","1152","","","","","","","","","","","804","k5u","Diagnostic trial","","f","8","8","false","true","LEFT","f","1","LEFT","true","","",""
"","html-keyboard-response","357","383749","0.0-479.0","2kvo513m","2048","1152","","","","","","","","","","","null","+","Fixation - short","","null","","","","","","","","","","","",""
"","html-keyboard-response","358","384339","0.0-480.0","2kvo513m","2048","1152","","","","","","","","","","","589","umf","Diagnostic trial","","j","8","9","false","false","RIGHT","j","1","RIGHT","true","","",""
"","html-keyboard-response","359","385094","0.0-483.0","2kvo513m","2048","1152","","","","","","","","","","","null","+","Fixation - short","","null","","","","","","","","","","","",""
"","html-keyboard-response","360","385612","0.0-484.0","2kvo513m","2048","1152","","","","","","","","","","","517","umf","Diagnostic trial","","j","8","10","false","false","RIGHT","j","1","RIGHT","true","","",""
"","html-keyboard-response","361","386373","0.0-487.0","2kvo513m","2048","1152","","","","","","","","","","","null","+","Fixation - short","","null","","","","","","","","","","","",""
"","html-keyboard-response","362","387098","0.0-488.0","2kvo513m","2048","1152","","","","","","","","","","","725","k5u","Diagnostic trial","","j","8","11","false","false","RIGHT","j","1","LEFT","false","","",""
"","html-keyboard-response","363","387857","0.0-491.0","2kvo513m","2048","1152","","","","","","","","","","","null","+","Fixation - short","","null","","","","","","","","","","","",""
"","html-keyboard-response","364","388385","0.0-492.0","2kvo513m","2048","1152","","","","","","","","","","","527","umf","Diagnostic trial","","f","8","12","false","true","LEFT","f","1","RIGHT","false","","",""
"","html-keyboard-response","365","389150","0.0-495.0","2kvo513m","2048","1152","","","","","","","","","","","null","+","Fixation - short","","null","","","","","","","","","","","",""
"","html-keyboard-response","366","389838","0.0-496.0","2kvo513m","2048","1152","","","","","","","","","","","687","umf","Inducer trial","","f","8","","true","","","","0","","","","",""
"","call-function","367","389839","0.0-498.0-0.0","2kvo513m","","","","","","","","","","","","","","","","","","","","","","","","","","","","",""
"","html-keyboard-response","368","390153","0.0-498.0-1.0","2kvo513m","2048","1152","","","","","","","","","","","null","Wrong","Feedback","","null","","","","","","","","","","","",""
"","call-function","369","390153","0.0-498.0-2.0","2kvo513m","","","","","","","","","","","","","","","","","","","","","","","","","","","","",""
"","html-keyboard-response","370","391670","0.0-499.0","2kvo513m","2048","1152","","","","","","","","","","","null","+","Fixation - long","","null","","","","","","","","","","","",""
"","html-keyboard-response","371","398599","0.0-500.0","2kvo513m","2048","1152","","","","","","","","","","","6928","If ibb press LEFT | If wue press RIGHT","Inducer instructions",""," ","9","","","","","","","","","","",""
"","html-keyboard-response","372","399363","0.0-501.0","2kvo513m","2048","1152","","","","","","","","","","","null","+","Fixation - short","","null","","","","","","","","","","","",""
"","html-keyboard-response","373","399986","0.0-502.0","2kvo513m","2048","1152","","","","","","","","","","","622","wue","Diagnostic trial","","j","9","0","false","false","RIGHT","j","1","RIGHT","true","","",""
"","html-keyboard-response","374","400744","0.0-505.0","2kvo513m","2048","1152","","","","","","","","","","","null","+","Fixation - short","","null","","","","","","","","","","","",""
"","html-keyboard-response","375","401103","0.0-506.0","2kvo513m","2048","1152","","","","","","","","","","","358","wue","Diagnostic trial","","j","9","1","false","true","LEFT","f","0","RIGHT","false","","",""
"","call-function","376","401104","0.0-508.0-0.0","2kvo513m","","","","","","","","","","","","","","","","","","","","","","","","","","","","",""
"","html-keyboard-response","377","401416","0.0-508.0-1.0","2kvo513m","2048","1152","","","","","","","","","","","null","Wrong","Feedback","","null","","","","","","","","","","","",""
"","call-function","378","401417","0.0-508.0-2.0","2kvo513m","","","","","","","","","","","","","","","","","","","","","","","","","","","","",""
"","html-keyboard-response","379","402174","0.0-509.0","2kvo513m","2048","1152","","","","","","","","","","","null","+","Fixation - short","","null","","","","","","","","","","","",""
"","html-keyboard-response","380","402734","0.0-510.0","2kvo513m","2048","1152","","","","","","","","","","","559","ibb","Diagnostic trial","","f","9","2","false","true","LEFT","f","1","LEFT","true","","",""
"","html-keyboard-response","381","403501","0.0-513.0","2kvo513m","2048","1152","","","","","","","","","","","null","+","Fixation - short","","null","","","","","","","","","","","",""
"","html-keyboard-response","382","403956","0.0-514.0","2kvo513m","2048","1152","","","","","","","","","","","455","wue","Diagnostic trial","","j","9","3","false","false","RIGHT","j","1","RIGHT","true","","",""
"","html-keyboard-response","383","404714","0.0-517.0","2kvo513m","2048","1152","","","","","","","","","","","null","+","Fixation - short","","null","","","","","","","","","","","",""
"","html-keyboard-response","384","405109","0.0-518.0","2kvo513m","2048","1152","","","","","","","","","","","393","wue","Inducer trial","","f","9","","true","","","","0","","","","",""
"","call-function","385","405110","0.0-520.0-0.0","2kvo513m","","","","","","","","","","","","","","","","","","","","","","","","","","","","",""
"","html-keyboard-response","386","405421","0.0-520.0-1.0","2kvo513m","2048","1152","","","","","","","","","","","null","Wrong","Feedback","","null","","","","","","","","","","","",""
"","call-function","387","405422","0.0-520.0-2.0","2kvo513m","","","","","","","","","","","","","","","","","","","","","","","","","","","","",""
"","html-keyboard-response","388","406925","0.0-521.0","2kvo513m","2048","1152","","","","","","","","","","","null","+","Fixation - long","","null","","","","","","","","","","","",""
"","html-keyboard-response","389","412617","0.0-522.0","2kvo513m","2048","1152","","","","","","","","","","","5691","If sbk press LEFT | If lst press RIGHT","Inducer instructions",""," ","10","","","","","","","","","","",""
"","html-keyboard-response","390","413371","0.0-523.0","2kvo513m","2048","1152","","","","","","","","","","","null","+","Fixation - short","","null","","","","","","","","","","","",""
"","html-keyboard-response","391","413962","0.0-524.0","2kvo513m","2048","1152","","","","","","","","","","","590","sbk","Diagnostic trial","","j","10","0","false","true","LEFT","f","0","LEFT","true","","",""
"","call-function","392","413962","0.0-526.0-0.0","2kvo513m","","","","","","","","","","","","","","","","","","","","","","","","","","","","",""
"","html-keyboard-response","393","414267","0.0-526.0-1.0","2kvo513m","2048","1152","","","","","","","","","","","null","Wrong","Feedback","","null","","","","","","","","","","","",""
"","call-function","394","414268","0.0-526.0-2.0","2kvo513m","","","","","","","","","","","","","","","","","","","","","","","","","","","","",""
"","html-keyboard-response","395","415034","0.0-527.0","2kvo513m","2048","1152","","","","","","","","","","","null","+","Fixation - short","","null","","","","","","","","","","","",""
"","html-keyboard-response","396","415484","0.0-528.0","2kvo513m","2048","1152","","","","","","","","","","","449","lst","Diagnostic trial","","j","10","1","false","false","RIGHT","j","1","RIGHT","true","","",""
"","html-keyboard-response","397","416246","0.0-531.0","2kvo513m","2048","1152","","","","","","","","","","","null","+","Fixation - short","","null","","","","","","","","","","","",""
"","html-keyboard-response","398","416793","0.0-532.0","2kvo513m","2048","1152","","","","","","","","","","","546","sbk","Diagnostic trial","","f","10","2","false","false","RIGHT","j","0","LEFT","false","","",""
"","call-function","399","416794","0.0-534.0-0.0","2kvo513m","","","","","","","","","","","","","","","","","","","","","","","","","","","","",""
"","html-keyboard-response","400","417107","0.0-534.0-1.0","2kvo513m","2048","1152","","","","","","","","","","","null","Wrong","Feedback","","null","","","","","","","","","","","",""
"","call-function","401","417108","0.0-534.0-2.0","2kvo513m","","","","","","","","","","","","","","","","","","","","","","","","","","","","",""
"","html-keyboard-response","402","417875","0.0-535.0","2kvo513m","2048","1152","","","","","","","","","","","null","+","Fixation - short","","null","","","","","","","","","","","",""
"","html-keyboard-response","403","418339","0.0-536.0","2kvo513m","2048","1152","","","","","","","","","","","463","lst","Diagnostic trial","","j","10","3","false","false","RIGHT","j","1","RIGHT","true","","",""
"","html-keyboard-response","404","419091","0.0-539.0","2kvo513m","2048","1152","","","","","","","","","","","null","+","Fixation - short","","null","","","","","","","","","","","",""
"","html-keyboard-response","405","419504","0.0-540.0","2kvo513m","2048","1152","","","","","","","","","","","413","sbk","Diagnostic trial","","j","10","4","false","false","RIGHT","j","1","LEFT","false","","",""
"","html-keyboard-response","406","420257","0.0-543.0","2kvo513m","2048","1152","","","","","","","","","","","null","+","Fixation - short","","null","","","","","","","","","","","",""
"","html-keyboard-response","407","420713","0.0-544.0","2kvo513m","2048","1152","","","","","","","","","","","455","sbk","Diagnostic trial","","f","10","5","false","true","LEFT","f","1","LEFT","true","","",""
"","html-keyboard-response","408","421468","0.0-547.0","2kvo513m","2048","1152","","","","","","","","","","","null","+","Fixation - short","","null","","","","","","","","","","","",""
"","html-keyboard-response","409","422080","0.0-548.0","2kvo513m","2048","1152","","","","","","","","","","","611","lst","Diagnostic trial","","j","10","6","false","false","RIGHT","j","1","RIGHT","true","","",""
"","html-keyboard-response","410","422835","0.0-551.0","2kvo513m","2048","1152","","","","","","","","","","","null","+","Fixation - short","","null","","","","","","","","","","","",""
"","html-keyboard-response","411","423536","0.0-552.0","2kvo513m","2048","1152","","","","","","","","","","","699","sbk","Inducer trial","","j","10","","true","","","","0","","","","",""
"","call-function","412","423537","0.0-554.0-0.0","2kvo513m","","","","","","","","","","","","","","","","","","","","","","","","","","","","",""
"","html-keyboard-response","413","423848","0.0-554.0-1.0","2kvo513m","2048","1152","","","","","","","","","","","null","Wrong","Feedback","","null","","","","","","","","","","","",""
"","call-function","414","423848","0.0-554.0-2.0","2kvo513m","","","","","","","","","","","","","","","","","","","","","","","","","","","","",""
"","html-keyboard-response","415","425351","0.0-555.0","2kvo513m","2048","1152","","","","","","","","","","","null","+","Fixation - long","","null","","","","","","","","","","","",""
"","call-function","416","425352","0.0-556.0","2kvo513m","","","","","","","","","","","","","","","","","","","","","","","","","","","","",""
"","survey","417","1183841","0.0-557.0","2kvo513m","2048","1152","","","","","","","","","","","758453","feedback","Feedback","","{""open_feedback"":""no""}","","","","","","","","","","[]","no","[{""event"":""focus"",""trial"":2,""time"":11347},{""event"":""fullscreenenter"",""trial"":3,""time"":67559},{""event"":""blur"",""trial"":417,""time"":650506},{""event"":""focus"",""trial"":417,""time"":676327}]"
