"value","trial_type","trial_index","time_elapsed","internal_node_id","id","width","height","webaudio","browser","browser_version","mobile","os","fullscreen","vsync_rate","webcam","microphone","view_history","rt","stimulus","trial_info","success","response","inducer_run","diagnostic_run","inducer_trial","italic","correct_diag_response_side","correct_response_key","correct_response","correct_inducer_response_side","congruent","accuracy","open_feedback","interactive"
"","call-function","0","3","0.0-0.0","o6g1w3c4","","","","","","","","","","","","","","","","","","","","","","","","","","","","",""
"","browser-check","1","1011","0.0-1.0","o6g1w3c4","1232","598","true","edge-chromium","120.0.0","false","Windows 10","true","60.04","true","true","","","","","","","","","","","","","","","","","",""
"","instructions","2","62834","0.0-2.0","o6g1w3c4","","","","","","","","","","","","[{""page_index"":0,""viewing_time"":12079},{""page_index"":1,""viewing_time"":21682},{""page_index"":2,""viewing_time"":28058}]","61821","The experiment and consent","The experiment and consent","","","","","","","","","","","","","",""
"","fullscreen","3","72318","0.0-3.0","o6g1w3c4","1280","720","","","","","","","","","","","8472","","Full screen","true","","","","","","","","","","","","",""
"","instructions","4","116823","0.0-4.0","o6g1w3c4","1280","720","","","","","","","","","","[{""page_index"":0,""viewing_time"":26095},{""page_index"":1,""viewing_time"":18408}]","44504","Instructions","Basic overview explanation","","","","","","","","","","","","","",""
"","html-keyboard-response","5","129480","0.0-5.0","o6g1w3c4","1280","720","","","","","","","","","","","11143","If italic press LEFT | If upright press RIGHT","Diagnostic instructions",""," ","","","","","","","","","","","",""
"","html-keyboard-response","6","130240","0.0-6.0","o6g1w3c4","1280","720","","","","","","","","","","","null","+","Fixation - short","","null","","","","","","","","","","","",""
"","html-keyboard-response","7","130975","0.0-7.0","o6g1w3c4","1280","720","","","","","","","","","","","734","adj","Practice diganostic trial","","f","practice","0","false","1","RIGHT","j","0","","","","",""
"","call-function","8","130976","0.0-9.0-0.0","o6g1w3c4","","","","","","","","","","","","","","","","","","","","","","","","","","","","",""
"","html-keyboard-response","9","131288","0.0-9.0-1.0","o6g1w3c4","1280","720","","","","","","","","","","","null","Wrong","Feedback","","null","","","","","","","","","","","",""
"","call-function","10","131289","0.0-9.0-2.0","o6g1w3c4","","","","","","","","","","","","","","","","","","","","","","","","","","","","",""
"","html-keyboard-response","11","132048","0.0-10.0","o6g1w3c4","1280","720","","","","","","","","","","","null","+","Fixation - short","","null","","","","","","","","","","","",""
"","html-keyboard-response","12","132611","0.0-11.0","o6g1w3c4","1280","720","","","","","","","","","","","562","gdn","Practice diganostic trial","","j","practice","1","false","","RIGHT","j","1","","","","",""
"","html-keyboard-response","13","133378","0.0-14.0","o6g1w3c4","1280","720","","","","","","","","","","","null","+","Fixation - short","","null","","","","","","","","","","","",""
"","html-keyboard-response","14","133887","0.0-15.0","o6g1w3c4","1280","720","","","","","","","","","","","509","adj","Practice diganostic trial","","j","practice","2","false","","RIGHT","j","1","","","","",""
"","html-keyboard-response","15","134653","0.0-18.0","o6g1w3c4","1280","720","","","","","","","","","","","null","+","Fixation - short","","null","","","","","","","","","","","",""
"","html-keyboard-response","16","135015","0.0-19.0","o6g1w3c4","1280","720","","","","","","","","","","","362","adj","Practice diganostic trial","","j","practice","3","false","","RIGHT","j","1","","","","",""
"","html-keyboard-response","17","135781","0.0-22.0","o6g1w3c4","1280","720","","","","","","","","","","","null","+","Fixation - short","","null","","","","","","","","","","","",""
"","html-keyboard-response","18","136114","0.0-23.0","o6g1w3c4","1280","720","","","","","","","","","","","333","gdn","Practice diganostic trial","","j","practice","4","false","","RIGHT","j","1","","","","",""
"","html-keyboard-response","19","136879","0.0-26.0","o6g1w3c4","1280","720","","","","","","","","","","","null","+","Fixation - short","","null","","","","","","","","","","","",""
"","html-keyboard-response","20","137167","0.0-27.0","o6g1w3c4","1280","720","","","","","","","","","","","287","adj","Practice diganostic trial","","j","practice","5","false","","RIGHT","j","1","","","","",""
"","html-keyboard-response","21","137933","0.0-30.0","o6g1w3c4","1280","720","","","","","","","","","","","null","+","Fixation - short","","null","","","","","","","","","","","",""
"","html-keyboard-response","22","138221","0.0-31.0","o6g1w3c4","1280","720","","","","","","","","","","","286","gdn","Practice diganostic trial","","j","practice","6","false","","RIGHT","j","1","","","","",""
"","html-keyboard-response","23","138987","0.0-34.0","o6g1w3c4","1280","720","","","","","","","","","","","null","+","Fixation - short","","null","","","","","","","","","","","",""
"","html-keyboard-response","24","139244","0.0-35.0","o6g1w3c4","1280","720","","","","","","","","","","","256","gdn","Practice diganostic trial","","j","practice","7","false","","RIGHT","j","1","","","","",""
"","html-keyboard-response","25","140011","0.0-38.0","o6g1w3c4","1280","720","","","","","","","","","","","null","+","Fixation - short","","null","","","","","","","","","","","",""
"","html-keyboard-response","26","140291","0.0-39.0","o6g1w3c4","1280","720","","","","","","","","","","","280","adj","Practice diganostic trial","","j","practice","8","false","","RIGHT","j","1","","","","",""
"","html-keyboard-response","27","141052","0.0-42.0","o6g1w3c4","1280","720","","","","","","","","","","","null","+","Fixation - short","","null","","","","","","","","","","","",""
"","html-keyboard-response","28","141327","0.0-43.0","o6g1w3c4","1280","720","","","","","","","","","","","275","gdn","Practice diganostic trial","","j","practice","9","false","","RIGHT","j","1","","","","",""
"","html-keyboard-response","29","142087","0.0-46.0","o6g1w3c4","1280","720","","","","","","","","","","","null","+","Fixation - short","","null","","","","","","","","","","","",""
"","html-keyboard-response","30","142287","0.0-47.0","o6g1w3c4","1280","720","","","","","","","","","","","199","adj","Practice diganostic trial","","j","practice","10","false","","RIGHT","j","1","","","","",""
"","html-keyboard-response","31","143051","0.0-50.0","o6g1w3c4","1280","720","","","","","","","","","","","null","+","Fixation - short","","null","","","","","","","","","","","",""
"","html-keyboard-response","32","143327","0.0-51.0","o6g1w3c4","1280","720","","","","","","","","","","","274","gdn","Practice diganostic trial","","j","practice","11","false","","RIGHT","j","1","","","","",""
"","html-keyboard-response","33","144093","0.0-54.0","o6g1w3c4","1280","720","","","","","","","","","","","null","+","Fixation - short","","null","","","","","","","","","","","",""
"","html-keyboard-response","34","144372","0.0-55.0","o6g1w3c4","1280","720","","","","","","","","","","","278","gdn","Practice diganostic trial","","j","practice","12","false","","RIGHT","j","1","","","","",""
"","html-keyboard-response","35","145137","0.0-58.0","o6g1w3c4","1280","720","","","","","","","","","","","null","+","Fixation - short","","null","","","","","","","","","","","",""
"","html-keyboard-response","36","145356","0.0-59.0","o6g1w3c4","1280","720","","","","","","","","","","","219","adj","Practice diganostic trial","","j","practice","13","false","","RIGHT","j","1","","","","",""
"","html-keyboard-response","37","146121","0.0-62.0","o6g1w3c4","1280","720","","","","","","","","","","","null","+","Fixation - short","","null","","","","","","","","","","","",""
"","html-keyboard-response","38","146366","0.0-63.0","o6g1w3c4","1280","720","","","","","","","","","","","244","adj","Practice diganostic trial","","j","practice","14","false","","RIGHT","j","1","","","","",""
"","html-keyboard-response","39","147133","0.0-66.0","o6g1w3c4","1280","720","","","","","","","","","","","null","+","Fixation - short","","null","","","","","","","","","","","",""
"","instructions","40","177871","0.0-67.0","o6g1w3c4","1280","720","","","","","","","","","","[{""page_index"":0,""viewing_time"":30738}]","30738","Instructions","Final experiment explanation","","","","","","","","","","","","","",""
"","html-keyboard-response","41","190252","0.0-68.0","o6g1w3c4","1280","720","","","","","","","","","","","10879","If saj press LEFT | If jft press RIGHT","Practice inducer instructions",""," ","practice","","","","","","","","","","",""
"","html-keyboard-response","42","190805","0.0-69.0","o6g1w3c4","1280","720","","","","","","","","","","","551","saj","Practice inducer trial","","j","practice","","true","","","","0","","","","",""
"","call-function","43","190807","0.0-71.0-0.0","o6g1w3c4","","","","","","","","","","","","","","","","","","","","","","","","","","","","",""
"","html-keyboard-response","44","191117","0.0-71.0-1.0","o6g1w3c4","1280","720","","","","","","","","","","","null","Wrong","Feedback","","null","","","","","","","","","","","",""
"","call-function","45","191117","0.0-71.0-2.0","o6g1w3c4","","","","","","","","","","","","","","","","","","","","","","","","","","","","",""
"","html-keyboard-response","46","191873","0.0-72.0","o6g1w3c4","1280","720","","","","","","","","","","","null","+","Fixation - short","","null","","","","","","","","","","","",""
"","html-keyboard-response","47","200646","0.0-73.0","o6g1w3c4","1280","720","","","","","","","","","","","8772","If faq press LEFT | If yoy press RIGHT","Practice inducer instructions",""," ","practice","","","","","","","","","","",""
"","html-keyboard-response","48","201268","0.0-74.0","o6g1w3c4","1280","720","","","","","","","","","","","620","faq","Practice inducer trial","","f","practice","","true","","","","1","","","","",""
"","html-keyboard-response","49","202034","0.0-77.0","o6g1w3c4","1280","720","","","","","","","","","","","null","+","Fixation - short","","null","","","","","","","","","","","",""
"","html-keyboard-response","50","204309","0.0-78.0","o6g1w3c4","1280","720","","","","","","","","","","","2274","If vrm press LEFT | If zpl press RIGHT","Practice inducer instructions",""," ","practice","","","","","","","","","","",""
"","html-keyboard-response","51","205500","0.0-79.0","o6g1w3c4","1280","720","","","","","","","","","","","1189","zpl","Practice inducer trial","","j","practice","","true","","","","1","","","","",""
"","html-keyboard-response","52","206282","0.0-82.0","o6g1w3c4","1280","720","","","","","","","","","","","null","+","Fixation - short","","null","","","","","","","","","","","",""
"","html-keyboard-response","53","212029","0.0-83.0","o6g1w3c4","1280","720","","","","","","","","","","","5746","If pmf press LEFT | If pcm press RIGHT","Practice inducer instructions",""," ","practice","","","","","","","","","","",""
"","html-keyboard-response","54","213106","0.0-84.0","o6g1w3c4","1280","720","","","","","","","","","","","1076","pcm","Practice inducer trial","","j","practice","","true","","","","1","","","","",""
"","html-keyboard-response","55","213873","0.0-87.0","o6g1w3c4","1280","720","","","","","","","","","","","null","+","Fixation - short","","null","","","","","","","","","","","",""
"","html-keyboard-response","56","250186","0.0-88.0","o6g1w3c4","1280","720","","","","","","","","","","","36312","End practice","End of practice",""," ","","","","","","","","","","","",""
"","html-keyboard-response","57","251700","0.0-89.0","o6g1w3c4","1280","720","","","","","","","","","","","null","+","Fixation - long","","null","","","","","","","","","","","",""
"","html-keyboard-response","58","258494","0.0-90.0","o6g1w3c4","1280","720","","","","","","","","","","","6792","If fja press LEFT | If dul press RIGHT","Inducer instructions",""," ","0","","","","","","","","","","",""
"","html-keyboard-response","59","259259","0.0-91.0","o6g1w3c4","1280","720","","","","","","","","","","","null","+","Fixation - short","","null","","","","","","","","","","","",""
"","html-keyboard-response","60","259890","0.0-92.0","o6g1w3c4","1280","720","","","","","","","","","","","630","fja","Diagnostic trial","","f","0","0","false","true","LEFT","f","1","LEFT","true","","",""
"","html-keyboard-response","61","260651","0.0-95.0","o6g1w3c4","1280","720","","","","","","","","","","","null","+","Fixation - short","","null","","","","","","","","","","","",""
"","html-keyboard-response","62","261144","0.0-96.0","o6g1w3c4","1280","720","","","","","","","","","","","492","dul","Diagnostic trial","","j","0","1","false","false","RIGHT","j","1","RIGHT","true","","",""
"","html-keyboard-response","63","261910","0.0-99.0","o6g1w3c4","1280","720","","","","","","","","","","","null","+","Fixation - short","","null","","","","","","","","","","","",""
"","html-keyboard-response","64","262352","0.0-100.0","o6g1w3c4","1280","720","","","","","","","","","","","441","dul","Diagnostic trial","","j","0","2","false","true","LEFT","f","0","RIGHT","false","","",""
"","call-function","65","262353","0.0-102.0-0.0","o6g1w3c4","","","","","","","","","","","","","","","","","","","","","","","","","","","","",""
"","html-keyboard-response","66","262663","0.0-102.0-1.0","o6g1w3c4","1280","720","","","","","","","","","","","null","Wrong","Feedback","","null","","","","","","","","","","","",""
"","call-function","67","262664","0.0-102.0-2.0","o6g1w3c4","","","","","","","","","","","","","","","","","","","","","","","","","","","","",""
"","html-keyboard-response","68","263430","0.0-103.0","o6g1w3c4","1280","720","","","","","","","","","","","null","+","Fixation - short","","null","","","","","","","","","","","",""
"","html-keyboard-response","69","263941","0.0-104.0","o6g1w3c4","1280","720","","","","","","","","","","","510","dul","Diagnostic trial","","j","0","3","false","false","RIGHT","j","1","RIGHT","true","","",""
"","html-keyboard-response","70","264705","0.0-107.0","o6g1w3c4","1280","720","","","","","","","","","","","null","+","Fixation - short","","null","","","","","","","","","","","",""
"","html-keyboard-response","71","265193","0.0-108.0","o6g1w3c4","1280","720","","","","","","","","","","","487","fja","Diagnostic trial","","f","0","4","false","true","LEFT","f","1","LEFT","true","","",""
"","html-keyboard-response","72","265953","0.0-111.0","o6g1w3c4","1280","720","","","","","","","","","","","null","+","Fixation - short","","null","","","","","","","","","","","",""
"","html-keyboard-response","73","266497","0.0-112.0","o6g1w3c4","1280","720","","","","","","","","","","","543","fja","Diagnostic trial","","f","0","5","false","true","LEFT","f","1","LEFT","true","","",""
"","html-keyboard-response","74","267258","0.0-115.0","o6g1w3c4","1280","720","","","","","","","","","","","null","+","Fixation - short","","null","","","","","","","","","","","",""
"","html-keyboard-response","75","267616","0.0-116.0","o6g1w3c4","1280","720","","","","","","","","","","","356","dul","Diagnostic trial","","j","0","6","false","false","RIGHT","j","1","RIGHT","true","","",""
"","html-keyboard-response","76","268377","0.0-119.0","o6g1w3c4","1280","720","","","","","","","","","","","null","+","Fixation - short","","null","","","","","","","","","","","",""
"","html-keyboard-response","77","268874","0.0-120.0","o6g1w3c4","1280","720","","","","","","","","","","","496","fja","Inducer trial","","f","0","","true","","","","1","","","","",""
"","html-keyboard-response","78","270378","0.0-123.0","o6g1w3c4","1280","720","","","","","","","","","","","null","+","Fixation - long","","null","","","","","","","","","","","",""
"","html-keyboard-response","79","283407","0.0-124.0","o6g1w3c4","1280","720","","","","","","","","","","","13028","If psl press LEFT | If yna press RIGHT","Inducer instructions",""," ","1","","","","","","","","","","",""
"","html-keyboard-response","80","284159","0.0-125.0","o6g1w3c4","1280","720","","","","","","","","","","","null","+","Fixation - short","","null","","","","","","","","","","","",""
"","html-keyboard-response","81","284926","0.0-126.0","o6g1w3c4","1280","720","","","","","","","","","","","766","psl","Diagnostic trial","","f","1","0","false","true","LEFT","f","1","LEFT","true","","",""
"","html-keyboard-response","82","285684","0.0-129.0","o6g1w3c4","1280","720","","","","","","","","","","","null","+","Fixation - short","","null","","","","","","","","","","","",""
"","html-keyboard-response","83","286246","0.0-130.0","o6g1w3c4","1280","720","","","","","","","","","","","560","psl","Diagnostic trial","","f","1","1","false","false","RIGHT","j","0","LEFT","false","","",""
"","call-function","84","286246","0.0-132.0-0.0","o6g1w3c4","","","","","","","","","","","","","","","","","","","","","","","","","","","","",""
"","html-keyboard-response","85","286556","0.0-132.0-1.0","o6g1w3c4","1280","720","","","","","","","","","","","null","Wrong","Feedback","","null","","","","","","","","","","","",""
"","call-function","86","286556","0.0-132.0-2.0","o6g1w3c4","","","","","","","","","","","","","","","","","","","","","","","","","","","","",""
"","html-keyboard-response","87","287320","0.0-133.0","o6g1w3c4","1280","720","","","","","","","","","","","null","+","Fixation - short","","null","","","","","","","","","","","",""
"","html-keyboard-response","88","288829","0.0-134.0","o6g1w3c4","1280","720","","","","","","","","","","","1507","yna","Diagnostic trial","","j","1","2","false","true","LEFT","f","0","RIGHT","false","","",""
"","call-function","89","288830","0.0-136.0-0.0","o6g1w3c4","","","","","","","","","","","","","","","","","","","","","","","","","","","","",""
"","html-keyboard-response","90","289139","0.0-136.0-1.0","o6g1w3c4","1280","720","","","","","","","","","","","null","Wrong","Feedback","","null","","","","","","","","","","","",""
"","call-function","91","289143","0.0-136.0-2.0","o6g1w3c4","","","","","","","","","","","","","","","","","","","","","","","","","","","","",""
"","html-keyboard-response","92","289902","0.0-137.0","o6g1w3c4","1280","720","","","","","","","","","","","null","+","Fixation - short","","null","","","","","","","","","","","",""
"","html-keyboard-response","93","290517","0.0-138.0","o6g1w3c4","1280","720","","","","","","","","","","","615","psl","Diagnostic trial","","f","1","3","false","true","LEFT","f","1","LEFT","true","","",""
"","html-keyboard-response","94","291278","0.0-141.0","o6g1w3c4","1280","720","","","","","","","","","","","null","+","Fixation - short","","null","","","","","","","","","","","",""
"","html-keyboard-response","95","291745","0.0-142.0","o6g1w3c4","1280","720","","","","","","","","","","","465","psl","Diagnostic trial","","f","1","4","false","true","LEFT","f","1","LEFT","true","","",""
"","html-keyboard-response","96","292501","0.0-145.0","o6g1w3c4","1280","720","","","","","","","","","","","null","+","Fixation - short","","null","","","","","","","","","","","",""
"","html-keyboard-response","97","293026","0.0-146.0","o6g1w3c4","1280","720","","","","","","","","","","","524","yna","Diagnostic trial","","j","1","5","false","true","LEFT","f","0","RIGHT","false","","",""
"","call-function","98","293027","0.0-148.0-0.0","o6g1w3c4","","","","","","","","","","","","","","","","","","","","","","","","","","","","",""
"","html-keyboard-response","99","293338","0.0-148.0-1.0","o6g1w3c4","1280","720","","","","","","","","","","","null","Wrong","Feedback","","null","","","","","","","","","","","",""
"","call-function","100","293339","0.0-148.0-2.0","o6g1w3c4","","","","","","","","","","","","","","","","","","","","","","","","","","","","",""
"","html-keyboard-response","101","294110","0.0-149.0","o6g1w3c4","1280","720","","","","","","","","","","","null","+","Fixation - short","","null","","","","","","","","","","","",""
"","html-keyboard-response","102","294537","0.0-150.0","o6g1w3c4","1280","720","","","","","","","","","","","427","yna","Diagnostic trial","","f","1","6","false","false","RIGHT","j","0","RIGHT","true","","",""
"","call-function","103","294538","0.0-152.0-0.0","o6g1w3c4","","","","","","","","","","","","","","","","","","","","","","","","","","","","",""
"","html-keyboard-response","104","294849","0.0-152.0-1.0","o6g1w3c4","1280","720","","","","","","","","","","","null","Wrong","Feedback","","null","","","","","","","","","","","",""
"","call-function","105","294849","0.0-152.0-2.0","o6g1w3c4","","","","","","","","","","","","","","","","","","","","","","","","","","","","",""
"","html-keyboard-response","106","295614","0.0-153.0","o6g1w3c4","1280","720","","","","","","","","","","","null","+","Fixation - short","","null","","","","","","","","","","","",""
"","html-keyboard-response","107","296178","0.0-154.0","o6g1w3c4","1280","720","","","","","","","","","","","563","psl","Diagnostic trial","","f","1","7","false","true","LEFT","f","1","LEFT","true","","",""
"","html-keyboard-response","108","296943","0.0-157.0","o6g1w3c4","1280","720","","","","","","","","","","","null","+","Fixation - short","","null","","","","","","","","","","","",""
"","html-keyboard-response","109","297436","0.0-158.0","o6g1w3c4","1280","720","","","","","","","","","","","493","yna","Diagnostic trial","","j","1","8","false","false","RIGHT","j","1","RIGHT","true","","",""
"","html-keyboard-response","110","298188","0.0-161.0","o6g1w3c4","1280","720","","","","","","","","","","","null","+","Fixation - short","","null","","","","","","","","","","","",""
"","html-keyboard-response","111","298677","0.0-162.0","o6g1w3c4","1280","720","","","","","","","","","","","488","yna","Diagnostic trial","","j","1","9","false","false","RIGHT","j","1","RIGHT","true","","",""
"","html-keyboard-response","112","299430","0.0-165.0","o6g1w3c4","1280","720","","","","","","","","","","","null","+","Fixation - short","","null","","","","","","","","","","","",""
"","html-keyboard-response","113","299845","0.0-166.0","o6g1w3c4","1280","720","","","","","","","","","","","414","yna","Diagnostic trial","","j","1","10","false","false","RIGHT","j","1","RIGHT","true","","",""
"","html-keyboard-response","114","300597","0.0-169.0","o6g1w3c4","1280","720","","","","","","","","","","","null","+","Fixation - short","","null","","","","","","","","","","","",""
"","html-keyboard-response","115","300999","0.0-170.0","o6g1w3c4","1280","720","","","","","","","","","","","401","yna","Diagnostic trial","","j","1","11","false","true","LEFT","f","0","RIGHT","false","","",""
"","call-function","116","301000","0.0-172.0-0.0","o6g1w3c4","","","","","","","","","","","","","","","","","","","","","","","","","","","","",""
"","html-keyboard-response","117","301310","0.0-172.0-1.0","o6g1w3c4","1280","720","","","","","","","","","","","null","Wrong","Feedback","","null","","","","","","","","","","","",""
"","call-function","118","301311","0.0-172.0-2.0","o6g1w3c4","","","","","","","","","","","","","","","","","","","","","","","","","","","","",""
"","html-keyboard-response","119","302061","0.0-173.0","o6g1w3c4","1280","720","","","","","","","","","","","null","+","Fixation - short","","null","","","","","","","","","","","",""
"","html-keyboard-response","120","302599","0.0-174.0","o6g1w3c4","1280","720","","","","","","","","","","","537","yna","Diagnostic trial","","j","1","12","false","false","RIGHT","j","1","RIGHT","true","","",""
"","html-keyboard-response","121","303352","0.0-177.0","o6g1w3c4","1280","720","","","","","","","","","","","null","+","Fixation - short","","null","","","","","","","","","","","",""
"","html-keyboard-response","122","303780","0.0-178.0","o6g1w3c4","1280","720","","","","","","","","","","","427","yna","Diagnostic trial","","j","1","13","false","false","RIGHT","j","1","RIGHT","true","","",""
"","html-keyboard-response","123","304547","0.0-181.0","o6g1w3c4","1280","720","","","","","","","","","","","null","+","Fixation - short","","null","","","","","","","","","","","",""
"","html-keyboard-response","124","305245","0.0-182.0","o6g1w3c4","1280","720","","","","","","","","","","","698","yna","Diagnostic trial","","f","1","14","false","true","LEFT","f","1","RIGHT","false","","",""
"","html-keyboard-response","125","305999","0.0-185.0","o6g1w3c4","1280","720","","","","","","","","","","","null","+","Fixation - short","","null","","","","","","","","","","","",""
"","html-keyboard-response","126","306721","0.0-186.0","o6g1w3c4","1280","720","","","","","","","","","","","721","psl","Diagnostic trial","","j","1","15","false","false","RIGHT","j","1","LEFT","false","","",""
"","html-keyboard-response","127","307472","0.0-189.0","o6g1w3c4","1280","720","","","","","","","","","","","null","+","Fixation - short","","null","","","","","","","","","","","",""
"","html-keyboard-response","128","308108","0.0-190.0","o6g1w3c4","1280","720","","","","","","","","","","","635","psl","Inducer trial","","f","1","","true","","","","1","","","","",""
"","html-keyboard-response","129","309610","0.0-193.0","o6g1w3c4","1280","720","","","","","","","","","","","null","+","Fixation - long","","null","","","","","","","","","","","",""
"","html-keyboard-response","130","313802","0.0-194.0","o6g1w3c4","1280","720","","","","","","","","","","","4203","If rrd press LEFT | If wab press RIGHT","Inducer instructions",""," ","2","","","","","","","","","","",""
"","html-keyboard-response","131","314570","0.0-195.0","o6g1w3c4","1280","720","","","","","","","","","","","null","+","Fixation - short","","null","","","","","","","","","","","",""
"","html-keyboard-response","132","315052","0.0-196.0","o6g1w3c4","1280","720","","","","","","","","","","","481","rrd","Diagnostic trial","","f","2","0","false","false","RIGHT","j","0","LEFT","false","","",""
"","call-function","133","315052","0.0-198.0-0.0","o6g1w3c4","","","","","","","","","","","","","","","","","","","","","","","","","","","","",""
"","html-keyboard-response","134","315361","0.0-198.0-1.0","o6g1w3c4","1280","720","","","","","","","","","","","null","Wrong","Feedback","","null","","","","","","","","","","","",""
"","call-function","135","315362","0.0-198.0-2.0","o6g1w3c4","","","","","","","","","","","","","","","","","","","","","","","","","","","","",""
"","html-keyboard-response","136","316121","0.0-199.0","o6g1w3c4","1280","720","","","","","","","","","","","null","+","Fixation - short","","null","","","","","","","","","","","",""
"","html-keyboard-response","137","316700","0.0-200.0","o6g1w3c4","1280","720","","","","","","","","","","","578","rrd","Diagnostic trial","","f","2","1","false","true","LEFT","f","1","LEFT","true","","",""
"","html-keyboard-response","138","317451","0.0-203.0","o6g1w3c4","1280","720","","","","","","","","","","","null","+","Fixation - short","","null","","","","","","","","","","","",""
"","html-keyboard-response","139","317868","0.0-204.0","o6g1w3c4","1280","720","","","","","","","","","","","416","rrd","Diagnostic trial","","f","2","2","false","true","LEFT","f","1","LEFT","true","","",""
"","html-keyboard-response","140","318629","0.0-207.0","o6g1w3c4","1280","720","","","","","","","","","","","null","+","Fixation - short","","null","","","","","","","","","","","",""
"","html-keyboard-response","141","319116","0.0-208.0","o6g1w3c4","1280","720","","","","","","","","","","","486","wab","Diagnostic trial","","j","2","3","false","false","RIGHT","j","1","RIGHT","true","","",""
"","html-keyboard-response","142","319879","0.0-211.0","o6g1w3c4","1280","720","","","","","","","","","","","null","+","Fixation - short","","null","","","","","","","","","","","",""
"","html-keyboard-response","143","320508","0.0-212.0","o6g1w3c4","1280","720","","","","","","","","","","","629","rrd","Diagnostic trial","","j","2","4","false","false","RIGHT","j","1","LEFT","false","","",""
"","html-keyboard-response","144","321273","0.0-215.0","o6g1w3c4","1280","720","","","","","","","","","","","null","+","Fixation - short","","null","","","","","","","","","","","",""
"","html-keyboard-response","145","321703","0.0-216.0","o6g1w3c4","1280","720","","","","","","","","","","","430","rrd","Diagnostic trial","","j","2","5","false","false","RIGHT","j","1","LEFT","false","","",""
"","html-keyboard-response","146","322470","0.0-219.0","o6g1w3c4","1280","720","","","","","","","","","","","null","+","Fixation - short","","null","","","","","","","","","","","",""
"","html-keyboard-response","147","322976","0.0-220.0","o6g1w3c4","1280","720","","","","","","","","","","","505","rrd","Diagnostic trial","","f","2","6","false","true","LEFT","f","1","LEFT","true","","",""
"","html-keyboard-response","148","323737","0.0-223.0","o6g1w3c4","1280","720","","","","","","","","","","","null","+","Fixation - short","","null","","","","","","","","","","","",""
"","html-keyboard-response","149","324160","0.0-224.0","o6g1w3c4","1280","720","","","","","","","","","","","422","rrd","Diagnostic trial","","f","2","7","false","true","LEFT","f","1","LEFT","true","","",""
"","html-keyboard-response","150","324921","0.0-227.0","o6g1w3c4","1280","720","","","","","","","","","","","null","+","Fixation - short","","null","","","","","","","","","","","",""
"","html-keyboard-response","151","325385","0.0-228.0","o6g1w3c4","1280","720","","","","","","","","","","","463","wab","Diagnostic trial","","j","2","8","false","false","RIGHT","j","1","RIGHT","true","","",""
"","html-keyboard-response","152","326147","0.0-231.0","o6g1w3c4","1280","720","","","","","","","","","","","null","+","Fixation - short","","null","","","","","","","","","","","",""
"","html-keyboard-response","153","326603","0.0-232.0","o6g1w3c4","1280","720","","","","","","","","","","","456","wab","Diagnostic trial","","j","2","9","false","false","RIGHT","j","1","RIGHT","true","","",""
"","html-keyboard-response","154","327369","0.0-235.0","o6g1w3c4","1280","720","","","","","","","","","","","null","+","Fixation - short","","null","","","","","","","","","","","",""
"","html-keyboard-response","155","328051","0.0-236.0","o6g1w3c4","1280","720","","","","","","","","","","","681","rrd","Diagnostic trial","","f","2","10","false","false","RIGHT","j","0","LEFT","false","","",""
"","call-function","156","328052","0.0-238.0-0.0","o6g1w3c4","","","","","","","","","","","","","","","","","","","","","","","","","","","","",""
"","html-keyboard-response","157","328360","0.0-238.0-1.0","o6g1w3c4","1280","720","","","","","","","","","","","null","Wrong","Feedback","","null","","","","","","","","","","","",""
"","call-function","158","328360","0.0-238.0-2.0","o6g1w3c4","","","","","","","","","","","","","","","","","","","","","","","","","","","","",""
"","html-keyboard-response","159","329114","0.0-239.0","o6g1w3c4","1280","720","","","","","","","","","","","null","+","Fixation - short","","null","","","","","","","","","","","",""
"","html-keyboard-response","160","329603","0.0-240.0","o6g1w3c4","1280","720","","","","","","","","","","","489","rrd","Diagnostic trial","","f","2","11","false","true","LEFT","f","1","LEFT","true","","",""
"","html-keyboard-response","161","330369","0.0-243.0","o6g1w3c4","1280","720","","","","","","","","","","","null","+","Fixation - short","","null","","","","","","","","","","","",""
"","html-keyboard-response","162","330793","0.0-244.0","o6g1w3c4","1280","720","","","","","","","","","","","424","wab","Diagnostic trial","","j","2","12","false","false","RIGHT","j","1","RIGHT","true","","",""
"","html-keyboard-response","163","331559","0.0-247.0","o6g1w3c4","1280","720","","","","","","","","","","","null","+","Fixation - short","","null","","","","","","","","","","","",""
"","html-keyboard-response","164","332218","0.0-248.0","o6g1w3c4","1280","720","","","","","","","","","","","658","wab","Diagnostic trial","","f","2","13","false","true","LEFT","f","1","RIGHT","false","","",""
"","html-keyboard-response","165","332982","0.0-251.0","o6g1w3c4","1280","720","","","","","","","","","","","null","+","Fixation - short","","null","","","","","","","","","","","",""
"","html-keyboard-response","166","333519","0.0-252.0","o6g1w3c4","1280","720","","","","","","","","","","","537","wab","Diagnostic trial","","f","2","14","false","true","LEFT","f","1","RIGHT","false","","",""
"","html-keyboard-response","167","334280","0.0-255.0","o6g1w3c4","1280","720","","","","","","","","","","","null","+","Fixation - short","","null","","","","","","","","","","","",""
"","html-keyboard-response","168","334898","0.0-256.0","o6g1w3c4","1280","720","","","","","","","","","","","617","wab","Inducer trial","","j","2","","true","","","","1","","","","",""
"","html-keyboard-response","169","336413","0.0-259.0","o6g1w3c4","1280","720","","","","","","","","","","","null","+","Fixation - long","","null","","","","","","","","","","","",""
"","html-keyboard-response","170","340754","0.0-260.0","o6g1w3c4","1280","720","","","","","","","","","","","4340","If quy press LEFT | If pxv press RIGHT","Inducer instructions",""," ","3","","","","","","","","","","",""
"","html-keyboard-response","171","341519","0.0-261.0","o6g1w3c4","1280","720","","","","","","","","","","","null","+","Fixation - short","","null","","","","","","","","","","","",""
"","html-keyboard-response","172","342190","0.0-262.0","o6g1w3c4","1280","720","","","","","","","","","","","670","quy","Diagnostic trial","","f","3","0","false","true","LEFT","f","1","LEFT","true","","",""
"","html-keyboard-response","173","342956","0.0-265.0","o6g1w3c4","1280","720","","","","","","","","","","","null","+","Fixation - short","","null","","","","","","","","","","","",""
"","html-keyboard-response","174","343406","0.0-266.0","o6g1w3c4","1280","720","","","","","","","","","","","449","quy","Diagnostic trial","","f","3","1","false","true","LEFT","f","1","LEFT","true","","",""
"","html-keyboard-response","175","344158","0.0-269.0","o6g1w3c4","1280","720","","","","","","","","","","","null","+","Fixation - short","","null","","","","","","","","","","","",""
"","html-keyboard-response","176","344635","0.0-270.0","o6g1w3c4","1280","720","","","","","","","","","","","476","pxv","Diagnostic trial","","j","3","2","false","false","RIGHT","j","1","RIGHT","true","","",""
"","html-keyboard-response","177","345400","0.0-273.0","o6g1w3c4","1280","720","","","","","","","","","","","null","+","Fixation - short","","null","","","","","","","","","","","",""
"","html-keyboard-response","178","345855","0.0-274.0","o6g1w3c4","1280","720","","","","","","","","","","","454","pxv","Diagnostic trial","","j","3","3","false","false","RIGHT","j","1","RIGHT","true","","",""
"","html-keyboard-response","179","346608","0.0-277.0","o6g1w3c4","1280","720","","","","","","","","","","","null","+","Fixation - short","","null","","","","","","","","","","","",""
"","html-keyboard-response","180","346992","0.0-278.0","o6g1w3c4","1280","720","","","","","","","","","","","383","quy","Diagnostic trial","","f","3","4","false","true","LEFT","f","1","LEFT","true","","",""
"","html-keyboard-response","181","347756","0.0-281.0","o6g1w3c4","1280","720","","","","","","","","","","","null","+","Fixation - short","","null","","","","","","","","","","","",""
"","html-keyboard-response","182","348130","0.0-282.0","o6g1w3c4","1280","720","","","","","","","","","","","373","pxv","Diagnostic trial","","j","3","5","false","false","RIGHT","j","1","RIGHT","true","","",""
"","html-keyboard-response","183","348894","0.0-285.0","o6g1w3c4","1280","720","","","","","","","","","","","null","+","Fixation - short","","null","","","","","","","","","","","",""
"","html-keyboard-response","184","349307","0.0-286.0","o6g1w3c4","1280","720","","","","","","","","","","","412","pxv","Diagnostic trial","","f","3","6","false","true","LEFT","f","1","RIGHT","false","","",""
"","html-keyboard-response","185","350073","0.0-289.0","o6g1w3c4","1280","720","","","","","","","","","","","null","+","Fixation - short","","null","","","","","","","","","","","",""
"","html-keyboard-response","186","350636","0.0-290.0","o6g1w3c4","1280","720","","","","","","","","","","","562","quy","Diagnostic trial","","j","3","7","false","true","LEFT","f","0","LEFT","true","","",""
"","call-function","187","350637","0.0-292.0-0.0","o6g1w3c4","","","","","","","","","","","","","","","","","","","","","","","","","","","","",""
"","html-keyboard-response","188","350945","0.0-292.0-1.0","o6g1w3c4","1280","720","","","","","","","","","","","null","Wrong","Feedback","","null","","","","","","","","","","","",""
"","call-function","189","350945","0.0-292.0-2.0","o6g1w3c4","","","","","","","","","","","","","","","","","","","","","","","","","","","","",""
"","html-keyboard-response","190","351719","0.0-293.0","o6g1w3c4","1280","720","","","","","","","","","","","null","+","Fixation - short","","null","","","","","","","","","","","",""
"","html-keyboard-response","191","352673","0.0-294.0","o6g1w3c4","1280","720","","","","","","","","","","","953","pxv","Diagnostic trial","","j","3","8","false","false","RIGHT","j","1","RIGHT","true","","",""
"","html-keyboard-response","192","353437","0.0-297.0","o6g1w3c4","1280","720","","","","","","","","","","","null","+","Fixation - short","","null","","","","","","","","","","","",""
"","html-keyboard-response","193","354031","0.0-298.0","o6g1w3c4","1280","720","","","","","","","","","","","593","quy","Diagnostic trial","","f","3","9","false","true","LEFT","f","1","LEFT","true","","",""
"","html-keyboard-response","194","354795","0.0-301.0","o6g1w3c4","1280","720","","","","","","","","","","","null","+","Fixation - short","","null","","","","","","","","","","","",""
"","html-keyboard-response","195","355712","0.0-302.0","o6g1w3c4","1280","720","","","","","","","","","","","916","quy","Diagnostic trial","","j","3","10","false","false","RIGHT","j","1","LEFT","false","","",""
"","html-keyboard-response","196","356466","0.0-305.0","o6g1w3c4","1280","720","","","","","","","","","","","null","+","Fixation - short","","null","","","","","","","","","","","",""
"","html-keyboard-response","197","357062","0.0-306.0","o6g1w3c4","1280","720","","","","","","","","","","","595","pxv","Diagnostic trial","","f","3","11","false","true","LEFT","f","1","RIGHT","false","","",""
"","html-keyboard-response","198","357841","0.0-309.0","o6g1w3c4","1280","720","","","","","","","","","","","null","+","Fixation - short","","null","","","","","","","","","","","",""
"","html-keyboard-response","199","358412","0.0-310.0","o6g1w3c4","1280","720","","","","","","","","","","","570","pxv","Inducer trial","","f","3","","true","","","","0","","","","",""
"","call-function","200","358413","0.0-312.0-0.0","o6g1w3c4","","","","","","","","","","","","","","","","","","","","","","","","","","","","",""
"","html-keyboard-response","201","358722","0.0-312.0-1.0","o6g1w3c4","1280","720","","","","","","","","","","","null","Wrong","Feedback","","null","","","","","","","","","","","",""
"","call-function","202","358722","0.0-312.0-2.0","o6g1w3c4","","","","","","","","","","","","","","","","","","","","","","","","","","","","",""
"","html-keyboard-response","203","360225","0.0-313.0","o6g1w3c4","1280","720","","","","","","","","","","","null","+","Fixation - long","","null","","","","","","","","","","","",""
"","html-keyboard-response","204","370546","0.0-314.0","o6g1w3c4","1280","720","","","","","","","","","","","10320","If mvv press LEFT | If bsh press RIGHT","Inducer instructions",""," ","4","","","","","","","","","","",""
"","html-keyboard-response","205","371310","0.0-315.0","o6g1w3c4","1280","720","","","","","","","","","","","null","+","Fixation - short","","null","","","","","","","","","","","",""
"","html-keyboard-response","206","371846","0.0-316.0","o6g1w3c4","1280","720","","","","","","","","","","","536","mvv","Diagnostic trial","","j","4","0","false","false","RIGHT","j","1","LEFT","false","","",""
"","html-keyboard-response","207","372599","0.0-319.0","o6g1w3c4","1280","720","","","","","","","","","","","null","+","Fixation - short","","null","","","","","","","","","","","",""
"","html-keyboard-response","208","372976","0.0-320.0","o6g1w3c4","1280","720","","","","","","","","","","","376","mvv","Diagnostic trial","","j","4","1","false","true","LEFT","f","0","LEFT","true","","",""
"","call-function","209","372977","0.0-322.0-0.0","o6g1w3c4","","","","","","","","","","","","","","","","","","","","","","","","","","","","",""
"","html-keyboard-response","210","373287","0.0-322.0-1.0","o6g1w3c4","1280","720","","","","","","","","","","","null","Wrong","Feedback","","null","","","","","","","","","","","",""
"","call-function","211","373288","0.0-322.0-2.0","o6g1w3c4","","","","","","","","","","","","","","","","","","","","","","","","","","","","",""
"","html-keyboard-response","212","374070","0.0-323.0","o6g1w3c4","1280","720","","","","","","","","","","","null","+","Fixation - short","","null","","","","","","","","","","","",""
"","html-keyboard-response","213","374611","0.0-324.0","o6g1w3c4","1280","720","","","","","","","","","","","541","bsh","Diagnostic trial","","f","4","2","false","true","LEFT","f","1","RIGHT","false","","",""
"","html-keyboard-response","214","375364","0.0-327.0","o6g1w3c4","1280","720","","","","","","","","","","","null","+","Fixation - short","","null","","","","","","","","","","","",""
"","html-keyboard-response","215","375974","0.0-328.0","o6g1w3c4","1280","720","","","","","","","","","","","610","mvv","Diagnostic trial","","f","4","3","false","true","LEFT","f","1","LEFT","true","","",""
"","html-keyboard-response","216","376741","0.0-331.0","o6g1w3c4","1280","720","","","","","","","","","","","null","+","Fixation - short","","null","","","","","","","","","","","",""
"","html-keyboard-response","217","377536","0.0-332.0","o6g1w3c4","1280","720","","","","","","","","","","","794","mvv","Diagnostic trial","","j","4","4","false","false","RIGHT","j","1","LEFT","false","","",""
"","html-keyboard-response","218","378301","0.0-335.0","o6g1w3c4","1280","720","","","","","","","","","","","null","+","Fixation - short","","null","","","","","","","","","","","",""
"","html-keyboard-response","219","378846","0.0-336.0","o6g1w3c4","1280","720","","","","","","","","","","","544","bsh","Diagnostic trial","","j","4","5","false","false","RIGHT","j","1","RIGHT","true","","",""
"","html-keyboard-response","220","379613","0.0-339.0","o6g1w3c4","1280","720","","","","","","","","","","","null","+","Fixation - short","","null","","","","","","","","","","","",""
"","html-keyboard-response","221","380241","0.0-340.0","o6g1w3c4","1280","720","","","","","","","","","","","628","bsh","Diagnostic trial","","f","4","6","false","true","LEFT","f","1","RIGHT","false","","",""
"","html-keyboard-response","222","381023","0.0-343.0","o6g1w3c4","1280","720","","","","","","","","","","","null","+","Fixation - short","","null","","","","","","","","","","","",""
"","html-keyboard-response","223","381580","0.0-344.0","o6g1w3c4","1280","720","","","","","","","","","","","557","mvv","Diagnostic trial","","j","4","7","false","false","RIGHT","j","1","LEFT","false","","",""
"","html-keyboard-response","224","382345","0.0-347.0","o6g1w3c4","1280","720","","","","","","","","","","","null","+","Fixation - short","","null","","","","","","","","","","","",""
"","html-keyboard-response","225","382819","0.0-348.0","o6g1w3c4","1280","720","","","","","","","","","","","473","bsh","Diagnostic trial","","f","4","8","false","true","LEFT","f","1","RIGHT","false","","",""
"","html-keyboard-response","226","383584","0.0-351.0","o6g1w3c4","1280","720","","","","","","","","","","","null","+","Fixation - short","","null","","","","","","","","","","","",""
"","html-keyboard-response","227","384260","0.0-352.0","o6g1w3c4","1280","720","","","","","","","","","","","675","mvv","Diagnostic trial","","f","4","9","false","true","LEFT","f","1","LEFT","true","","",""
"","html-keyboard-response","228","385022","0.0-355.0","o6g1w3c4","1280","720","","","","","","","","","","","null","+","Fixation - short","","null","","","","","","","","","","","",""
"","html-keyboard-response","229","385518","0.0-356.0","o6g1w3c4","1280","720","","","","","","","","","","","495","bsh","Diagnostic trial","","f","4","10","false","true","LEFT","f","1","RIGHT","false","","",""
"","html-keyboard-response","230","386271","0.0-359.0","o6g1w3c4","1280","720","","","","","","","","","","","null","+","Fixation - short","","null","","","","","","","","","","","",""
"","html-keyboard-response","231","386732","0.0-360.0","o6g1w3c4","1280","720","","","","","","","","","","","461","bsh","Diagnostic trial","","j","4","11","false","false","RIGHT","j","1","RIGHT","true","","",""
"","html-keyboard-response","232","387498","0.0-363.0","o6g1w3c4","1280","720","","","","","","","","","","","null","+","Fixation - short","","null","","","","","","","","","","","",""
"","html-keyboard-response","233","388115","0.0-364.0","o6g1w3c4","1280","720","","","","","","","","","","","616","mvv","Diagnostic trial","","j","4","12","false","false","RIGHT","j","1","LEFT","false","","",""
"","html-keyboard-response","234","388870","0.0-367.0","o6g1w3c4","1280","720","","","","","","","","","","","null","+","Fixation - short","","null","","","","","","","","","","","",""
"","html-keyboard-response","235","389566","0.0-368.0","o6g1w3c4","1280","720","","","","","","","","","","","694","bsh","Diagnostic trial","","f","4","13","false","true","LEFT","f","1","RIGHT","false","","",""
"","html-keyboard-response","236","390318","0.0-371.0","o6g1w3c4","1280","720","","","","","","","","","","","null","+","Fixation - short","","null","","","","","","","","","","","",""
"","html-keyboard-response","237","391037","0.0-372.0","o6g1w3c4","1280","720","","","","","","","","","","","718","mvv","Inducer trial","","j","4","","true","","","","0","","","","",""
"","call-function","238","391037","0.0-374.0-0.0","o6g1w3c4","","","","","","","","","","","","","","","","","","","","","","","","","","","","",""
"","html-keyboard-response","239","391346","0.0-374.0-1.0","o6g1w3c4","1280","720","","","","","","","","","","","null","Wrong","Feedback","","null","","","","","","","","","","","",""
"","call-function","240","391347","0.0-374.0-2.0","o6g1w3c4","","","","","","","","","","","","","","","","","","","","","","","","","","","","",""
"","html-keyboard-response","241","392869","0.0-375.0","o6g1w3c4","1280","720","","","","","","","","","","","null","+","Fixation - long","","null","","","","","","","","","","","",""
"","html-keyboard-response","242","399206","0.0-376.0","o6g1w3c4","1280","720","","","","","","","","","","","6336","If dlg press LEFT | If dpa press RIGHT","Inducer instructions",""," ","5","","","","","","","","","","",""
"","html-keyboard-response","243","399960","0.0-377.0","o6g1w3c4","1280","720","","","","","","","","","","","null","+","Fixation - short","","null","","","","","","","","","","","",""
"","html-keyboard-response","244","400557","0.0-378.0","o6g1w3c4","1280","720","","","","","","","","","","","596","dpa","Diagnostic trial","","f","5","0","false","true","LEFT","f","1","RIGHT","false","","",""
"","html-keyboard-response","245","401319","0.0-381.0","o6g1w3c4","1280","720","","","","","","","","","","","null","+","Fixation - short","","null","","","","","","","","","","","",""
"","html-keyboard-response","246","401753","0.0-382.0","o6g1w3c4","1280","720","","","","","","","","","","","434","dpa","Diagnostic trial","","f","5","1","false","true","LEFT","f","1","RIGHT","false","","",""
"","html-keyboard-response","247","402518","0.0-385.0","o6g1w3c4","1280","720","","","","","","","","","","","null","+","Fixation - short","","null","","","","","","","","","","","",""
"","html-keyboard-response","248","402869","0.0-386.0","o6g1w3c4","1280","720","","","","","","","","","","","351","dpa","Diagnostic trial","","f","5","2","false","false","RIGHT","j","0","RIGHT","true","","",""
"","call-function","249","402870","0.0-388.0-0.0","o6g1w3c4","","","","","","","","","","","","","","","","","","","","","","","","","","","","",""
"","html-keyboard-response","250","403181","0.0-388.0-1.0","o6g1w3c4","1280","720","","","","","","","","","","","null","Wrong","Feedback","","null","","","","","","","","","","","",""
"","call-function","251","403181","0.0-388.0-2.0","o6g1w3c4","","","","","","","","","","","","","","","","","","","","","","","","","","","","",""
"","html-keyboard-response","252","403934","0.0-389.0","o6g1w3c4","1280","720","","","","","","","","","","","null","+","Fixation - short","","null","","","","","","","","","","","",""
"","html-keyboard-response","253","404581","0.0-390.0","o6g1w3c4","1280","720","","","","","","","","","","","646","dpa","Diagnostic trial","","f","5","3","false","true","LEFT","f","1","RIGHT","false","","",""
"","html-keyboard-response","254","405336","0.0-393.0","o6g1w3c4","1280","720","","","","","","","","","","","null","+","Fixation - short","","null","","","","","","","","","","","",""
"","html-keyboard-response","255","405740","0.0-394.0","o6g1w3c4","1280","720","","","","","","","","","","","404","dpa","Diagnostic trial","","f","5","4","false","true","LEFT","f","1","RIGHT","false","","",""
"","html-keyboard-response","256","406496","0.0-397.0","o6g1w3c4","1280","720","","","","","","","","","","","null","+","Fixation - short","","null","","","","","","","","","","","",""
"","html-keyboard-response","257","407068","0.0-398.0","o6g1w3c4","1280","720","","","","","","","","","","","571","dlg","Diagnostic trial","","j","5","5","false","false","RIGHT","j","1","LEFT","false","","",""
"","html-keyboard-response","258","407836","0.0-401.0","o6g1w3c4","1280","720","","","","","","","","","","","null","+","Fixation - short","","null","","","","","","","","","","","",""
"","html-keyboard-response","259","408257","0.0-402.0","o6g1w3c4","1280","720","","","","","","","","","","","420","dlg","Diagnostic trial","","j","5","6","false","false","RIGHT","j","1","LEFT","false","","",""
"","html-keyboard-response","260","409011","0.0-405.0","o6g1w3c4","1280","720","","","","","","","","","","","null","+","Fixation - short","","null","","","","","","","","","","","",""
"","html-keyboard-response","261","409710","0.0-406.0","o6g1w3c4","1280","720","","","","","","","","","","","698","dpa","Inducer trial","","j","5","","true","","","","1","","","","",""
"","html-keyboard-response","262","411219","0.0-409.0","o6g1w3c4","1280","720","","","","","","","","","","","null","+","Fixation - long","","null","","","","","","","","","","","",""
"","html-keyboard-response","263","418563","0.0-410.0","o6g1w3c4","1280","720","","","","","","","","","","","7344","If swr press LEFT | If wrz press RIGHT","Inducer instructions",""," ","6","","","","","","","","","","",""
"","html-keyboard-response","264","419329","0.0-411.0","o6g1w3c4","1280","720","","","","","","","","","","","null","+","Fixation - short","","null","","","","","","","","","","","",""
"","html-keyboard-response","265","420189","0.0-412.0","o6g1w3c4","1280","720","","","","","","","","","","","860","swr","Diagnostic trial","","f","6","0","false","true","LEFT","f","1","LEFT","true","","",""
"","html-keyboard-response","266","420943","0.0-415.0","o6g1w3c4","1280","720","","","","","","","","","","","null","+","Fixation - short","","null","","","","","","","","","","","",""
"","html-keyboard-response","267","421556","0.0-416.0","o6g1w3c4","1280","720","","","","","","","","","","","612","wrz","Diagnostic trial","","f","6","1","false","true","LEFT","f","1","RIGHT","false","","",""
"","html-keyboard-response","268","422319","0.0-419.0","o6g1w3c4","1280","720","","","","","","","","","","","null","+","Fixation - short","","null","","","","","","","","","","","",""
"","html-keyboard-response","269","422871","0.0-420.0","o6g1w3c4","1280","720","","","","","","","","","","","551","wrz","Diagnostic trial","","f","6","2","false","true","LEFT","f","1","RIGHT","false","","",""
"","html-keyboard-response","270","423647","0.0-423.0","o6g1w3c4","1280","720","","","","","","","","","","","null","+","Fixation - short","","null","","","","","","","","","","","",""
"","html-keyboard-response","271","424180","0.0-424.0","o6g1w3c4","1280","720","","","","","","","","","","","532","wrz","Diagnostic trial","","j","6","3","false","false","RIGHT","j","1","RIGHT","true","","",""
"","html-keyboard-response","272","424934","0.0-427.0","o6g1w3c4","1280","720","","","","","","","","","","","null","+","Fixation - short","","null","","","","","","","","","","","",""
"","html-keyboard-response","273","425348","0.0-428.0","o6g1w3c4","1280","720","","","","","","","","","","","413","wrz","Diagnostic trial","","j","6","4","false","false","RIGHT","j","1","RIGHT","true","","",""
"","html-keyboard-response","274","426100","0.0-431.0","o6g1w3c4","1280","720","","","","","","","","","","","null","+","Fixation - short","","null","","","","","","","","","","","",""
"","html-keyboard-response","275","426854","0.0-432.0","o6g1w3c4","1280","720","","","","","","","","","","","753","swr","Inducer trial","","j","6","","true","","","","0","","","","",""
"","call-function","276","426855","0.0-434.0-0.0","o6g1w3c4","","","","","","","","","","","","","","","","","","","","","","","","","","","","",""
"","html-keyboard-response","277","427163","0.0-434.0-1.0","o6g1w3c4","1280","720","","","","","","","","","","","null","Wrong","Feedback","","null","","","","","","","","","","","",""
"","call-function","278","427164","0.0-434.0-2.0","o6g1w3c4","","","","","","","","","","","","","","","","","","","","","","","","","","","","",""
"","html-keyboard-response","279","428671","0.0-435.0","o6g1w3c4","1280","720","","","","","","","","","","","null","+","Fixation - long","","null","","","","","","","","","","","",""
"","html-keyboard-response","280","431432","0.0-436.0","o6g1w3c4","1280","720","","","","","","","","","","","2760","If ume press LEFT | If hlb press RIGHT","Inducer instructions",""," ","7","","","","","","","","","","",""
"","html-keyboard-response","281","432187","0.0-437.0","o6g1w3c4","1280","720","","","","","","","","","","","null","+","Fixation - short","","null","","","","","","","","","","","",""
"","html-keyboard-response","282","432896","0.0-438.0","o6g1w3c4","1280","720","","","","","","","","","","","709","hlb","Diagnostic trial","","f","7","0","false","true","LEFT","f","1","RIGHT","false","","",""
"","html-keyboard-response","283","433650","0.0-441.0","o6g1w3c4","1280","720","","","","","","","","","","","null","+","Fixation - short","","null","","","","","","","","","","","",""
"","html-keyboard-response","284","434078","0.0-442.0","o6g1w3c4","1280","720","","","","","","","","","","","428","hlb","Diagnostic trial","","f","7","1","false","true","LEFT","f","1","RIGHT","false","","",""
"","html-keyboard-response","285","434830","0.0-445.0","o6g1w3c4","1280","720","","","","","","","","","","","null","+","Fixation - short","","null","","","","","","","","","","","",""
"","html-keyboard-response","286","435278","0.0-446.0","o6g1w3c4","1280","720","","","","","","","","","","","447","hlb","Diagnostic trial","","f","7","2","false","false","RIGHT","j","0","RIGHT","true","","",""
"","call-function","287","435282","0.0-448.0-0.0","o6g1w3c4","","","","","","","","","","","","","","","","","","","","","","","","","","","","",""
"","html-keyboard-response","288","435588","0.0-448.0-1.0","o6g1w3c4","1280","720","","","","","","","","","","","null","Wrong","Feedback","","null","","","","","","","","","","","",""
"","call-function","289","435588","0.0-448.0-2.0","o6g1w3c4","","","","","","","","","","","","","","","","","","","","","","","","","","","","",""
"","html-keyboard-response","290","436340","0.0-449.0","o6g1w3c4","1280","720","","","","","","","","","","","null","+","Fixation - short","","null","","","","","","","","","","","",""
"","html-keyboard-response","291","436725","0.0-450.0","o6g1w3c4","1280","720","","","","","","","","","","","384","hlb","Diagnostic trial","","f","7","3","false","false","RIGHT","j","0","RIGHT","true","","",""
"","call-function","292","436726","0.0-452.0-0.0","o6g1w3c4","","","","","","","","","","","","","","","","","","","","","","","","","","","","",""
"","html-keyboard-response","293","437036","0.0-452.0-1.0","o6g1w3c4","1280","720","","","","","","","","","","","null","Wrong","Feedback","","null","","","","","","","","","","","",""
"","call-function","294","437037","0.0-452.0-2.0","o6g1w3c4","","","","","","","","","","","","","","","","","","","","","","","","","","","","",""
"","html-keyboard-response","295","437798","0.0-453.0","o6g1w3c4","1280","720","","","","","","","","","","","null","+","Fixation - short","","null","","","","","","","","","","","",""
"","html-keyboard-response","296","438447","0.0-454.0","o6g1w3c4","1280","720","","","","","","","","","","","649","hlb","Diagnostic trial","","j","7","4","false","false","RIGHT","j","1","RIGHT","true","","",""
"","html-keyboard-response","297","439210","0.0-457.0","o6g1w3c4","1280","720","","","","","","","","","","","null","+","Fixation - short","","null","","","","","","","","","","","",""
"","html-keyboard-response","298","439808","0.0-458.0","o6g1w3c4","1280","720","","","","","","","","","","","598","hlb","Diagnostic trial","","f","7","5","false","true","LEFT","f","1","RIGHT","false","","",""
"","html-keyboard-response","299","440570","0.0-461.0","o6g1w3c4","1280","720","","","","","","","","","","","null","+","Fixation - short","","null","","","","","","","","","","","",""
"","html-keyboard-response","300","441045","0.0-462.0","o6g1w3c4","1280","720","","","","","","","","","","","475","hlb","Diagnostic trial","","f","7","6","false","true","LEFT","f","1","RIGHT","false","","",""
"","html-keyboard-response","301","441828","0.0-465.0","o6g1w3c4","1280","720","","","","","","","","","","","null","+","Fixation - short","","null","","","","","","","","","","","",""
"","html-keyboard-response","302","442322","0.0-466.0","o6g1w3c4","1280","720","","","","","","","","","","","494","ume","Diagnostic trial","","j","7","7","false","true","LEFT","f","0","LEFT","true","","",""
"","call-function","303","442323","0.0-468.0-0.0","o6g1w3c4","","","","","","","","","","","","","","","","","","","","","","","","","","","","",""
"","html-keyboard-response","304","442633","0.0-468.0-1.0","o6g1w3c4","1280","720","","","","","","","","","","","null","Wrong","Feedback","","null","","","","","","","","","","","",""
"","call-function","305","442633","0.0-468.0-2.0","o6g1w3c4","","","","","","","","","","","","","","","","","","","","","","","","","","","","",""
"","html-keyboard-response","306","443389","0.0-469.0","o6g1w3c4","1280","720","","","","","","","","","","","null","+","Fixation - short","","null","","","","","","","","","","","",""
"","html-keyboard-response","307","444031","0.0-470.0","o6g1w3c4","1280","720","","","","","","","","","","","642","ume","Diagnostic trial","","j","7","8","false","false","RIGHT","j","1","LEFT","false","","",""
"","html-keyboard-response","308","444795","0.0-473.0","o6g1w3c4","1280","720","","","","","","","","","","","null","+","Fixation - short","","null","","","","","","","","","","","",""
"","html-keyboard-response","309","445361","0.0-474.0","o6g1w3c4","1280","720","","","","","","","","","","","565","ume","Diagnostic trial","","f","7","9","false","true","LEFT","f","1","LEFT","true","","",""
"","html-keyboard-response","310","446127","0.0-477.0","o6g1w3c4","1280","720","","","","","","","","","","","null","+","Fixation - short","","null","","","","","","","","","","","",""
"","html-keyboard-response","311","446699","0.0-478.0","o6g1w3c4","1280","720","","","","","","","","","","","572","ume","Inducer trial","","j","7","","true","","","","0","","","","",""
"","call-function","312","446700","0.0-480.0-0.0","o6g1w3c4","","","","","","","","","","","","","","","","","","","","","","","","","","","","",""
"","html-keyboard-response","313","447014","0.0-480.0-1.0","o6g1w3c4","1280","720","","","","","","","","","","","null","Wrong","Feedback","","null","","","","","","","","","","","",""
"","call-function","314","447014","0.0-480.0-2.0","o6g1w3c4","","","","","","","","","","","","","","","","","","","","","","","","","","","","",""
"","html-keyboard-response","315","448550","0.0-481.0","o6g1w3c4","1280","720","","","","","","","","","","","null","+","Fixation - long","","null","","","","","","","","","","","",""
"","html-keyboard-response","316","454827","0.0-482.0","o6g1w3c4","1280","720","","","","","","","","","","","6277","If uus press LEFT | If ivr press RIGHT","Inducer instructions",""," ","8","","","","","","","","","","",""
"","html-keyboard-response","317","455582","0.0-483.0","o6g1w3c4","1280","720","","","","","","","","","","","null","+","Fixation - short","","null","","","","","","","","","","","",""
"","html-keyboard-response","318","456475","0.0-484.0","o6g1w3c4","1280","720","","","","","","","","","","","892","uus","Diagnostic trial","","f","8","0","false","true","LEFT","f","1","LEFT","true","","",""
"","html-keyboard-response","319","457227","0.0-487.0","o6g1w3c4","1280","720","","","","","","","","","","","null","+","Fixation - short","","null","","","","","","","","","","","",""
"","html-keyboard-response","320","457694","0.0-488.0","o6g1w3c4","1280","720","","","","","","","","","","","466","ivr","Diagnostic trial","","j","8","1","false","false","RIGHT","j","1","RIGHT","true","","",""
"","html-keyboard-response","321","458448","0.0-491.0","o6g1w3c4","1280","720","","","","","","","","","","","null","+","Fixation - short","","null","","","","","","","","","","","",""
"","html-keyboard-response","322","459003","0.0-492.0","o6g1w3c4","1280","720","","","","","","","","","","","554","uus","Diagnostic trial","","f","8","2","false","true","LEFT","f","1","LEFT","true","","",""
"","html-keyboard-response","323","459766","0.0-495.0","o6g1w3c4","1280","720","","","","","","","","","","","null","+","Fixation - short","","null","","","","","","","","","","","",""
"","html-keyboard-response","324","460131","0.0-496.0","o6g1w3c4","1280","720","","","","","","","","","","","364","uus","Diagnostic trial","","j","8","3","false","false","RIGHT","j","1","LEFT","false","","",""
"","html-keyboard-response","325","460883","0.0-499.0","o6g1w3c4","1280","720","","","","","","","","","","","null","+","Fixation - short","","null","","","","","","","","","","","",""
"","html-keyboard-response","326","461390","0.0-500.0","o6g1w3c4","1280","720","","","","","","","","","","","506","uus","Diagnostic trial","","j","8","4","false","false","RIGHT","j","1","LEFT","false","","",""
"","html-keyboard-response","327","462142","0.0-503.0","o6g1w3c4","1280","720","","","","","","","","","","","null","+","Fixation - short","","null","","","","","","","","","","","",""
"","html-keyboard-response","328","462789","0.0-504.0","o6g1w3c4","1280","720","","","","","","","","","","","647","ivr","Diagnostic trial","","f","8","5","false","true","LEFT","f","1","RIGHT","false","","",""
"","html-keyboard-response","329","463554","0.0-507.0","o6g1w3c4","1280","720","","","","","","","","","","","null","+","Fixation - short","","null","","","","","","","","","","","",""
"","html-keyboard-response","330","464059","0.0-508.0","o6g1w3c4","1280","720","","","","","","","","","","","504","uus","Diagnostic trial","","j","8","6","false","false","RIGHT","j","1","LEFT","false","","",""
"","html-keyboard-response","331","464820","0.0-511.0","o6g1w3c4","1280","720","","","","","","","","","","","null","+","Fixation - short","","null","","","","","","","","","","","",""
"","html-keyboard-response","332","465480","0.0-512.0","o6g1w3c4","1280","720","","","","","","","","","","","660","uus","Inducer trial","","j","8","","true","","","","0","","","","",""
"","call-function","333","465481","0.0-514.0-0.0","o6g1w3c4","","","","","","","","","","","","","","","","","","","","","","","","","","","","",""
"","html-keyboard-response","334","465788","0.0-514.0-1.0","o6g1w3c4","1280","720","","","","","","","","","","","null","Wrong","Feedback","","null","","","","","","","","","","","",""
"","call-function","335","465789","0.0-514.0-2.0","o6g1w3c4","","","","","","","","","","","","","","","","","","","","","","","","","","","","",""
"","html-keyboard-response","336","467297","0.0-515.0","o6g1w3c4","1280","720","","","","","","","","","","","null","+","Fixation - long","","null","","","","","","","","","","","",""
"","html-keyboard-response","337","473323","0.0-516.0","o6g1w3c4","1280","720","","","","","","","","","","","6025","If kho press LEFT | If uen press RIGHT","Inducer instructions",""," ","9","","","","","","","","","","",""
"","html-keyboard-response","338","474085","0.0-517.0","o6g1w3c4","1280","720","","","","","","","","","","","null","+","Fixation - short","","null","","","","","","","","","","","",""
"","html-keyboard-response","339","474685","0.0-518.0","o6g1w3c4","1280","720","","","","","","","","","","","599","uen","Diagnostic trial","","j","9","0","false","false","RIGHT","j","1","RIGHT","true","","",""
"","html-keyboard-response","340","475442","0.0-521.0","o6g1w3c4","1280","720","","","","","","","","","","","null","+","Fixation - short","","null","","","","","","","","","","","",""
"","html-keyboard-response","341","476306","0.0-522.0","o6g1w3c4","1280","720","","","","","","","","","","","864","uen","Diagnostic trial","","f","9","1","false","true","LEFT","f","1","RIGHT","false","","",""
"","html-keyboard-response","342","477073","0.0-525.0","o6g1w3c4","1280","720","","","","","","","","","","","null","+","Fixation - short","","null","","","","","","","","","","","",""
"","html-keyboard-response","343","477759","0.0-526.0","o6g1w3c4","1280","720","","","","","","","","","","","686","kho","Diagnostic trial","","j","9","2","false","false","RIGHT","j","1","LEFT","false","","",""
"","html-keyboard-response","344","478523","0.0-529.0","o6g1w3c4","1280","720","","","","","","","","","","","null","+","Fixation - short","","null","","","","","","","","","","","",""
"","html-keyboard-response","345","478905","0.0-530.0","o6g1w3c4","1280","720","","","","","","","","","","","381","kho","Diagnostic trial","","j","9","3","false","false","RIGHT","j","1","LEFT","false","","",""
"","html-keyboard-response","346","479657","0.0-533.0","o6g1w3c4","1280","720","","","","","","","","","","","null","+","Fixation - short","","null","","","","","","","","","","","",""
"","html-keyboard-response","347","480214","0.0-534.0","o6g1w3c4","1280","720","","","","","","","","","","","557","uen","Diagnostic trial","","j","9","4","false","false","RIGHT","j","1","RIGHT","true","","",""
"","html-keyboard-response","348","480970","0.0-537.0","o6g1w3c4","1280","720","","","","","","","","","","","null","+","Fixation - short","","null","","","","","","","","","","","",""
"","html-keyboard-response","349","481320","0.0-538.0","o6g1w3c4","1280","720","","","","","","","","","","","349","kho","Diagnostic trial","","j","9","5","false","true","LEFT","f","0","LEFT","true","","",""
"","call-function","350","481320","0.0-540.0-0.0","o6g1w3c4","","","","","","","","","","","","","","","","","","","","","","","","","","","","",""
"","html-keyboard-response","351","481632","0.0-540.0-1.0","o6g1w3c4","1280","720","","","","","","","","","","","null","Wrong","Feedback","","null","","","","","","","","","","","",""
"","call-function","352","481633","0.0-540.0-2.0","o6g1w3c4","","","","","","","","","","","","","","","","","","","","","","","","","","","","",""
"","html-keyboard-response","353","482397","0.0-541.0","o6g1w3c4","1280","720","","","","","","","","","","","null","+","Fixation - short","","null","","","","","","","","","","","",""
"","html-keyboard-response","354","483007","0.0-542.0","o6g1w3c4","1280","720","","","","","","","","","","","609","uen","Diagnostic trial","","f","9","6","false","true","LEFT","f","1","RIGHT","false","","",""
"","html-keyboard-response","355","483759","0.0-545.0","o6g1w3c4","1280","720","","","","","","","","","","","null","+","Fixation - short","","null","","","","","","","","","","","",""
"","html-keyboard-response","356","484386","0.0-546.0","o6g1w3c4","1280","720","","","","","","","","","","","626","uen","Inducer trial","","j","9","","true","","","","1","","","","",""
"","html-keyboard-response","357","485901","0.0-549.0","o6g1w3c4","1280","720","","","","","","","","","","","null","+","Fixation - long","","null","","","","","","","","","","","",""
"","html-keyboard-response","358","489440","0.0-550.0","o6g1w3c4","1280","720","","","","","","","","","","","3538","If jey press LEFT | If upf press RIGHT","Inducer instructions",""," ","10","","","","","","","","","","",""
"","html-keyboard-response","359","490191","0.0-551.0","o6g1w3c4","1280","720","","","","","","","","","","","null","+","Fixation - short","","null","","","","","","","","","","","",""
"","html-keyboard-response","360","490797","0.0-552.0","o6g1w3c4","1280","720","","","","","","","","","","","605","upf","Diagnostic trial","","j","10","0","false","false","RIGHT","j","1","RIGHT","true","","",""
"","html-keyboard-response","361","491549","0.0-555.0","o6g1w3c4","1280","720","","","","","","","","","","","null","+","Fixation - short","","null","","","","","","","","","","","",""
"","html-keyboard-response","362","491897","0.0-556.0","o6g1w3c4","1280","720","","","","","","","","","","","348","upf","Diagnostic trial","","j","10","1","false","false","RIGHT","j","1","RIGHT","true","","",""
"","html-keyboard-response","363","492649","0.0-559.0","o6g1w3c4","1280","720","","","","","","","","","","","null","+","Fixation - short","","null","","","","","","","","","","","",""
"","html-keyboard-response","364","493062","0.0-560.0","o6g1w3c4","1280","720","","","","","","","","","","","413","upf","Diagnostic trial","","f","10","2","false","true","LEFT","f","1","RIGHT","false","","",""
"","html-keyboard-response","365","493828","0.0-563.0","o6g1w3c4","1280","720","","","","","","","","","","","null","+","Fixation - short","","null","","","","","","","","","","","",""
"","html-keyboard-response","366","494363","0.0-564.0","o6g1w3c4","1280","720","","","","","","","","","","","527","upf","Diagnostic trial","","j","10","3","false","false","RIGHT","j","1","RIGHT","true","","",""
"","html-keyboard-response","367","495129","0.0-567.0","o6g1w3c4","1280","720","","","","","","","","","","","null","+","Fixation - short","","null","","","","","","","","","","","",""
"","html-keyboard-response","368","495662","0.0-568.0","o6g1w3c4","1280","720","","","","","","","","","","","532","jey","Diagnostic trial","","f","10","4","false","true","LEFT","f","1","LEFT","true","","",""
"","html-keyboard-response","369","496415","0.0-571.0","o6g1w3c4","1280","720","","","","","","","","","","","null","+","Fixation - short","","null","","","","","","","","","","","",""
"","html-keyboard-response","370","497068","0.0-572.0","o6g1w3c4","1280","720","","","","","","","","","","","652","jey","Diagnostic trial","","j","10","5","false","false","RIGHT","j","1","LEFT","false","","",""
"","html-keyboard-response","371","497819","0.0-575.0","o6g1w3c4","1280","720","","","","","","","","","","","null","+","Fixation - short","","null","","","","","","","","","","","",""
"","html-keyboard-response","372","498291","0.0-576.0","o6g1w3c4","1280","720","","","","","","","","","","","471","jey","Diagnostic trial","","j","10","6","false","false","RIGHT","j","1","LEFT","false","","",""
"","html-keyboard-response","373","499055","0.0-579.0","o6g1w3c4","1280","720","","","","","","","","","","","null","+","Fixation - short","","null","","","","","","","","","","","",""
"","html-keyboard-response","374","499599","0.0-580.0","o6g1w3c4","1280","720","","","","","","","","","","","542","upf","Diagnostic trial","","f","10","7","false","true","LEFT","f","1","RIGHT","false","","",""
"","html-keyboard-response","375","500350","0.0-583.0","o6g1w3c4","1280","720","","","","","","","","","","","null","+","Fixation - short","","null","","","","","","","","","","","",""
"","html-keyboard-response","376","500938","0.0-584.0","o6g1w3c4","1280","720","","","","","","","","","","","587","upf","Diagnostic trial","","j","10","8","false","false","RIGHT","j","1","RIGHT","true","","",""
"","html-keyboard-response","377","501691","0.0-587.0","o6g1w3c4","1280","720","","","","","","","","","","","null","+","Fixation - short","","null","","","","","","","","","","","",""
"","html-keyboard-response","378","502320","0.0-588.0","o6g1w3c4","1280","720","","","","","","","","","","","629","upf","Diagnostic trial","","f","10","9","false","true","LEFT","f","1","RIGHT","false","","",""
"","html-keyboard-response","379","503085","0.0-591.0","o6g1w3c4","1280","720","","","","","","","","","","","null","+","Fixation - short","","null","","","","","","","","","","","",""
"","html-keyboard-response","380","503406","0.0-592.0","o6g1w3c4","1280","720","","","","","","","","","","","319","upf","Inducer trial","","j","10","","true","","","","1","","","","",""
"","html-keyboard-response","381","504928","0.0-595.0","o6g1w3c4","1280","720","","","","","","","","","","","null","+","Fixation - long","","null","","","","","","","","","","","",""
"","call-function","382","504928","0.0-596.0","o6g1w3c4","","","","","","","","","","","","","","","","","","","","","","","","","","","","",""
"","survey","383","512340","0.0-597.0","o6g1w3c4","1280","720","","","","","","","","","","","7347","feedback","Feedback","","{""strategy_feedback"":"""",""open_feedback"":""""}","","","","","","","","","","[]","","[{""event"":""fullscreenenter"",""trial"":3,""time"":71366}]"
