"value","trial_type","trial_index","time_elapsed","internal_node_id","id","width","height","webaudio","browser","browser_version","mobile","os","fullscreen","vsync_rate","webcam","microphone","view_history","rt","stimulus","trial_info","success","response","exp_parameters","inducer_run","diagnostic_run","cue_num","post_cue","inducer_trial","italic","forced_equal_run","correct_inducer_response_side","correct_diag_response_side","correct_response_key","correct_response","congruent","force_equal","correct_indu_response_side","accuracy","interactive"
"","call-function","0","2","0.0-0.0","fpf9pe0j","","","","","","","","","","","","","","","","","","","","","","","","","","","","","","","","","",""
"","browser-check","1","996","0.0-1.0","fpf9pe0j","1440","779","true","chrome","122.0.0","false","Mac OS","true","60.8","true","true","","","","","","","","","","","","","","","","","","","","","","",""
"","instructions","2","127183","0.0-2.0","fpf9pe0j","","","","","","","","","","","","[{""page_index"":0,""viewing_time"":36542},{""page_index"":1,""viewing_time"":64721},{""page_index"":2,""viewing_time"":24919}]","126183","The experiment and consent","The experiment and consent","","","","","","","","","","","","","","","","","","",""
"","fullscreen","3","140616","0.0-3.0","fpf9pe0j","","","","","","","","","","","","","12428","","Full screen","true","","","","","","","","","","","","","","","","","",""
"","instructions","4","221354","0.0-4.0","fpf9pe0j","","","","","","","","","","","","[{""page_index"":0,""viewing_time"":50320},{""page_index"":1,""viewing_time"":30414}]","80734","Instructions","Basic overview explanation","","","","","","","","","","","","","","","","","","",""
"","html-keyboard-response","5","242862","0.0-5.0","fpf9pe0j","","","","","","","","","","","","","null","If italic press LEFT | If upright press RIGHT","Diagnostic instructions","","null","{""debug"":true,""skip_instructions"":false,""skip_practice"":false,""save_local_data"":false,""studu_name"":""exp2_pilot"",""default_background_colour"":""#cccccc"",""wrong_response_colour"":""#d22d2d"",""instruction_delay"":20000,""trial_duration"":2000,""short_fixation"":750,""long_fixation"":1500,""wrong_response_delay"":300,""too_slow_delay"":300,""instruction_font_size"":""24px"",""general_font_size"":""42px"",""fixation_size"":""48px"",""allowed_responses"":[""f"",""j""],""cue_min_length"":0,""cue_max_length"":4,""tot_post_cue_len"":30,""cue_colour"":""yellow"",""cue_shape"":""Triangle"",""cue_size"":70,""cue_duration"":1250,""avg_number_of_cues"":3,""inducer_colour"":""blue"",""number_of_inducers"":10,""pre_cue_italic_forced_equal"":true,""post_cue_italic_forced_equal"":true,""prac_diagnostic_rounds"":16,""prac_inducer_rounds"":6,""prac_cue_rounds"":16,""prac_post_cue_num"":3}","","","","","","","","","","","","","","","",""
"","html-keyboard-response","6","243615","0.0-6.0","fpf9pe0j","1440","900","","","","","","","","","","","null","+","Fixation - short","","null","","","","","","","","","","","","","","","","",""
"","html-keyboard-response","7","246906","0.0-7.0","fpf9pe0j","","","","","","","","","","","","","3290","faq","diagnostic practice","","f","","prac","0","-84","true","false","true","prac equal","RIGHT","LEFT","f","1","false","","","",""
"","html-keyboard-response","8","247659","0.0-10.0","fpf9pe0j","1440","900","","","","","","","","","","","null","+","Fixation - short","","null","","","","","","","","","","","","","","","","",""
"","html-keyboard-response","9","248920","0.0-11.0","fpf9pe0j","","","","","","","","","","","","","1259","faq","diagnostic practice","","j","","prac","1","-84","true","false","false","prac equal","RIGHT","RIGHT","j","1","true","","","",""
"","html-keyboard-response","10","249672","0.0-14.0","fpf9pe0j","1440","900","","","","","","","","","","","null","+","Fixation - short","","null","","","","","","","","","","","","","","","","",""
"","html-keyboard-response","11","250319","0.0-15.0","fpf9pe0j","","","","","","","","","","","","","646","mts","diagnostic practice","","j","","prac","2","-84","true","false","false","prac equal","LEFT","RIGHT","j","1","false","","","",""
"","html-keyboard-response","12","251072","0.0-18.0","fpf9pe0j","1440","900","","","","","","","","","","","null","+","Fixation - short","","null","","","","","","","","","","","","","","","","",""
"","html-keyboard-response","13","251455","0.0-19.0","fpf9pe0j","","","","","","","","","","","","","382","mts","diagnostic practice","","j","","prac","3","-84","true","false","true","prac equal","LEFT","LEFT","f","0","true","","","",""
"","call-function","14","251456","0.0-21.0-0.0","fpf9pe0j","","","","","","","","","","","","","","","","","","","","","","","","","","","","","","","","","",""
"","html-keyboard-response","15","251758","0.0-21.0-1.0","fpf9pe0j","1440","900","","","","","","","","","","","null","Wrong","Feedback","","null","","","","","","","","","","","","","","","","",""
"","call-function","16","251759","0.0-21.0-2.0","fpf9pe0j","","","","","","","","","","","","","","","","","","","","","","","","","","","","","","","","","",""
"","html-keyboard-response","17","252511","0.0-22.0","fpf9pe0j","1440","900","","","","","","","","","","","null","+","Fixation - short","","null","","","","","","","","","","","","","","","","",""
"","html-keyboard-response","18","253402","0.0-23.0","fpf9pe0j","","","","","","","","","","","","","890","mts","diagnostic practice","","f","","prac","4","-84","true","false","true","prac equal","LEFT","LEFT","f","1","true","","","",""
"","html-keyboard-response","19","254155","0.0-26.0","fpf9pe0j","1440","900","","","","","","","","","","","null","+","Fixation - short","","null","","","","","","","","","","","","","","","","",""
"","html-keyboard-response","20","254864","0.0-27.0","fpf9pe0j","","","","","","","","","","","","","708","faq","diagnostic practice","","j","","prac","5","-84","true","false","false","prac equal","RIGHT","RIGHT","j","1","true","","","",""
"","html-keyboard-response","21","255616","0.0-30.0","fpf9pe0j","1440","900","","","","","","","","","","","null","+","Fixation - short","","null","","","","","","","","","","","","","","","","",""
"","html-keyboard-response","22","256444","0.0-31.0","fpf9pe0j","","","","","","","","","","","","","827","mts","diagnostic practice","","f","","prac","6","-84","true","false","true","prac equal","LEFT","LEFT","f","1","true","","","",""
"","html-keyboard-response","23","257196","0.0-34.0","fpf9pe0j","1440","900","","","","","","","","","","","null","+","Fixation - short","","null","","","","","","","","","","","","","","","","",""
"","html-keyboard-response","24","257820","0.0-35.0","fpf9pe0j","","","","","","","","","","","","","623","mts","diagnostic practice","","j","","prac","7","-84","true","false","false","prac equal","LEFT","RIGHT","j","1","false","","","",""
"","html-keyboard-response","25","258572","0.0-38.0","fpf9pe0j","1440","900","","","","","","","","","","","null","+","Fixation - short","","null","","","","","","","","","","","","","","","","",""
"","html-keyboard-response","26","259098","0.0-39.0","fpf9pe0j","","","","","","","","","","","","","525","faq","diagnostic practice","","f","","prac","8","-84","true","false","true","prac equal","RIGHT","LEFT","f","1","false","","","",""
"","html-keyboard-response","27","259851","0.0-42.0","fpf9pe0j","1440","900","","","","","","","","","","","null","+","Fixation - short","","null","","","","","","","","","","","","","","","","",""
"","html-keyboard-response","28","260480","0.0-43.0","fpf9pe0j","","","","","","","","","","","","","629","faq","diagnostic practice","","j","","prac","9","-84","true","false","false","prac equal","RIGHT","RIGHT","j","1","true","","","",""
"","html-keyboard-response","29","261232","0.0-46.0","fpf9pe0j","1440","900","","","","","","","","","","","null","+","Fixation - short","","null","","","","","","","","","","","","","","","","",""
"","html-keyboard-response","30","261844","0.0-47.0","fpf9pe0j","","","","","","","","","","","","","611","mts","diagnostic practice","","j","","prac","10","-84","true","false","false","prac equal","LEFT","RIGHT","j","1","false","","","",""
"","html-keyboard-response","31","262596","0.0-50.0","fpf9pe0j","1440","900","","","","","","","","","","","null","+","Fixation - short","","null","","","","","","","","","","","","","","","","",""
"","html-keyboard-response","32","263138","0.0-51.0","fpf9pe0j","","","","","","","","","","","","","541","mts","diagnostic practice","","f","","prac","11","-84","true","false","true","prac equal","LEFT","LEFT","f","1","true","","","",""
"","html-keyboard-response","33","263890","0.0-54.0","fpf9pe0j","1440","900","","","","","","","","","","","null","+","Fixation - short","","null","","","","","","","","","","","","","","","","",""
"","html-keyboard-response","34","264405","0.0-55.0","fpf9pe0j","","","","","","","","","","","","","514","faq","diagnostic practice","","j","","prac","12","-84","true","false","false","prac equal","RIGHT","RIGHT","j","1","true","","","",""
"","html-keyboard-response","35","265157","0.0-58.0","fpf9pe0j","1440","900","","","","","","","","","","","null","+","Fixation - short","","null","","","","","","","","","","","","","","","","",""
"","html-keyboard-response","36","265763","0.0-59.0","fpf9pe0j","","","","","","","","","","","","","606","mts","diagnostic practice","","f","","prac","13","-84","true","false","true","prac equal","LEFT","LEFT","f","1","true","","","",""
"","html-keyboard-response","37","266516","0.0-62.0","fpf9pe0j","1440","900","","","","","","","","","","","null","+","Fixation - short","","null","","","","","","","","","","","","","","","","",""
"","html-keyboard-response","38","267087","0.0-63.0","fpf9pe0j","","","","","","","","","","","","","571","faq","diagnostic practice","","j","","prac","14","-84","true","false","false","prac equal","RIGHT","RIGHT","j","1","true","","","",""
"","html-keyboard-response","39","267840","0.0-66.0","fpf9pe0j","1440","900","","","","","","","","","","","null","+","Fixation - short","","null","","","","","","","","","","","","","","","","",""
"","html-keyboard-response","40","269253","0.0-67.0","fpf9pe0j","","","","","","","","","","","","","1412","mts","diagnostic practice","","f","","prac","15","-84","true","false","true","prac equal","LEFT","LEFT","f","1","true","","","",""
"","html-keyboard-response","41","270005","0.0-70.0","fpf9pe0j","1440","900","","","","","","","","","","","null","+","Fixation - short","","null","","","","","","","","","","","","","","","","",""
"","instructions","42","301835","0.0-71.0","fpf9pe0j","","","","","","","","","","","","[{""page_index"":0,""viewing_time"":31828}]","31829","Instructions","Final experiment explanation","","","","","","","","","","","","","","","","","","",""
"","html-keyboard-response","43","323340","0.0-72.0","fpf9pe0j","","","","","","","","","","","","","null","If rrd press LEFT | If kue press RIGHT","inducer practice","","null","","prac","","","","","","","","","","","","","","",""
"","html-keyboard-response","44","324094","0.0-73.0","fpf9pe0j","1440","900","","","","","","","","","","","null","+","Fixation - short","","null","","","","","","","","","","","","","","","","",""
"","html-keyboard-response","45","324868","0.0-74.0","fpf9pe0j","","","","","","","","","","","","","773","kue","inducer practice","","j","","prac","","","","true","","","","","j","1","","false","RIGHT","",""
"","html-keyboard-response","46","325620","0.0-77.0","fpf9pe0j","1440","900","","","","","","","","","","","null","+","Fixation - short","","null","","","","","","","","","","","","","","","","",""
"","html-keyboard-response","47","332444","0.0-78.0","fpf9pe0j","","","","","","","","","","","","","6822","If saj press LEFT | If cer press RIGHT","inducer practice",""," ","","prac","","","","","","","","","","","","","","",""
"","html-keyboard-response","48","333197","0.0-79.0","fpf9pe0j","1440","900","","","","","","","","","","","null","+","Fixation - short","","null","","","","","","","","","","","","","","","","",""
"","html-keyboard-response","49","333709","0.0-80.0","fpf9pe0j","","","","","","","","","","","","","511","saj","inducer practice","","f","","prac","","","","true","","","","","f","1","","false","LEFT","",""
"","html-keyboard-response","50","334461","0.0-83.0","fpf9pe0j","1440","900","","","","","","","","","","","null","+","Fixation - short","","null","","","","","","","","","","","","","","","","",""
"","html-keyboard-response","51","336851","0.0-84.0","fpf9pe0j","","","","","","","","","","","","","2389","If snx press LEFT | If uen press RIGHT","inducer practice",""," ","","prac","","","","","","","","","","","","","","",""
"","html-keyboard-response","52","337603","0.0-85.0","fpf9pe0j","1440","900","","","","","","","","","","","null","+","Fixation - short","","null","","","","","","","","","","","","","","","","",""
"","html-keyboard-response","53","338121","0.0-86.0","fpf9pe0j","","","","","","","","","","","","","517","snx","inducer practice","","f","","prac","","","","true","","","","","f","1","","false","LEFT","",""
"","html-keyboard-response","54","338873","0.0-89.0","fpf9pe0j","1440","900","","","","","","","","","","","null","+","Fixation - short","","null","","","","","","","","","","","","","","","","",""
"","html-keyboard-response","55","342467","0.0-90.0","fpf9pe0j","","","","","","","","","","","","","3593","If chy press LEFT | If edc press RIGHT","inducer practice",""," ","","prac","","","","","","","","","","","","","","",""
"","html-keyboard-response","56","343220","0.0-91.0","fpf9pe0j","1440","900","","","","","","","","","","","null","+","Fixation - short","","null","","","","","","","","","","","","","","","","",""
"","html-keyboard-response","57","343843","0.0-92.0","fpf9pe0j","","","","","","","","","","","","","623","edc","inducer practice","","j","","prac","","","","true","","","","","j","1","","false","RIGHT","",""
"","html-keyboard-response","58","344596","0.0-95.0","fpf9pe0j","1440","900","","","","","","","","","","","null","+","Fixation - short","","null","","","","","","","","","","","","","","","","",""
"","html-keyboard-response","59","346386","0.0-96.0","fpf9pe0j","","","","","","","","","","","","","1789","If oez press LEFT | If yrp press RIGHT","inducer practice",""," ","","prac","","","","","","","","","","","","","","",""
"","html-keyboard-response","60","347139","0.0-97.0","fpf9pe0j","1440","900","","","","","","","","","","","null","+","Fixation - short","","null","","","","","","","","","","","","","","","","",""
"","html-keyboard-response","61","348313","0.0-98.0","fpf9pe0j","","","","","","","","","","","","","1174","yrp","inducer practice","","j","","prac","","","","true","","","","","j","1","","false","RIGHT","",""
"","html-keyboard-response","62","349066","0.0-101.0","fpf9pe0j","1440","900","","","","","","","","","","","null","+","Fixation - short","","null","","","","","","","","","","","","","","","","",""
"","html-keyboard-response","63","351333","0.0-102.0","fpf9pe0j","","","","","","","","","","","","","2266","If mda press LEFT | If ufc press RIGHT","inducer practice",""," ","","prac","","","","","","","","","","","","","","",""
"","html-keyboard-response","64","352086","0.0-103.0","fpf9pe0j","1440","900","","","","","","","","","","","null","+","Fixation - short","","null","","","","","","","","","","","","","","","","",""
"","html-keyboard-response","65","352709","0.0-104.0","fpf9pe0j","","","","","","","","","","","","","622","ufc","inducer practice","","j","","prac","","","","true","","","","","j","1","","false","RIGHT","",""
"","html-keyboard-response","66","353461","0.0-107.0","fpf9pe0j","1440","900","","","","","","","","","","","null","+","Fixation - short","","null","","","","","","","","","","","","","","","","",""
"","html-keyboard-response","67","407550","0.0-108.0","fpf9pe0j","","","","","","","","","","","","","54086","Cue practice","Cue practice",""," ","","","","","","","","","","","","","","","","",""
"","html-keyboard-response","68","415546","0.0-109.0","fpf9pe0j","","","","","","","","","","","","","7995","If jcr press LEFT | If goj press RIGHT","cue practice",""," ","","prac","","","","","","","","","","","","","","",""
"","html-keyboard-response","69","416298","0.0-110.0","fpf9pe0j","1440","900","","","","","","","","","","","null","+","Fixation - short","","null","","","","","","","","","","","","","","","","",""
"","html-keyboard-response","70","419153","0.0-111.0","fpf9pe0j","","","","","","","","","","","","","2854","jcr","cue practice","","f","","prac","0","13","false","false","true","only pre","LEFT","LEFT","f","1","true","","","",""
"","html-keyboard-response","71","419906","0.0-114.0","fpf9pe0j","1440","900","","","","","","","","","","","null","+","Fixation - short","","null","","","","","","","","","","","","","","","","",""
"","html-keyboard-response","72","420572","0.0-115.0","fpf9pe0j","","","","","","","","","","","","","666","goj","cue practice","","j","","prac","1","13","false","false","false","only pre","RIGHT","RIGHT","j","1","true","","","",""
"","html-keyboard-response","73","421325","0.0-118.0","fpf9pe0j","1440","900","","","","","","","","","","","null","+","Fixation - short","","null","","","","","","","","","","","","","","","","",""
"","html-keyboard-response","74","422010","0.0-119.0","fpf9pe0j","","","","","","","","","","","","","685","jcr","cue practice","","f","","prac","2","13","false","false","true","only pre","LEFT","LEFT","f","1","true","","","",""
"","html-keyboard-response","75","422763","0.0-122.0","fpf9pe0j","1440","900","","","","","","","","","","","null","+","Fixation - short","","null","","","","","","","","","","","","","","","","",""
"","html-keyboard-response","76","427073","0.0-123.0","fpf9pe0j","","","","","","","","","","","","","4309","jcr","cue practice","","j","","prac","3","13","false","false","","only pre","LEFT","RIGHT","j","1","false","","","",""
"","html-keyboard-response","77","427825","0.0-126.0","fpf9pe0j","1440","900","","","","","","","","","","","null","+","Fixation - short","","null","","","","","","","","","","","","","","","","",""
"","html-keyboard-response","78","428870","0.0-127.0","fpf9pe0j","","","","","","","","","","","","","1044","goj","cue practice","","j","","prac","4","13","false","false","","only pre","RIGHT","RIGHT","j","1","true","","","",""
"","html-keyboard-response","79","429622","0.0-130.0","fpf9pe0j","1440","900","","","","","","","","","","","null","+","Fixation - short","","null","","","","","","","","","","","","","","","","",""
"","html-keyboard-response","80","430369","0.0-131.0","fpf9pe0j","","","","","","","","","","","","","746","jcr","cue practice","","j","","prac","5","13","false","false","","only pre","LEFT","RIGHT","j","1","false","","","",""
"","html-keyboard-response","81","431122","0.0-134.0","fpf9pe0j","1440","900","","","","","","","","","","","null","+","Fixation - short","","null","","","","","","","","","","","","","","","","",""
"","html-keyboard-response","82","432093","0.0-135.0","fpf9pe0j","","","","","","","","","","","","","970","goj","cue practice","","j","","prac","6","13","false","false","","only pre","RIGHT","RIGHT","j","1","true","","","",""
"","html-keyboard-response","83","432845","0.0-138.0","fpf9pe0j","1440","900","","","","","","","","","","","null","+","Fixation - short","","null","","","","","","","","","","","","","","","","",""
"","html-keyboard-response","84","433332","0.0-139.0","fpf9pe0j","","","","","","","","","","","","","486","goj","cue practice","","j","","prac","7","13","false","false","","only pre","RIGHT","RIGHT","j","1","true","","","",""
"","html-keyboard-response","85","434084","0.0-142.0","fpf9pe0j","1440","900","","","","","","","","","","","null","+","Fixation - short","","null","","","","","","","","","","","","","","","","",""
"","html-keyboard-response","86","434528","0.0-143.0","fpf9pe0j","","","","","","","","","","","","","443","jcr","cue practice","","j","","prac","8","13","false","false","","only pre","LEFT","RIGHT","j","1","false","","","",""
"","html-keyboard-response","87","435281","0.0-146.0","fpf9pe0j","1440","900","","","","","","","","","","","null","+","Fixation - short","","null","","","","","","","","","","","","","","","","",""
"","html-keyboard-response","88","435788","0.0-147.0","fpf9pe0j","","","","","","","","","","","","","507","goj","cue practice","","j","","prac","9","13","false","false","","only pre","RIGHT","RIGHT","j","1","true","","","",""
"","html-keyboard-response","89","436541","0.0-150.0","fpf9pe0j","1440","900","","","","","","","","","","","null","+","Fixation - short","","null","","","","","","","","","","","","","","","","",""
"","html-keyboard-response","90","436900","0.0-151.0","fpf9pe0j","","","","","","","","","","","","","359","goj","cue practice","","j","","prac","10","13","false","false","","only pre","RIGHT","RIGHT","j","1","true","","","",""
"","html-keyboard-response","91","437652","0.0-154.0","fpf9pe0j","1440","900","","","","","","","","","","","null","+","Fixation - short","","null","","","","","","","","","","","","","","","","",""
"","html-keyboard-response","92","438024","0.0-155.0","fpf9pe0j","","","","","","","","","","","","","371","goj","cue practice","","j","","prac","11","13","false","false","","only pre","RIGHT","RIGHT","j","1","true","","","",""
"","html-keyboard-response","93","438775","0.0-158.0","fpf9pe0j","1440","900","","","","","","","","","","","null","+","Fixation - short","","null","","","","","","","","","","","","","","","","",""
"","html-keyboard-response","94","439084","0.0-159.0","fpf9pe0j","","","","","","","","","","","","","309","jcr","cue practice","","j","","prac","12","13","false","false","","only pre","LEFT","RIGHT","j","1","false","","","",""
"","html-keyboard-response","95","439836","0.0-162.0","fpf9pe0j","1440","900","","","","","","","","","","","null","+","Fixation - short","","null","","","","","","","","","","","","","","","","",""
"","canvas-keyboard-response","96","441106","0.0-163.0","fpf9pe0j","","","","","","","","","","","","","null","Cue","Cue","","null","","prac","12","","","false","","","","","","","","","","",""
"","html-keyboard-response","97","441858","0.0-164.0","fpf9pe0j","1440","900","","","","","","","","","","","null","+","Fixation - short","","null","","","","","","","","","","","","","","","","",""
"","html-keyboard-response","98","444633","0.0-165.0","fpf9pe0j","","","","","","","","","","","","","2775","goj","cue practice","","f","","prac","13","13","true","false","true","only pre","RIGHT","LEFT","f","1","false","","","",""
"","html-keyboard-response","99","445386","0.0-168.0","fpf9pe0j","1440","900","","","","","","","","","","","null","+","Fixation - short","","null","","","","","","","","","","","","","","","","",""
"","html-keyboard-response","100","446967","0.0-169.0","fpf9pe0j","","","","","","","","","","","","","1581","jcr","cue practice","","j","","prac","14","13","true","false","true","only pre","LEFT","LEFT","f","0","true","","","",""
"","call-function","101","446968","0.0-171.0-0.0","fpf9pe0j","","","","","","","","","","","","","","","","","","","","","","","","","","","","","","","","","",""
"","html-keyboard-response","102","447270","0.0-171.0-1.0","fpf9pe0j","1440","900","","","","","","","","","","","null","Wrong","Feedback","","null","","","","","","","","","","","","","","","","",""
"","call-function","103","447270","0.0-171.0-2.0","fpf9pe0j","","","","","","","","","","","","","","","","","","","","","","","","","","","","","","","","","",""
"","html-keyboard-response","104","448023","0.0-172.0","fpf9pe0j","1440","900","","","","","","","","","","","null","+","Fixation - short","","null","","","","","","","","","","","","","","","","",""
"","html-keyboard-response","105","452436","0.0-173.0","fpf9pe0j","","","","","","","","","","","","","4412","goj","cue practice","","f","","prac","15","13","true","false","true","only pre","RIGHT","LEFT","f","1","false","","","",""
"","html-keyboard-response","106","453189","0.0-176.0","fpf9pe0j","1440","900","","","","","","","","","","","null","+","Fixation - short","","null","","","","","","","","","","","","","","","","",""
"","html-keyboard-response","107","455192","0.0-177.0","fpf9pe0j","","","","","","","","","","","","","null","goj","inducer practice","","null","","prac","","","","true","","","","","j","NaN","","false","RIGHT","",""
"","call-function","108","455192","0.0-178.0-0.0","fpf9pe0j","","","","","","","","","","","","","","","","","","","","","","","","","","","","","","","","","",""
"","html-keyboard-response","109","455495","0.0-178.0-1.0","fpf9pe0j","1440","900","","","","","","","","","","","null","Slow","Feedback","","null","","","","","","","","","","","","","","","","",""
"","call-function","110","455496","0.0-178.0-2.0","fpf9pe0j","","","","","","","","","","","","","","","","","","","","","","","","","","","","","","","","","",""
"","html-keyboard-response","111","456247","0.0-180.0","fpf9pe0j","1440","900","","","","","","","","","","","null","+","Fixation - short","","null","","","","","","","","","","","","","","","","",""
"","html-keyboard-response","112","483073","0.0-181.0","fpf9pe0j","","","","","","","","","","","","","26824","End practice","End of practice",""," ","","","","","","","","","","","","","","","","",""
"","html-keyboard-response","113","484576","0.0-182.0","fpf9pe0j","1440","900","","","","","","","","","","","null","+","Fixation - long","","null","","","","","","","","","","","","","","","","",""
"","html-keyboard-response","114","497326","0.0-183.0","fpf9pe0j","","","","","","","","","","","","","12749","If slu press LEFT | If vpu press RIGHT","inducer instructions",""," ","","0","","","","","","","","","","","","","","",""
"","html-keyboard-response","115","498079","0.0-184.0","fpf9pe0j","1440","900","","","","","","","","","","","null","+","Fixation - short","","null","","","","","","","","","","","","","","","","",""
"","html-keyboard-response","116","500081","0.0-185.0","fpf9pe0j","","","","","","","","","","","","","null","vpu","diagnostic trial","","null","","0","0","8","false","false","false","both pre & post","RIGHT","RIGHT","j","NaN","true","","","",""
"","call-function","117","500081","0.0-186.0-0.0","fpf9pe0j","","","","","","","","","","","","","","","","","","","","","","","","","","","","","","","","","",""
"","html-keyboard-response","118","500383","0.0-186.0-1.0","fpf9pe0j","1440","900","","","","","","","","","","","null","Slow","Feedback","","null","","","","","","","","","","","","","","","","",""
"","call-function","119","500384","0.0-186.0-2.0","fpf9pe0j","","","","","","","","","","","","","","","","","","","","","","","","","","","","","","","","","",""
"","html-keyboard-response","120","501136","0.0-188.0","fpf9pe0j","1440","900","","","","","","","","","","","null","+","Fixation - short","","null","","","","","","","","","","","","","","","","",""
"","html-keyboard-response","121","502114","0.0-189.0","fpf9pe0j","","","","","","","","","","","","","976","slu","diagnostic trial","","j","","0","1","8","false","false","false","both pre & post","LEFT","RIGHT","j","1","false","","","",""
"","html-keyboard-response","122","502866","0.0-192.0","fpf9pe0j","1440","900","","","","","","","","","","","null","+","Fixation - short","","null","","","","","","","","","","","","","","","","",""
"","html-keyboard-response","123","503324","0.0-193.0","fpf9pe0j","","","","","","","","","","","","","458","vpu","diagnostic trial","","j","","0","2","8","false","false","false","both pre & post","RIGHT","RIGHT","j","1","true","","","",""
"","html-keyboard-response","124","504077","0.0-196.0","fpf9pe0j","1440","900","","","","","","","","","","","null","+","Fixation - short","","null","","","","","","","","","","","","","","","","",""
"","html-keyboard-response","125","505208","0.0-197.0","fpf9pe0j","","","","","","","","","","","","","1130","slu","diagnostic trial","","f","","0","3","8","false","false","true","both pre & post","LEFT","LEFT","f","1","true","","","",""
"","html-keyboard-response","126","505960","0.0-200.0","fpf9pe0j","1440","900","","","","","","","","","","","null","+","Fixation - short","","null","","","","","","","","","","","","","","","","",""
"","html-keyboard-response","127","506779","0.0-201.0","fpf9pe0j","","","","","","","","","","","","","818","slu","diagnostic trial","","f","","0","4","8","false","false","true","both pre & post","LEFT","LEFT","f","1","true","","","",""
"","html-keyboard-response","128","507531","0.0-204.0","fpf9pe0j","1440","900","","","","","","","","","","","null","+","Fixation - short","","null","","","","","","","","","","","","","","","","",""
"","html-keyboard-response","129","508260","0.0-205.0","fpf9pe0j","","","","","","","","","","","","","728","slu","diagnostic trial","","j","","0","5","8","false","false","false","both pre & post","LEFT","RIGHT","j","1","false","","","",""
"","html-keyboard-response","130","509012","0.0-208.0","fpf9pe0j","1440","900","","","","","","","","","","","null","+","Fixation - short","","null","","","","","","","","","","","","","","","","",""
"","html-keyboard-response","131","510014","0.0-209.0","fpf9pe0j","","","","","","","","","","","","","1001","slu","diagnostic trial","","f","","0","6","8","false","false","true","both pre & post","LEFT","LEFT","f","1","true","","","",""
"","html-keyboard-response","132","510767","0.0-212.0","fpf9pe0j","1440","900","","","","","","","","","","","null","+","Fixation - short","","null","","","","","","","","","","","","","","","","",""
"","html-keyboard-response","133","511473","0.0-213.0","fpf9pe0j","","","","","","","","","","","","","705","vpu","diagnostic trial","","f","","0","7","8","false","false","true","both pre & post","RIGHT","LEFT","f","1","false","","","",""
"","html-keyboard-response","134","512224","0.0-216.0","fpf9pe0j","1440","900","","","","","","","","","","","null","+","Fixation - short","","null","","","","","","","","","","","","","","","","",""
"","canvas-keyboard-response","135","513477","0.0-217.0","fpf9pe0j","","","","","","","","","","","","","null","Cue","Cue","","null","","0","7","","","false","","","","","","","","","","",""
"","html-keyboard-response","136","514230","0.0-218.0","fpf9pe0j","1440","900","","","","","","","","","","","null","+","Fixation - short","","null","","","","","","","","","","","","","","","","",""
"","html-keyboard-response","137","516232","0.0-219.0","fpf9pe0j","","","","","","","","","","","","","null","vpu","diagnostic trial","","null","","0","8","8","true","false","true","both pre & post","RIGHT","LEFT","f","NaN","false","","","",""
"","call-function","138","516234","0.0-220.0-0.0","fpf9pe0j","","","","","","","","","","","","","","","","","","","","","","","","","","","","","","","","","",""
"","html-keyboard-response","139","516536","0.0-220.0-1.0","fpf9pe0j","1440","900","","","","","","","","","","","null","Slow","Feedback","","null","","","","","","","","","","","","","","","","",""
"","call-function","140","516536","0.0-220.0-2.0","fpf9pe0j","","","","","","","","","","","","","","","","","","","","","","","","","","","","","","","","","",""
"","html-keyboard-response","141","517288","0.0-222.0","fpf9pe0j","1440","900","","","","","","","","","","","null","+","Fixation - short","","null","","","","","","","","","","","","","","","","",""
"","html-keyboard-response","142","518444","0.0-223.0","fpf9pe0j","","","","","","","","","","","","","1154","vpu","diagnostic trial","","j","","0","9","8","true","false","false","both pre & post","RIGHT","RIGHT","j","1","true","","","",""
"","html-keyboard-response","143","519196","0.0-226.0","fpf9pe0j","1440","900","","","","","","","","","","","null","+","Fixation - short","","null","","","","","","","","","","","","","","","","",""
"","html-keyboard-response","144","519694","0.0-227.0","fpf9pe0j","","","","","","","","","","","","","497","vpu","diagnostic trial","","j","","0","10","8","true","false","false","both pre & post","RIGHT","RIGHT","j","1","true","","","",""
"","html-keyboard-response","145","520447","0.0-230.0","fpf9pe0j","1440","900","","","","","","","","","","","null","+","Fixation - short","","null","","","","","","","","","","","","","","","","",""
"","html-keyboard-response","146","521038","0.0-231.0","fpf9pe0j","","","","","","","","","","","","","591","slu","diagnostic trial","","f","","0","11","8","true","false","true","both pre & post","LEFT","LEFT","f","1","true","","","",""
"","html-keyboard-response","147","521790","0.0-234.0","fpf9pe0j","1440","900","","","","","","","","","","","null","+","Fixation - short","","null","","","","","","","","","","","","","","","","",""
"","html-keyboard-response","148","523148","0.0-235.0","fpf9pe0j","","","","","","","","","","","","","1357","vpu","inducer trial","","j","","0","","","","true","","","","","j","1","","false","RIGHT","",""
"","html-keyboard-response","149","523899","0.0-238.0","fpf9pe0j","1440","900","","","","","","","","","","","null","+","Fixation - short","","null","","","","","","","","","","","","","","","","",""
"","html-keyboard-response","150","530434","0.0-239.0","fpf9pe0j","","","","","","","","","","","","","6533","If sdw press LEFT | If jlm press RIGHT","inducer instructions",""," ","","1","","","","","","","","","","","","","","",""
"","html-keyboard-response","151","531186","0.0-240.0","fpf9pe0j","1440","900","","","","","","","","","","","null","+","Fixation - short","","null","","","","","","","","","","","","","","","","",""
"","html-keyboard-response","152","532512","0.0-241.0","fpf9pe0j","","","","","","","","","","","","","1326","sdw","diagnostic trial","","j","","1","0","8","false","false","false","both pre & post","LEFT","RIGHT","j","1","false","","","",""
"","html-keyboard-response","153","533264","0.0-244.0","fpf9pe0j","1440","900","","","","","","","","","","","null","+","Fixation - short","","null","","","","","","","","","","","","","","","","",""
"","html-keyboard-response","154","533862","0.0-245.0","fpf9pe0j","","","","","","","","","","","","","597","sdw","diagnostic trial","","f","","1","1","8","false","false","true","both pre & post","LEFT","LEFT","f","1","true","","","",""
"","html-keyboard-response","155","534614","0.0-248.0","fpf9pe0j","1440","900","","","","","","","","","","","null","+","Fixation - short","","null","","","","","","","","","","","","","","","","",""
"","html-keyboard-response","156","535976","0.0-249.0","fpf9pe0j","","","","","","","","","","","","","1362","jlm","diagnostic trial","","f","","1","2","8","false","false","true","both pre & post","RIGHT","LEFT","f","1","false","","","",""
"","html-keyboard-response","157","536729","0.0-252.0","fpf9pe0j","1440","900","","","","","","","","","","","null","+","Fixation - short","","null","","","","","","","","","","","","","","","","",""
"","html-keyboard-response","158","537388","0.0-253.0","fpf9pe0j","","","","","","","","","","","","","659","jlm","diagnostic trial","","j","","1","3","8","false","false","false","both pre & post","RIGHT","RIGHT","j","1","true","","","",""
"","html-keyboard-response","159","538140","0.0-256.0","fpf9pe0j","1440","900","","","","","","","","","","","null","+","Fixation - short","","null","","","","","","","","","","","","","","","","",""
"","html-keyboard-response","160","538864","0.0-257.0","fpf9pe0j","","","","","","","","","","","","","722","jlm","diagnostic trial","","f","","1","4","8","false","false","true","both pre & post","RIGHT","LEFT","f","1","false","","","",""
"","html-keyboard-response","161","539616","0.0-260.0","fpf9pe0j","1440","900","","","","","","","","","","","null","+","Fixation - short","","null","","","","","","","","","","","","","","","","",""
"","html-keyboard-response","162","540277","0.0-261.0","fpf9pe0j","","","","","","","","","","","","","660","jlm","diagnostic trial","","j","","1","5","8","false","false","false","both pre & post","RIGHT","RIGHT","j","1","true","","","",""
"","html-keyboard-response","163","541029","0.0-264.0","fpf9pe0j","1440","900","","","","","","","","","","","null","+","Fixation - short","","null","","","","","","","","","","","","","","","","",""
"","html-keyboard-response","164","541959","0.0-265.0","fpf9pe0j","","","","","","","","","","","","","929","sdw","diagnostic trial","","j","","1","6","8","false","false","false","both pre & post","LEFT","RIGHT","j","1","false","","","",""
"","html-keyboard-response","165","542712","0.0-268.0","fpf9pe0j","1440","900","","","","","","","","","","","null","+","Fixation - short","","null","","","","","","","","","","","","","","","","",""
"","html-keyboard-response","166","543253","0.0-269.0","fpf9pe0j","","","","","","","","","","","","","541","sdw","diagnostic trial","","j","","1","7","8","false","false","false","both pre & post","LEFT","RIGHT","j","1","false","","","",""
"","html-keyboard-response","167","544005","0.0-272.0","fpf9pe0j","1440","900","","","","","","","","","","","null","+","Fixation - short","","null","","","","","","","","","","","","","","","","",""
"","canvas-keyboard-response","168","545258","0.0-273.0","fpf9pe0j","","","","","","","","","","","","","null","Cue","Cue","","null","","1","7","","","false","","","","","","","","","","",""
"","html-keyboard-response","169","546010","0.0-274.0","fpf9pe0j","1440","900","","","","","","","","","","","null","+","Fixation - short","","null","","","","","","","","","","","","","","","","",""
"","html-keyboard-response","170","546667","0.0-275.0","fpf9pe0j","","","","","","","","","","","","","657","sdw","diagnostic trial","","f","","1","8","8","true","false","false","both pre & post","LEFT","RIGHT","j","0","false","","","",""
"","call-function","171","546668","0.0-277.0-0.0","fpf9pe0j","","","","","","","","","","","","","","","","","","","","","","","","","","","","","","","","","",""
"","html-keyboard-response","172","546970","0.0-277.0-1.0","fpf9pe0j","1440","900","","","","","","","","","","","null","Wrong","Feedback","","null","","","","","","","","","","","","","","","","",""
"","call-function","173","546971","0.0-277.0-2.0","fpf9pe0j","","","","","","","","","","","","","","","","","","","","","","","","","","","","","","","","","",""
"","html-keyboard-response","174","547723","0.0-278.0","fpf9pe0j","1440","900","","","","","","","","","","","null","+","Fixation - short","","null","","","","","","","","","","","","","","","","",""
"","html-keyboard-response","175","549725","0.0-279.0","fpf9pe0j","","","","","","","","","","","","","null","sdw","diagnostic trial","","null","","1","9","8","true","false","false","both pre & post","LEFT","RIGHT","j","NaN","false","","","",""
"","call-function","176","549725","0.0-280.0-0.0","fpf9pe0j","","","","","","","","","","","","","","","","","","","","","","","","","","","","","","","","","",""
"","html-keyboard-response","177","550027","0.0-280.0-1.0","fpf9pe0j","1440","900","","","","","","","","","","","null","Slow","Feedback","","null","","","","","","","","","","","","","","","","",""
"","call-function","178","550028","0.0-280.0-2.0","fpf9pe0j","","","","","","","","","","","","","","","","","","","","","","","","","","","","","","","","","",""
"","html-keyboard-response","179","550780","0.0-282.0","fpf9pe0j","1440","900","","","","","","","","","","","null","+","Fixation - short","","null","","","","","","","","","","","","","","","","",""
"","html-keyboard-response","180","551694","0.0-283.0","fpf9pe0j","","","","","","","","","","","","","913","sdw","diagnostic trial","","f","","1","10","8","true","false","true","both pre & post","LEFT","LEFT","f","1","true","","","",""
"","html-keyboard-response","181","552446","0.0-286.0","fpf9pe0j","1440","900","","","","","","","","","","","null","+","Fixation - short","","null","","","","","","","","","","","","","","","","",""
"","html-keyboard-response","182","553413","0.0-287.0","fpf9pe0j","","","","","","","","","","","","","966","sdw","inducer trial","","j","","1","","","","true","","","","","f","0","","false","LEFT","",""
"","call-function","183","553414","0.0-289.0-0.0","fpf9pe0j","","","","","","","","","","","","","","","","","","","","","","","","","","","","","","","","","",""
"","html-keyboard-response","184","553716","0.0-289.0-1.0","fpf9pe0j","1440","900","","","","","","","","","","","null","Wrong","Feedback","","null","","","","","","","","","","","","","","","","",""
"","call-function","185","553717","0.0-289.0-2.0","fpf9pe0j","","","","","","","","","","","","","","","","","","","","","","","","","","","","","","","","","",""
"","html-keyboard-response","186","554469","0.0-290.0","fpf9pe0j","1440","900","","","","","","","","","","","null","+","Fixation - short","","null","","","","","","","","","","","","","","","","",""
"","html-keyboard-response","187","565256","0.0-291.0","fpf9pe0j","","","","","","","","","","","","","10786","If pmf press LEFT | If dpa press RIGHT","inducer instructions",""," ","","2","","","","","","","","","","","","","","",""
"","html-keyboard-response","188","566008","0.0-292.0","fpf9pe0j","1440","900","","","","","","","","","","","null","+","Fixation - short","","null","","","","","","","","","","","","","","","","",""
"","html-keyboard-response","189","567071","0.0-293.0","fpf9pe0j","","","","","","","","","","","","","1062","pmf","diagnostic trial","","j","","2","0","4","false","false","false","both pre & post","LEFT","RIGHT","j","1","false","","","",""
"","html-keyboard-response","190","567824","0.0-296.0","fpf9pe0j","1440","900","","","","","","","","","","","null","+","Fixation - short","","null","","","","","","","","","","","","","","","","",""
"","html-keyboard-response","191","568484","0.0-297.0","fpf9pe0j","","","","","","","","","","","","","659","dpa","diagnostic trial","","f","","2","1","4","false","false","true","both pre & post","RIGHT","LEFT","f","1","false","","","",""
"","html-keyboard-response","192","569237","0.0-300.0","fpf9pe0j","1440","900","","","","","","","","","","","null","+","Fixation - short","","null","","","","","","","","","","","","","","","","",""
"","html-keyboard-response","193","570531","0.0-301.0","fpf9pe0j","","","","","","","","","","","","","1293","dpa","diagnostic trial","","f","","2","2","4","false","false","true","both pre & post","RIGHT","LEFT","f","1","false","","","",""
"","html-keyboard-response","194","571284","0.0-304.0","fpf9pe0j","1440","900","","","","","","","","","","","null","+","Fixation - short","","null","","","","","","","","","","","","","","","","",""
"","html-keyboard-response","195","571778","0.0-305.0","fpf9pe0j","","","","","","","","","","","","","493","dpa","diagnostic trial","","f","","2","3","4","false","false","true","both pre & post","RIGHT","LEFT","f","1","false","","","",""
"","html-keyboard-response","196","572531","0.0-308.0","fpf9pe0j","1440","900","","","","","","","","","","","null","+","Fixation - short","","null","","","","","","","","","","","","","","","","",""
"","canvas-keyboard-response","197","573784","0.0-309.0","fpf9pe0j","","","","","","","","","","","","","null","Cue","Cue","","null","","2","3","","","false","","","","","","","","","","",""
"","html-keyboard-response","198","574536","0.0-310.0","fpf9pe0j","1440","900","","","","","","","","","","","null","+","Fixation - short","","null","","","","","","","","","","","","","","","","",""
"","html-keyboard-response","199","575814","0.0-311.0","fpf9pe0j","","","","","","","","","","","","","1277","dpa","diagnostic trial","","j","","2","4","4","true","false","false","both pre & post","RIGHT","RIGHT","j","1","true","","","",""
"","html-keyboard-response","200","576567","0.0-314.0","fpf9pe0j","1440","900","","","","","","","","","","","null","+","Fixation - short","","null","","","","","","","","","","","","","","","","",""
"","html-keyboard-response","201","577330","0.0-315.0","fpf9pe0j","","","","","","","","","","","","","762","pmf","diagnostic trial","","j","","2","5","4","true","false","false","both pre & post","LEFT","RIGHT","j","1","false","","","",""
"","html-keyboard-response","202","578082","0.0-318.0","fpf9pe0j","1440","900","","","","","","","","","","","null","+","Fixation - short","","null","","","","","","","","","","","","","","","","",""
"","html-keyboard-response","203","578876","0.0-319.0","fpf9pe0j","","","","","","","","","","","","","793","dpa","diagnostic trial","","f","","2","6","4","true","false","true","both pre & post","RIGHT","LEFT","f","1","false","","","",""
"","html-keyboard-response","204","579628","0.0-322.0","fpf9pe0j","1440","900","","","","","","","","","","","null","+","Fixation - short","","null","","","","","","","","","","","","","","","","",""
"","html-keyboard-response","205","580367","0.0-323.0","fpf9pe0j","","","","","","","","","","","","","738","pmf","diagnostic trial","","f","","2","7","4","true","false","true","both pre & post","LEFT","LEFT","f","1","true","","","",""
"","html-keyboard-response","206","581119","0.0-326.0","fpf9pe0j","1440","900","","","","","","","","","","","null","+","Fixation - short","","null","","","","","","","","","","","","","","","","",""
"","html-keyboard-response","207","582336","0.0-327.0","fpf9pe0j","","","","","","","","","","","","","1216","dpa","inducer trial","","j","","2","","","","true","","","","","j","1","","false","RIGHT","",""
"","html-keyboard-response","208","583089","0.0-330.0","fpf9pe0j","1440","900","","","","","","","","","","","null","+","Fixation - short","","null","","","","","","","","","","","","","","","","",""
"","html-keyboard-response","209","587249","0.0-331.0","fpf9pe0j","","","","","","","","","","","","","4160","If swr press LEFT | If ois press RIGHT","inducer instructions",""," ","","3","","","","","","","","","","","","","","",""
"","html-keyboard-response","210","588001","0.0-332.0","fpf9pe0j","1440","900","","","","","","","","","","","null","+","Fixation - short","","null","","","","","","","","","","","","","","","","",""
"","html-keyboard-response","211","589297","0.0-333.0","fpf9pe0j","","","","","","","","","","","","","1295","swr","diagnostic trial","","j","","3","0","10","false","false","false","both pre & post","LEFT","RIGHT","j","1","false","","","",""
"","html-keyboard-response","212","590050","0.0-336.0","fpf9pe0j","1440","900","","","","","","","","","","","null","+","Fixation - short","","null","","","","","","","","","","","","","","","","",""
"","html-keyboard-response","213","591394","0.0-337.0","fpf9pe0j","","","","","","","","","","","","","1343","ois","diagnostic trial","","j","","3","1","10","false","false","false","both pre & post","RIGHT","RIGHT","j","1","true","","","",""
"","html-keyboard-response","214","592147","0.0-340.0","fpf9pe0j","1440","900","","","","","","","","","","","null","+","Fixation - short","","null","","","","","","","","","","","","","","","","",""
"","html-keyboard-response","215","592879","0.0-341.0","fpf9pe0j","","","","","","","","","","","","","731","swr","diagnostic trial","","f","","3","2","10","false","false","true","both pre & post","LEFT","LEFT","f","1","true","","","",""
"","html-keyboard-response","216","593631","0.0-344.0","fpf9pe0j","1440","900","","","","","","","","","","","null","+","Fixation - short","","null","","","","","","","","","","","","","","","","",""
"","html-keyboard-response","217","594113","0.0-345.0","fpf9pe0j","","","","","","","","","","","","","481","swr","diagnostic trial","","f","","3","3","10","false","false","false","both pre & post","LEFT","RIGHT","j","0","false","","","",""
"","call-function","218","594114","0.0-347.0-0.0","fpf9pe0j","","","","","","","","","","","","","","","","","","","","","","","","","","","","","","","","","",""
"","html-keyboard-response","219","594416","0.0-347.0-1.0","fpf9pe0j","1440","900","","","","","","","","","","","null","Wrong","Feedback","","null","","","","","","","","","","","","","","","","",""
"","call-function","220","594416","0.0-347.0-2.0","fpf9pe0j","","","","","","","","","","","","","","","","","","","","","","","","","","","","","","","","","",""
"","html-keyboard-response","221","595168","0.0-348.0","fpf9pe0j","1440","900","","","","","","","","","","","null","+","Fixation - short","","null","","","","","","","","","","","","","","","","",""
"","html-keyboard-response","222","596286","0.0-349.0","fpf9pe0j","","","","","","","","","","","","","1117","ois","diagnostic trial","","j","","3","4","10","false","false","false","both pre & post","RIGHT","RIGHT","j","1","true","","","",""
"","html-keyboard-response","223","597037","0.0-352.0","fpf9pe0j","1440","900","","","","","","","","","","","null","+","Fixation - short","","null","","","","","","","","","","","","","","","","",""
"","html-keyboard-response","224","598507","0.0-353.0","fpf9pe0j","","","","","","","","","","","","","1470","ois","diagnostic trial","","f","","3","5","10","false","false","true","both pre & post","RIGHT","LEFT","f","1","false","","","",""
"","html-keyboard-response","225","599259","0.0-356.0","fpf9pe0j","1440","900","","","","","","","","","","","null","+","Fixation - short","","null","","","","","","","","","","","","","","","","",""
"","html-keyboard-response","226","600793","0.0-357.0","fpf9pe0j","","","","","","","","","","","","","1533","swr","diagnostic trial","","j","","3","6","10","false","false","false","both pre & post","LEFT","RIGHT","j","1","false","","","",""
"","html-keyboard-response","227","601546","0.0-360.0","fpf9pe0j","1440","900","","","","","","","","","","","null","+","Fixation - short","","null","","","","","","","","","","","","","","","","",""
"","html-keyboard-response","228","602050","0.0-361.0","fpf9pe0j","","","","","","","","","","","","","503","swr","diagnostic trial","","j","","3","7","10","false","false","false","both pre & post","LEFT","RIGHT","j","1","false","","","",""
"","html-keyboard-response","229","602802","0.0-364.0","fpf9pe0j","1440","900","","","","","","","","","","","null","+","Fixation - short","","null","","","","","","","","","","","","","","","","",""
"","html-keyboard-response","230","603468","0.0-365.0","fpf9pe0j","","","","","","","","","","","","","666","swr","diagnostic trial","","f","","3","8","10","false","false","true","both pre & post","LEFT","LEFT","f","1","true","","","",""
"","html-keyboard-response","231","604221","0.0-368.0","fpf9pe0j","1440","900","","","","","","","","","","","null","+","Fixation - short","","null","","","","","","","","","","","","","","","","",""
"","html-keyboard-response","232","605026","0.0-369.0","fpf9pe0j","","","","","","","","","","","","","804","ois","diagnostic trial","","j","","3","9","10","false","false","false","both pre & post","RIGHT","RIGHT","j","1","true","","","",""
"","html-keyboard-response","233","605778","0.0-372.0","fpf9pe0j","1440","900","","","","","","","","","","","null","+","Fixation - short","","null","","","","","","","","","","","","","","","","",""
"","canvas-keyboard-response","234","607030","0.0-373.0","fpf9pe0j","","","","","","","","","","","","","null","Cue","Cue","","null","","3","9","","","false","","","","","","","","","","",""
"","html-keyboard-response","235","607783","0.0-374.0","fpf9pe0j","1440","900","","","","","","","","","","","null","+","Fixation - short","","null","","","","","","","","","","","","","","","","",""
"","html-keyboard-response","236","609521","0.0-375.0","fpf9pe0j","","","","","","","","","","","","","1738","swr","diagnostic trial","","f","","3","10","10","true","false","true","both pre & post","LEFT","LEFT","f","1","true","","","",""
"","html-keyboard-response","237","610274","0.0-378.0","fpf9pe0j","1440","900","","","","","","","","","","","null","+","Fixation - short","","null","","","","","","","","","","","","","","","","",""
"","html-keyboard-response","238","610804","0.0-379.0","fpf9pe0j","","","","","","","","","","","","","530","ois","diagnostic trial","","j","","3","11","10","true","false","false","both pre & post","RIGHT","RIGHT","j","1","true","","","",""
"","html-keyboard-response","239","611556","0.0-382.0","fpf9pe0j","1440","900","","","","","","","","","","","null","+","Fixation - short","","null","","","","","","","","","","","","","","","","",""
"","html-keyboard-response","240","612331","0.0-383.0","fpf9pe0j","","","","","","","","","","","","","775","swr","diagnostic trial","","f","","3","12","10","true","false","true","both pre & post","LEFT","LEFT","f","1","true","","","",""
"","html-keyboard-response","241","613084","0.0-386.0","fpf9pe0j","1440","900","","","","","","","","","","","null","+","Fixation - short","","null","","","","","","","","","","","","","","","","",""
"","html-keyboard-response","242","613704","0.0-387.0","fpf9pe0j","","","","","","","","","","","","","619","ois","diagnostic trial","","f","","3","13","10","true","false","true","both pre & post","RIGHT","LEFT","f","1","false","","","",""
"","html-keyboard-response","243","614456","0.0-390.0","fpf9pe0j","1440","900","","","","","","","","","","","null","+","Fixation - short","","null","","","","","","","","","","","","","","","","",""
"","html-keyboard-response","244","616233","0.0-391.0","fpf9pe0j","","","","","","","","","","","","","1776","swr","inducer trial","","f","","3","","","","true","","","","","f","1","","false","LEFT","",""
"","html-keyboard-response","245","616985","0.0-394.0","fpf9pe0j","1440","900","","","","","","","","","","","null","+","Fixation - short","","null","","","","","","","","","","","","","","","","",""
"","html-keyboard-response","246","623297","0.0-395.0","fpf9pe0j","","","","","","","","","","","","","6311","If efg press LEFT | If dij press RIGHT","inducer instructions",""," ","","4","","","","","","","","","","","","","","",""
"","html-keyboard-response","247","624048","0.0-396.0","fpf9pe0j","1440","900","","","","","","","","","","","null","+","Fixation - short","","null","","","","","","","","","","","","","","","","",""
"","html-keyboard-response","248","624947","0.0-397.0","fpf9pe0j","","","","","","","","","","","","","898","dij","diagnostic trial","","j","","4","0","4","false","false","false","both pre & post","RIGHT","RIGHT","j","1","true","","","",""
"","html-keyboard-response","249","625697","0.0-400.0","fpf9pe0j","1440","900","","","","","","","","","","","null","+","Fixation - short","","null","","","","","","","","","","","","","","","","",""
"","html-keyboard-response","250","626646","0.0-401.0","fpf9pe0j","","","","","","","","","","","","","948","dij","diagnostic trial","","f","","4","1","4","false","false","true","both pre & post","RIGHT","LEFT","f","1","false","","","",""
"","html-keyboard-response","251","627398","0.0-404.0","fpf9pe0j","1440","900","","","","","","","","","","","null","+","Fixation - short","","null","","","","","","","","","","","","","","","","",""
"","html-keyboard-response","252","628609","0.0-405.0","fpf9pe0j","","","","","","","","","","","","","1210","efg","diagnostic trial","","f","","4","2","4","false","false","true","both pre & post","LEFT","LEFT","f","1","true","","","",""
"","html-keyboard-response","253","629361","0.0-408.0","fpf9pe0j","1440","900","","","","","","","","","","","null","+","Fixation - short","","null","","","","","","","","","","","","","","","","",""
"","html-keyboard-response","254","629935","0.0-409.0","fpf9pe0j","","","","","","","","","","","","","573","dij","diagnostic trial","","f","","4","3","4","false","false","true","both pre & post","RIGHT","LEFT","f","1","false","","","",""
"","html-keyboard-response","255","630687","0.0-412.0","fpf9pe0j","1440","900","","","","","","","","","","","null","+","Fixation - short","","null","","","","","","","","","","","","","","","","",""
"","canvas-keyboard-response","256","631940","0.0-413.0","fpf9pe0j","","","","","","","","","","","","","null","Cue","Cue","","null","","4","3","","","false","","","","","","","","","","",""
"","html-keyboard-response","257","632692","0.0-414.0","fpf9pe0j","1440","900","","","","","","","","","","","null","+","Fixation - short","","null","","","","","","","","","","","","","","","","",""
"","html-keyboard-response","258","633798","0.0-415.0","fpf9pe0j","","","","","","","","","","","","","1105","dij","diagnostic trial","","f","","4","4","4","true","false","true","both pre & post","RIGHT","LEFT","f","1","false","","","",""
"","html-keyboard-response","259","634550","0.0-418.0","fpf9pe0j","1440","900","","","","","","","","","","","null","+","Fixation - short","","null","","","","","","","","","","","","","","","","",""
"","html-keyboard-response","260","635101","0.0-419.0","fpf9pe0j","","","","","","","","","","","","","550","dij","diagnostic trial","","f","","4","5","4","true","false","true","both pre & post","RIGHT","LEFT","f","1","false","","","",""
"","html-keyboard-response","261","635854","0.0-422.0","fpf9pe0j","1440","900","","","","","","","","","","","null","+","Fixation - short","","null","","","","","","","","","","","","","","","","",""
"","html-keyboard-response","262","636827","0.0-423.0","fpf9pe0j","","","","","","","","","","","","","972","efg","inducer trial","","f","","4","","","","true","","","","","f","1","","false","LEFT","",""
"","html-keyboard-response","263","637579","0.0-426.0","fpf9pe0j","1440","900","","","","","","","","","","","null","+","Fixation - short","","null","","","","","","","","","","","","","","","","",""
"","html-keyboard-response","264","640177","0.0-427.0","fpf9pe0j","","","","","","","","","","","","","2597","If aor press LEFT | If bgi press RIGHT","inducer instructions",""," ","","5","","","","","","","","","","","","","","",""
"","html-keyboard-response","265","640930","0.0-428.0","fpf9pe0j","1440","900","","","","","","","","","","","null","+","Fixation - short","","null","","","","","","","","","","","","","","","","",""
"","html-keyboard-response","266","641931","0.0-429.0","fpf9pe0j","","","","","","","","","","","","","1000","bgi","diagnostic trial","","j","","5","0","11","false","false","false","both pre & post","RIGHT","RIGHT","j","1","true","","","",""
"","html-keyboard-response","267","642683","0.0-432.0","fpf9pe0j","1440","900","","","","","","","","","","","null","+","Fixation - short","","null","","","","","","","","","","","","","","","","",""
"","html-keyboard-response","268","643342","0.0-433.0","fpf9pe0j","","","","","","","","","","","","","658","bgi","diagnostic trial","","f","","5","1","11","false","false","true","both pre & post","RIGHT","LEFT","f","1","false","","","",""
"","html-keyboard-response","269","644095","0.0-436.0","fpf9pe0j","1440","900","","","","","","","","","","","null","+","Fixation - short","","null","","","","","","","","","","","","","","","","",""
"","html-keyboard-response","270","645315","0.0-437.0","fpf9pe0j","","","","","","","","","","","","","1219","bgi","diagnostic trial","","f","","5","2","11","false","false","true","both pre & post","RIGHT","LEFT","f","1","false","","","",""
"","html-keyboard-response","271","646068","0.0-440.0","fpf9pe0j","1440","900","","","","","","","","","","","null","+","Fixation - short","","null","","","","","","","","","","","","","","","","",""
"","html-keyboard-response","272","646741","0.0-441.0","fpf9pe0j","","","","","","","","","","","","","672","aor","diagnostic trial","","f","","5","3","11","false","false","true","both pre & post","LEFT","LEFT","f","1","true","","","",""
"","html-keyboard-response","273","647493","0.0-444.0","fpf9pe0j","1440","900","","","","","","","","","","","null","+","Fixation - short","","null","","","","","","","","","","","","","","","","",""
"","html-keyboard-response","274","647950","0.0-445.0","fpf9pe0j","","","","","","","","","","","","","457","bgi","diagnostic trial","","f","","5","4","11","false","false","true","both pre & post","RIGHT","LEFT","f","1","false","","","",""
"","html-keyboard-response","275","648703","0.0-448.0","fpf9pe0j","1440","900","","","","","","","","","","","null","+","Fixation - short","","null","","","","","","","","","","","","","","","","",""
"","html-keyboard-response","276","649145","0.0-449.0","fpf9pe0j","","","","","","","","","","","","","442","bgi","diagnostic trial","","f","","5","5","11","false","false","true","both pre & post","RIGHT","LEFT","f","1","false","","","",""
"","html-keyboard-response","277","649898","0.0-452.0","fpf9pe0j","1440","900","","","","","","","","","","","null","+","Fixation - short","","null","","","","","","","","","","","","","","","","",""
"","html-keyboard-response","278","650589","0.0-453.0","fpf9pe0j","","","","","","","","","","","","","691","bgi","diagnostic trial","","j","","5","6","11","false","false","false","both pre & post","RIGHT","RIGHT","j","1","true","","","",""
"","html-keyboard-response","279","651342","0.0-456.0","fpf9pe0j","1440","900","","","","","","","","","","","null","+","Fixation - short","","null","","","","","","","","","","","","","","","","",""
"","html-keyboard-response","280","651995","0.0-457.0","fpf9pe0j","","","","","","","","","","","","","652","bgi","diagnostic trial","","f","","5","7","11","false","false","true","both pre & post","RIGHT","LEFT","f","1","false","","","",""
"","html-keyboard-response","281","652747","0.0-460.0","fpf9pe0j","1440","900","","","","","","","","","","","null","+","Fixation - short","","null","","","","","","","","","","","","","","","","",""
"","html-keyboard-response","282","653596","0.0-461.0","fpf9pe0j","","","","","","","","","","","","","848","bgi","diagnostic trial","","j","","5","8","11","false","false","false","both pre & post","RIGHT","RIGHT","j","1","true","","","",""
"","html-keyboard-response","283","654348","0.0-464.0","fpf9pe0j","1440","900","","","","","","","","","","","null","+","Fixation - short","","null","","","","","","","","","","","","","","","","",""
"","html-keyboard-response","284","654782","0.0-465.0","fpf9pe0j","","","","","","","","","","","","","433","bgi","diagnostic trial","","j","","5","9","11","false","false","false","both pre & post","RIGHT","RIGHT","j","1","true","","","",""
"","html-keyboard-response","285","655534","0.0-468.0","fpf9pe0j","1440","900","","","","","","","","","","","null","+","Fixation - short","","null","","","","","","","","","","","","","","","","",""
"","html-keyboard-response","286","656042","0.0-469.0","fpf9pe0j","","","","","","","","","","","","","507","bgi","diagnostic trial","","j","","5","10","11","false","false","false","both pre & post","RIGHT","RIGHT","j","1","true","","","",""
"","html-keyboard-response","287","656794","0.0-472.0","fpf9pe0j","1440","900","","","","","","","","","","","null","+","Fixation - short","","null","","","","","","","","","","","","","","","","",""
"","canvas-keyboard-response","288","658047","0.0-473.0","fpf9pe0j","","","","","","","","","","","","","null","Cue","Cue","","null","","5","10","","","false","","","","","","","","","","",""
"","html-keyboard-response","289","658799","0.0-474.0","fpf9pe0j","1440","900","","","","","","","","","","","null","+","Fixation - short","","null","","","","","","","","","","","","","","","","",""
"","html-keyboard-response","290","659810","0.0-475.0","fpf9pe0j","","","","","","","","","","","","","1010","bgi","diagnostic trial","","f","","5","11","11","true","false","true","both pre & post","RIGHT","LEFT","f","1","false","","","",""
"","html-keyboard-response","291","660562","0.0-478.0","fpf9pe0j","1440","900","","","","","","","","","","","null","+","Fixation - short","","null","","","","","","","","","","","","","","","","",""
"","html-keyboard-response","292","661095","0.0-479.0","fpf9pe0j","","","","","","","","","","","","","532","aor","diagnostic trial","","f","","5","12","11","true","false","true","both pre & post","LEFT","LEFT","f","1","true","","","",""
"","html-keyboard-response","293","661848","0.0-482.0","fpf9pe0j","1440","900","","","","","","","","","","","null","+","Fixation - short","","null","","","","","","","","","","","","","","","","",""
"","html-keyboard-response","294","662677","0.0-483.0","fpf9pe0j","","","","","","","","","","","","","829","bgi","diagnostic trial","","j","","5","13","11","true","false","true","both pre & post","RIGHT","LEFT","f","0","false","","","",""
"","call-function","295","662678","0.0-485.0-0.0","fpf9pe0j","","","","","","","","","","","","","","","","","","","","","","","","","","","","","","","","","",""
"","html-keyboard-response","296","662979","0.0-485.0-1.0","fpf9pe0j","1440","900","","","","","","","","","","","null","Wrong","Feedback","","null","","","","","","","","","","","","","","","","",""
"","call-function","297","662979","0.0-485.0-2.0","fpf9pe0j","","","","","","","","","","","","","","","","","","","","","","","","","","","","","","","","","",""
"","html-keyboard-response","298","663732","0.0-486.0","fpf9pe0j","1440","900","","","","","","","","","","","null","+","Fixation - short","","null","","","","","","","","","","","","","","","","",""
"","html-keyboard-response","299","664878","0.0-487.0","fpf9pe0j","","","","","","","","","","","","","1146","aor","diagnostic trial","","j","","5","14","11","true","false","false","both pre & post","LEFT","RIGHT","j","1","false","","","",""
"","html-keyboard-response","300","665630","0.0-490.0","fpf9pe0j","1440","900","","","","","","","","","","","null","+","Fixation - short","","null","","","","","","","","","","","","","","","","",""
"","html-keyboard-response","301","666534","0.0-491.0","fpf9pe0j","","","","","","","","","","","","","903","bgi","inducer trial","","j","","5","","","","true","","","","","j","1","","false","RIGHT","",""
"","html-keyboard-response","302","667285","0.0-494.0","fpf9pe0j","1440","900","","","","","","","","","","","null","+","Fixation - short","","null","","","","","","","","","","","","","","","","",""
"","html-keyboard-response","303","669365","0.0-495.0","fpf9pe0j","","","","","","","","","","","","","2079","If dul press LEFT | If pte press RIGHT","inducer instructions",""," ","","6","","","","","","","","","","","","","","",""
"","html-keyboard-response","304","670118","0.0-496.0","fpf9pe0j","1440","900","","","","","","","","","","","null","+","Fixation - short","","null","","","","","","","","","","","","","","","","",""
"","html-keyboard-response","305","671622","0.0-497.0","fpf9pe0j","","","","","","","","","","","","","1503","dul","diagnostic trial","","f","","6","0","7","false","false","true","both pre & post","LEFT","LEFT","f","1","true","","","",""
"","html-keyboard-response","306","672374","0.0-500.0","fpf9pe0j","1440","900","","","","","","","","","","","null","+","Fixation - short","","null","","","","","","","","","","","","","","","","",""
"","html-keyboard-response","307","672908","0.0-501.0","fpf9pe0j","","","","","","","","","","","","","533","pte","diagnostic trial","","f","","6","1","7","false","false","true","both pre & post","RIGHT","LEFT","f","1","false","","","",""
"","html-keyboard-response","308","673660","0.0-504.0","fpf9pe0j","1440","900","","","","","","","","","","","null","+","Fixation - short","","null","","","","","","","","","","","","","","","","",""
"","html-keyboard-response","309","674228","0.0-505.0","fpf9pe0j","","","","","","","","","","","","","567","dul","diagnostic trial","","j","","6","2","7","false","false","false","both pre & post","LEFT","RIGHT","j","1","false","","","",""
"","html-keyboard-response","310","674980","0.0-508.0","fpf9pe0j","1440","900","","","","","","","","","","","null","+","Fixation - short","","null","","","","","","","","","","","","","","","","",""
"","html-keyboard-response","311","676062","0.0-509.0","fpf9pe0j","","","","","","","","","","","","","1081","pte","diagnostic trial","","j","","6","3","7","false","false","false","both pre & post","RIGHT","RIGHT","j","1","true","","","",""
"","html-keyboard-response","312","676814","0.0-512.0","fpf9pe0j","1440","900","","","","","","","","","","","null","+","Fixation - short","","null","","","","","","","","","","","","","","","","",""
"","html-keyboard-response","313","677392","0.0-513.0","fpf9pe0j","","","","","","","","","","","","","577","pte","diagnostic trial","","f","","6","4","7","false","false","true","both pre & post","RIGHT","LEFT","f","1","false","","","",""
"","html-keyboard-response","314","678144","0.0-516.0","fpf9pe0j","1440","900","","","","","","","","","","","null","+","Fixation - short","","null","","","","","","","","","","","","","","","","",""
"","html-keyboard-response","315","679331","0.0-517.0","fpf9pe0j","","","","","","","","","","","","","1186","pte","diagnostic trial","","f","","6","5","7","false","false","true","both pre & post","RIGHT","LEFT","f","1","false","","","",""
"","html-keyboard-response","316","680083","0.0-520.0","fpf9pe0j","1440","900","","","","","","","","","","","null","+","Fixation - short","","null","","","","","","","","","","","","","","","","",""
"","html-keyboard-response","317","681581","0.0-521.0","fpf9pe0j","","","","","","","","","","","","","1497","dul","diagnostic trial","","j","","6","6","7","false","false","false","both pre & post","LEFT","RIGHT","j","1","false","","","",""
"","html-keyboard-response","318","682333","0.0-524.0","fpf9pe0j","1440","900","","","","","","","","","","","null","+","Fixation - short","","null","","","","","","","","","","","","","","","","",""
"","canvas-keyboard-response","319","683586","0.0-525.0","fpf9pe0j","","","","","","","","","","","","","null","Cue","Cue","","null","","6","6","","","false","","","","","","","","","","",""
"","html-keyboard-response","320","684338","0.0-526.0","fpf9pe0j","1440","900","","","","","","","","","","","null","+","Fixation - short","","null","","","","","","","","","","","","","","","","",""
"","html-keyboard-response","321","685560","0.0-527.0","fpf9pe0j","","","","","","","","","","","","","1221","dul","diagnostic trial","","j","","6","7","7","true","false","false","both pre & post","LEFT","RIGHT","j","1","false","","","",""
"","html-keyboard-response","322","686313","0.0-530.0","fpf9pe0j","1440","900","","","","","","","","","","","null","+","Fixation - short","","null","","","","","","","","","","","","","","","","",""
"","html-keyboard-response","323","687541","0.0-531.0","fpf9pe0j","","","","","","","","","","","","","1228","pte","inducer trial","","j","","6","","","","true","","","","","j","1","","false","RIGHT","",""
"","html-keyboard-response","324","688294","0.0-534.0","fpf9pe0j","1440","900","","","","","","","","","","","null","+","Fixation - short","","null","","","","","","","","","","","","","","","","",""
"","html-keyboard-response","325","691307","0.0-535.0","fpf9pe0j","","","","","","","","","","","","","3013","If otr press LEFT | If dgv press RIGHT","inducer instructions",""," ","","7","","","","","","","","","","","","","","",""
"","html-keyboard-response","326","692060","0.0-536.0","fpf9pe0j","1440","900","","","","","","","","","","","null","+","Fixation - short","","null","","","","","","","","","","","","","","","","",""
"","html-keyboard-response","327","692861","0.0-537.0","fpf9pe0j","","","","","","","","","","","","","801","dgv","diagnostic trial","","j","","7","0","8","false","false","false","both pre & post","RIGHT","RIGHT","j","1","true","","","",""
"","html-keyboard-response","328","693614","0.0-540.0","fpf9pe0j","1440","900","","","","","","","","","","","null","+","Fixation - short","","null","","","","","","","","","","","","","","","","",""
"","html-keyboard-response","329","694048","0.0-541.0","fpf9pe0j","","","","","","","","","","","","","434","dgv","diagnostic trial","","j","","7","1","8","false","false","false","both pre & post","RIGHT","RIGHT","j","1","true","","","",""
"","html-keyboard-response","330","694801","0.0-544.0","fpf9pe0j","1440","900","","","","","","","","","","","null","+","Fixation - short","","null","","","","","","","","","","","","","","","","",""
"","html-keyboard-response","331","695275","0.0-545.0","fpf9pe0j","","","","","","","","","","","","","473","dgv","diagnostic trial","","j","","7","2","8","false","false","false","both pre & post","RIGHT","RIGHT","j","1","true","","","",""
"","html-keyboard-response","332","696026","0.0-548.0","fpf9pe0j","1440","900","","","","","","","","","","","null","+","Fixation - short","","null","","","","","","","","","","","","","","","","",""
"","html-keyboard-response","333","696549","0.0-549.0","fpf9pe0j","","","","","","","","","","","","","521","dgv","diagnostic trial","","j","","7","3","8","false","false","false","both pre & post","RIGHT","RIGHT","j","1","true","","","",""
"","html-keyboard-response","334","697301","0.0-552.0","fpf9pe0j","1440","900","","","","","","","","","","","null","+","Fixation - short","","null","","","","","","","","","","","","","","","","",""
"","html-keyboard-response","335","698042","0.0-553.0","fpf9pe0j","","","","","","","","","","","","","741","otr","diagnostic trial","","f","","7","4","8","false","false","true","both pre & post","LEFT","LEFT","f","1","true","","","",""
"","html-keyboard-response","336","698795","0.0-556.0","fpf9pe0j","1440","900","","","","","","","","","","","null","+","Fixation - short","","null","","","","","","","","","","","","","","","","",""
"","html-keyboard-response","337","699545","0.0-557.0","fpf9pe0j","","","","","","","","","","","","","750","otr","diagnostic trial","","j","","7","5","8","false","false","false","both pre & post","LEFT","RIGHT","j","1","false","","","",""
"","html-keyboard-response","338","700297","0.0-560.0","fpf9pe0j","1440","900","","","","","","","","","","","null","+","Fixation - short","","null","","","","","","","","","","","","","","","","",""
"","html-keyboard-response","339","700933","0.0-561.0","fpf9pe0j","","","","","","","","","","","","","635","otr","diagnostic trial","","f","","7","6","8","false","false","true","both pre & post","LEFT","LEFT","f","1","true","","","",""
"","html-keyboard-response","340","701686","0.0-564.0","fpf9pe0j","1440","900","","","","","","","","","","","null","+","Fixation - short","","null","","","","","","","","","","","","","","","","",""
"","html-keyboard-response","341","702391","0.0-565.0","fpf9pe0j","","","","","","","","","","","","","704","otr","diagnostic trial","","j","","7","7","8","false","false","true","both pre & post","LEFT","LEFT","f","0","true","","","",""
"","call-function","342","702392","0.0-567.0-0.0","fpf9pe0j","","","","","","","","","","","","","","","","","","","","","","","","","","","","","","","","","",""
"","html-keyboard-response","343","702694","0.0-567.0-1.0","fpf9pe0j","1440","900","","","","","","","","","","","null","Wrong","Feedback","","null","","","","","","","","","","","","","","","","",""
"","call-function","344","702694","0.0-567.0-2.0","fpf9pe0j","","","","","","","","","","","","","","","","","","","","","","","","","","","","","","","","","",""
"","html-keyboard-response","345","703447","0.0-568.0","fpf9pe0j","1440","900","","","","","","","","","","","null","+","Fixation - short","","null","","","","","","","","","","","","","","","","",""
"","canvas-keyboard-response","346","704700","0.0-569.0","fpf9pe0j","","","","","","","","","","","","","null","Cue","Cue","","null","","7","7","","","false","","","","","","","","","","",""
"","html-keyboard-response","347","705452","0.0-570.0","fpf9pe0j","1440","900","","","","","","","","","","","null","+","Fixation - short","","null","","","","","","","","","","","","","","","","",""
"","html-keyboard-response","348","706285","0.0-571.0","fpf9pe0j","","","","","","","","","","","","","832","dgv","diagnostic trial","","j","","7","8","8","true","false","false","both pre & post","RIGHT","RIGHT","j","1","true","","","",""
"","html-keyboard-response","349","707038","0.0-574.0","fpf9pe0j","1440","900","","","","","","","","","","","null","+","Fixation - short","","null","","","","","","","","","","","","","","","","",""
"","html-keyboard-response","350","708180","0.0-575.0","fpf9pe0j","","","","","","","","","","","","","1142","otr","inducer trial","","f","","7","","","","true","","","","","f","1","","false","LEFT","",""
"","html-keyboard-response","351","708933","0.0-578.0","fpf9pe0j","1440","900","","","","","","","","","","","null","+","Fixation - short","","null","","","","","","","","","","","","","","","","",""
"","html-keyboard-response","352","710806","0.0-579.0","fpf9pe0j","","","","","","","","","","","","","1873","If wab press LEFT | If jil press RIGHT","inducer instructions",""," ","","8","","","","","","","","","","","","","","",""
"","html-keyboard-response","353","711559","0.0-580.0","fpf9pe0j","1440","900","","","","","","","","","","","null","+","Fixation - short","","null","","","","","","","","","","","","","","","","",""
"","html-keyboard-response","354","712755","0.0-581.0","fpf9pe0j","","","","","","","","","","","","","1196","wab","diagnostic trial","","j","","8","0","6","false","false","false","both pre & post","LEFT","RIGHT","j","1","false","","","",""
"","html-keyboard-response","355","713507","0.0-584.0","fpf9pe0j","1440","900","","","","","","","","","","","null","+","Fixation - short","","null","","","","","","","","","","","","","","","","",""
"","html-keyboard-response","356","714156","0.0-585.0","fpf9pe0j","","","","","","","","","","","","","648","wab","diagnostic trial","","f","","8","1","6","false","false","true","both pre & post","LEFT","LEFT","f","1","true","","","",""
"","html-keyboard-response","357","714909","0.0-588.0","fpf9pe0j","1440","900","","","","","","","","","","","null","+","Fixation - short","","null","","","","","","","","","","","","","","","","",""
"","html-keyboard-response","358","716373","0.0-589.0","fpf9pe0j","","","","","","","","","","","","","1463","wab","diagnostic trial","","f","","8","2","6","false","false","true","both pre & post","LEFT","LEFT","f","1","true","","","",""
"","html-keyboard-response","359","717125","0.0-592.0","fpf9pe0j","1440","900","","","","","","","","","","","null","+","Fixation - short","","null","","","","","","","","","","","","","","","","",""
"","html-keyboard-response","360","717657","0.0-593.0","fpf9pe0j","","","","","","","","","","","","","531","wab","diagnostic trial","","f","","8","3","6","false","false","true","both pre & post","LEFT","LEFT","f","1","true","","","",""
"","html-keyboard-response","361","718409","0.0-596.0","fpf9pe0j","1440","900","","","","","","","","","","","null","+","Fixation - short","","null","","","","","","","","","","","","","","","","",""
"","html-keyboard-response","362","719007","0.0-597.0","fpf9pe0j","","","","","","","","","","","","","598","wab","diagnostic trial","","j","","8","4","6","false","false","false","both pre & post","LEFT","RIGHT","j","1","false","","","",""
"","html-keyboard-response","363","719760","0.0-600.0","fpf9pe0j","1440","900","","","","","","","","","","","null","+","Fixation - short","","null","","","","","","","","","","","","","","","","",""
"","html-keyboard-response","364","720554","0.0-601.0","fpf9pe0j","","","","","","","","","","","","","793","wab","diagnostic trial","","f","","8","5","6","false","false","true","both pre & post","LEFT","LEFT","f","1","true","","","",""
"","html-keyboard-response","365","721306","0.0-604.0","fpf9pe0j","1440","900","","","","","","","","","","","null","+","Fixation - short","","null","","","","","","","","","","","","","","","","",""
"","canvas-keyboard-response","366","722559","0.0-605.0","fpf9pe0j","","","","","","","","","","","","","null","Cue","Cue","","null","","8","5","","","false","","","","","","","","","","",""
"","html-keyboard-response","367","723312","0.0-606.0","fpf9pe0j","1440","900","","","","","","","","","","","null","+","Fixation - short","","null","","","","","","","","","","","","","","","","",""
"","html-keyboard-response","368","724529","0.0-607.0","fpf9pe0j","","","","","","","","","","","","","1217","wab","diagnostic trial","","f","","8","6","6","true","false","true","both pre & post","LEFT","LEFT","f","1","true","","","",""
"","html-keyboard-response","369","725281","0.0-610.0","fpf9pe0j","1440","900","","","","","","","","","","","null","+","Fixation - short","","null","","","","","","","","","","","","","","","","",""
"","html-keyboard-response","370","725871","0.0-611.0","fpf9pe0j","","","","","","","","","","","","","589","wab","diagnostic trial","","j","","8","7","6","true","false","false","both pre & post","LEFT","RIGHT","j","1","false","","","",""
"","html-keyboard-response","371","726624","0.0-614.0","fpf9pe0j","1440","900","","","","","","","","","","","null","+","Fixation - short","","null","","","","","","","","","","","","","","","","",""
"","html-keyboard-response","372","727502","0.0-615.0","fpf9pe0j","","","","","","","","","","","","","878","jil","diagnostic trial","","j","","8","8","6","true","false","false","both pre & post","RIGHT","RIGHT","j","1","true","","","",""
"","html-keyboard-response","373","728255","0.0-618.0","fpf9pe0j","1440","900","","","","","","","","","","","null","+","Fixation - short","","null","","","","","","","","","","","","","","","","",""
"","html-keyboard-response","374","728942","0.0-619.0","fpf9pe0j","","","","","","","","","","","","","687","jil","diagnostic trial","","j","","8","9","6","true","false","false","both pre & post","RIGHT","RIGHT","j","1","true","","","",""
"","html-keyboard-response","375","729694","0.0-622.0","fpf9pe0j","1440","900","","","","","","","","","","","null","+","Fixation - short","","null","","","","","","","","","","","","","","","","",""
"","html-keyboard-response","376","730971","0.0-623.0","fpf9pe0j","","","","","","","","","","","","","1277","wab","inducer trial","","f","","8","","","","true","","","","","f","1","","false","LEFT","",""
"","html-keyboard-response","377","731724","0.0-626.0","fpf9pe0j","1440","900","","","","","","","","","","","null","+","Fixation - short","","null","","","","","","","","","","","","","","","","",""
"","html-keyboard-response","378","734057","0.0-627.0","fpf9pe0j","","","","","","","","","","","","","2333","If pxv press LEFT | If iei press RIGHT","inducer instructions",""," ","","9","","","","","","","","","","","","","","",""
"","html-keyboard-response","379","734809","0.0-628.0","fpf9pe0j","1440","900","","","","","","","","","","","null","+","Fixation - short","","null","","","","","","","","","","","","","","","","",""
"","html-keyboard-response","380","735508","0.0-629.0","fpf9pe0j","","","","","","","","","","","","","699","pxv","diagnostic trial","","j","","9","0","4","false","false","false","both pre & post","LEFT","RIGHT","j","1","false","","","",""
"","html-keyboard-response","381","736261","0.0-632.0","fpf9pe0j","1440","900","","","","","","","","","","","null","+","Fixation - short","","null","","","","","","","","","","","","","","","","",""
"","html-keyboard-response","382","736804","0.0-633.0","fpf9pe0j","","","","","","","","","","","","","541","pxv","diagnostic trial","","j","","9","1","4","false","false","false","both pre & post","LEFT","RIGHT","j","1","false","","","",""
"","html-keyboard-response","383","737556","0.0-636.0","fpf9pe0j","1440","900","","","","","","","","","","","null","+","Fixation - short","","null","","","","","","","","","","","","","","","","",""
"","html-keyboard-response","384","737932","0.0-637.0","fpf9pe0j","","","","","","","","","","","","","376","pxv","diagnostic trial","","j","","9","2","4","false","false","true","both pre & post","LEFT","LEFT","f","0","true","","","",""
"","call-function","385","737933","0.0-639.0-0.0","fpf9pe0j","","","","","","","","","","","","","","","","","","","","","","","","","","","","","","","","","",""
"","html-keyboard-response","386","738235","0.0-639.0-1.0","fpf9pe0j","1440","900","","","","","","","","","","","null","Wrong","Feedback","","null","","","","","","","","","","","","","","","","",""
"","call-function","387","738235","0.0-639.0-2.0","fpf9pe0j","","","","","","","","","","","","","","","","","","","","","","","","","","","","","","","","","",""
"","html-keyboard-response","388","738988","0.0-640.0","fpf9pe0j","1440","900","","","","","","","","","","","null","+","Fixation - short","","null","","","","","","","","","","","","","","","","",""
"","html-keyboard-response","389","739718","0.0-641.0","fpf9pe0j","","","","","","","","","","","","","729","pxv","diagnostic trial","","f","","9","3","4","false","false","true","both pre & post","LEFT","LEFT","f","1","true","","","",""
"","html-keyboard-response","390","740470","0.0-644.0","fpf9pe0j","1440","900","","","","","","","","","","","null","+","Fixation - short","","null","","","","","","","","","","","","","","","","",""
"","canvas-keyboard-response","391","741723","0.0-645.0","fpf9pe0j","","","","","","","","","","","","","null","Cue","Cue","","null","","9","3","","","false","","","","","","","","","","",""
"","html-keyboard-response","392","742475","0.0-646.0","fpf9pe0j","1440","900","","","","","","","","","","","null","+","Fixation - short","","null","","","","","","","","","","","","","","","","",""
"","html-keyboard-response","393","743427","0.0-647.0","fpf9pe0j","","","","","","","","","","","","","952","iei","diagnostic trial","","j","","9","4","4","true","false","false","both pre & post","RIGHT","RIGHT","j","1","true","","","",""
"","html-keyboard-response","394","744180","0.0-650.0","fpf9pe0j","1440","900","","","","","","","","","","","null","+","Fixation - short","","null","","","","","","","","","","","","","","","","",""
"","html-keyboard-response","395","744920","0.0-651.0","fpf9pe0j","","","","","","","","","","","","","739","pxv","diagnostic trial","","f","","9","5","4","true","false","true","both pre & post","LEFT","LEFT","f","1","true","","","",""
"","html-keyboard-response","396","745672","0.0-654.0","fpf9pe0j","1440","900","","","","","","","","","","","null","+","Fixation - short","","null","","","","","","","","","","","","","","","","",""
"","html-keyboard-response","397","746460","0.0-655.0","fpf9pe0j","","","","","","","","","","","","","787","pxv","diagnostic trial","","j","","9","6","4","true","false","false","both pre & post","LEFT","RIGHT","j","1","false","","","",""
"","html-keyboard-response","398","747212","0.0-658.0","fpf9pe0j","1440","900","","","","","","","","","","","null","+","Fixation - short","","null","","","","","","","","","","","","","","","","",""
"","html-keyboard-response","399","748150","0.0-659.0","fpf9pe0j","","","","","","","","","","","","","937","pxv","inducer trial","","f","","9","","","","true","","","","","f","1","","false","LEFT","",""
"","html-keyboard-response","400","748902","0.0-662.0","fpf9pe0j","1440","900","","","","","","","","","","","null","+","Fixation - short","","null","","","","","","","","","","","","","","","","",""
"","call-function","401","748903","0.0-663.0","fpf9pe0j","","","","","","","","","","","","","","","","","","","","","","","","","","","","","","","","","",""
"","survey","402","883506","0.0-664.0","fpf9pe0j","","","","","","","","","","","","","134545","feedback","Feedback","","{""strategy_feedback"":""making key-strategies (holdepunkt) for the second strategi. repeat in my head the first letters in both the blue words. like \""a-b, \""a-b, a-b!"",""open_feedback"":""fun""}","","","","","","","","","","","","","","","","[]","[{""event"":""fullscreenenter"",""trial"":3,""time"":139635}]"
