"value","trial_type","trial_index","time_elapsed","internal_node_id","id","width","height","webaudio","browser","browser_version","mobile","os","fullscreen","vsync_rate","webcam","microphone","view_history","rt","stimulus","trial_info","success","response","exp_parameters","inducer_run","diagnostic_run","cue_num","post_cue","inducer_trial","italic","forced_equal_run","correct_inducer_response_side","correct_diag_response_side","correct_response_key","correct_response","congruent","force_equal","correct_indu_response_side","accuracy","interactive"
"","call-function","0","5","0.0-0.0","ynq2zrra","","","","","","","","","","","","","","","","","","","","","","","","","","","","","","","","","",""
"","browser-check","1","1042","0.0-1.0","ynq2zrra","1440","719","true","chrome","122.0.0","false","Mac OS","true","58.41","true","true","","","","","","","","","","","","","","","","","","","","","","",""
"","instructions","2","992443","0.0-2.0","ynq2zrra","","","","","","","","","","","","[{""page_index"":0,""viewing_time"":926200},{""page_index"":1,""viewing_time"":41158},{""page_index"":2,""viewing_time"":24036}]","991396","The experiment and consent","The experiment and consent","","","","","","","","","","","","","","","","","","",""
"","fullscreen","3","1000955","0.0-3.0","ynq2zrra","","","","","","","","","","","","","7505","","Full screen","true","","","","","","","","","","","","","","","","","",""
"","instructions","4","1055617","0.0-4.0","ynq2zrra","","","","","","","","","","","","[{""page_index"":0,""viewing_time"":31359},{""page_index"":1,""viewing_time"":23301}]","54660","Instructions","Basic overview explanation","","","","","","","","","","","","","","","","","","",""
"","html-keyboard-response","5","1068184","0.0-5.0","ynq2zrra","","","","","","","","","","","","","11063","If italic press LEFT | If upright press RIGHT","Diagnostic instructions",""," ","{""debug"":true,""skip_instructions"":false,""skip_practice"":false,""save_local_data"":false,""studu_name"":""exp2_pilot"",""default_background_colour"":""#cccccc"",""wrong_response_colour"":""#d22d2d"",""instruction_delay"":20000,""trial_duration"":2000,""short_fixation"":750,""long_fixation"":1500,""wrong_response_delay"":300,""too_slow_delay"":300,""instruction_font_size"":""24px"",""general_font_size"":""42px"",""fixation_size"":""48px"",""allowed_responses"":[""f"",""j""],""cue_min_length"":0,""cue_max_length"":4,""tot_post_cue_len"":30,""cue_colour"":""red"",""cue_shape"":""Circle"",""cue_size"":70,""cue_duration"":1250,""avg_number_of_cues"":3,""inducer_colour"":""yellow"",""number_of_inducers"":10,""pre_cue_italic_forced_equal"":true,""post_cue_italic_forced_equal"":true,""prac_diagnostic_rounds"":16,""prac_inducer_rounds"":6,""prac_cue_rounds"":16,""prac_post_cue_num"":3}","","","","","","","","","","","","","","","",""
"","html-keyboard-response","6","1068937","0.0-6.0","ynq2zrra","1440","900","","","","","","","","","","","null","+","Fixation - short","","null","","","","","","","","","","","","","","","","",""
"","html-keyboard-response","7","1069447","0.0-7.0","ynq2zrra","","","","","","","","","","","","","508","bwe","diagnostic practice","","j","","prac","0","-84","true","false","false","prac equal","LEFT","RIGHT","j","1","false","","","",""
"","html-keyboard-response","8","1070200","0.0-10.0","ynq2zrra","1440","900","","","","","","","","","","","null","+","Fixation - short","","null","","","","","","","","","","","","","","","","",""
"","html-keyboard-response","9","1070647","0.0-11.0","ynq2zrra","","","","","","","","","","","","","446","nga","diagnostic practice","","f","","prac","1","-84","true","false","true","prac equal","RIGHT","LEFT","f","1","false","","","",""
"","html-keyboard-response","10","1071399","0.0-14.0","ynq2zrra","1440","900","","","","","","","","","","","null","+","Fixation - short","","null","","","","","","","","","","","","","","","","",""
"","html-keyboard-response","11","1071839","0.0-15.0","ynq2zrra","","","","","","","","","","","","","439","bwe","diagnostic practice","","j","","prac","2","-84","true","false","false","prac equal","LEFT","RIGHT","j","1","false","","","",""
"","html-keyboard-response","12","1072591","0.0-18.0","ynq2zrra","1440","900","","","","","","","","","","","null","+","Fixation - short","","null","","","","","","","","","","","","","","","","",""
"","html-keyboard-response","13","1072978","0.0-19.0","ynq2zrra","","","","","","","","","","","","","386","bwe","diagnostic practice","","j","","prac","3","-84","true","false","false","prac equal","LEFT","RIGHT","j","1","false","","","",""
"","html-keyboard-response","14","1073729","0.0-22.0","ynq2zrra","1440","900","","","","","","","","","","","null","+","Fixation - short","","null","","","","","","","","","","","","","","","","",""
"","html-keyboard-response","15","1074143","0.0-23.0","ynq2zrra","","","","","","","","","","","","","413","nga","diagnostic practice","","f","","prac","4","-84","true","false","true","prac equal","RIGHT","LEFT","f","1","false","","","",""
"","html-keyboard-response","16","1074895","0.0-26.0","ynq2zrra","1440","900","","","","","","","","","","","null","+","Fixation - short","","null","","","","","","","","","","","","","","","","",""
"","html-keyboard-response","17","1075282","0.0-27.0","ynq2zrra","","","","","","","","","","","","","385","nga","diagnostic practice","","f","","prac","5","-84","true","false","true","prac equal","RIGHT","LEFT","f","1","false","","","",""
"","html-keyboard-response","18","1076033","0.0-30.0","ynq2zrra","1440","900","","","","","","","","","","","null","+","Fixation - short","","null","","","","","","","","","","","","","","","","",""
"","html-keyboard-response","19","1076463","0.0-31.0","ynq2zrra","","","","","","","","","","","","","428","nga","diagnostic practice","","f","","prac","6","-84","true","false","true","prac equal","RIGHT","LEFT","f","1","false","","","",""
"","html-keyboard-response","20","1077215","0.0-34.0","ynq2zrra","1440","900","","","","","","","","","","","null","+","Fixation - short","","null","","","","","","","","","","","","","","","","",""
"","html-keyboard-response","21","1077626","0.0-35.0","ynq2zrra","","","","","","","","","","","","","410","nga","diagnostic practice","","f","","prac","7","-84","true","false","true","prac equal","RIGHT","LEFT","f","1","false","","","",""
"","html-keyboard-response","22","1078378","0.0-38.0","ynq2zrra","1440","900","","","","","","","","","","","null","+","Fixation - short","","null","","","","","","","","","","","","","","","","",""
"","html-keyboard-response","23","1078831","0.0-39.0","ynq2zrra","","","","","","","","","","","","","452","bwe","diagnostic practice","","j","","prac","8","-84","true","false","false","prac equal","LEFT","RIGHT","j","1","false","","","",""
"","html-keyboard-response","24","1079584","0.0-42.0","ynq2zrra","1440","900","","","","","","","","","","","null","+","Fixation - short","","null","","","","","","","","","","","","","","","","",""
"","html-keyboard-response","25","1080074","0.0-43.0","ynq2zrra","","","","","","","","","","","","","489","bwe","diagnostic practice","","j","","prac","9","-84","true","false","true","prac equal","LEFT","LEFT","f","0","true","","","",""
"","call-function","26","1080075","0.0-45.0-0.0","ynq2zrra","","","","","","","","","","","","","","","","","","","","","","","","","","","","","","","","","",""
"","html-keyboard-response","27","1080377","0.0-45.0-1.0","ynq2zrra","1440","900","","","","","","","","","","","null","Wrong","Feedback","","null","","","","","","","","","","","","","","","","",""
"","call-function","28","1080378","0.0-45.0-2.0","ynq2zrra","","","","","","","","","","","","","","","","","","","","","","","","","","","","","","","","","",""
"","html-keyboard-response","29","1081131","0.0-46.0","ynq2zrra","1440","900","","","","","","","","","","","null","+","Fixation - short","","null","","","","","","","","","","","","","","","","",""
"","html-keyboard-response","30","1081887","0.0-47.0","ynq2zrra","","","","","","","","","","","","","755","nga","diagnostic practice","","j","","prac","10","-84","true","false","false","prac equal","RIGHT","RIGHT","j","1","true","","","",""
"","html-keyboard-response","31","1082639","0.0-50.0","ynq2zrra","1440","900","","","","","","","","","","","null","+","Fixation - short","","null","","","","","","","","","","","","","","","","",""
"","html-keyboard-response","32","1083098","0.0-51.0","ynq2zrra","","","","","","","","","","","","","458","nga","diagnostic practice","","j","","prac","11","-84","true","false","true","prac equal","RIGHT","LEFT","f","0","false","","","",""
"","call-function","33","1083098","0.0-53.0-0.0","ynq2zrra","","","","","","","","","","","","","","","","","","","","","","","","","","","","","","","","","",""
"","html-keyboard-response","34","1083401","0.0-53.0-1.0","ynq2zrra","1440","900","","","","","","","","","","","null","Wrong","Feedback","","null","","","","","","","","","","","","","","","","",""
"","call-function","35","1083401","0.0-53.0-2.0","ynq2zrra","","","","","","","","","","","","","","","","","","","","","","","","","","","","","","","","","",""
"","html-keyboard-response","36","1084153","0.0-54.0","ynq2zrra","1440","900","","","","","","","","","","","null","+","Fixation - short","","null","","","","","","","","","","","","","","","","",""
"","html-keyboard-response","37","1084743","0.0-55.0","ynq2zrra","","","","","","","","","","","","","588","nga","diagnostic practice","","f","","prac","12","-84","true","false","true","prac equal","RIGHT","LEFT","f","1","false","","","",""
"","html-keyboard-response","38","1085495","0.0-58.0","ynq2zrra","1440","900","","","","","","","","","","","null","+","Fixation - short","","null","","","","","","","","","","","","","","","","",""
"","html-keyboard-response","39","1086191","0.0-59.0","ynq2zrra","","","","","","","","","","","","","694","nga","diagnostic practice","","j","","prac","13","-84","true","false","false","prac equal","RIGHT","RIGHT","j","1","true","","","",""
"","html-keyboard-response","40","1086943","0.0-62.0","ynq2zrra","1440","900","","","","","","","","","","","null","+","Fixation - short","","null","","","","","","","","","","","","","","","","",""
"","html-keyboard-response","41","1087544","0.0-63.0","ynq2zrra","","","","","","","","","","","","","600","bwe","diagnostic practice","","j","","prac","14","-84","true","false","false","prac equal","LEFT","RIGHT","j","1","false","","","",""
"","html-keyboard-response","42","1088296","0.0-66.0","ynq2zrra","1440","900","","","","","","","","","","","null","+","Fixation - short","","null","","","","","","","","","","","","","","","","",""
"","html-keyboard-response","43","1088815","0.0-67.0","ynq2zrra","","","","","","","","","","","","","518","bwe","diagnostic practice","","j","","prac","15","-84","true","false","false","prac equal","LEFT","RIGHT","j","1","false","","","",""
"","html-keyboard-response","44","1089568","0.0-70.0","ynq2zrra","1440","900","","","","","","","","","","","null","+","Fixation - short","","null","","","","","","","","","","","","","","","","",""
"","instructions","45","1102223","0.0-71.0","ynq2zrra","","","","","","","","","","","","[{""page_index"":0,""viewing_time"":12654}]","12655","Instructions","Final experiment explanation","","","","","","","","","","","","","","","","","","",""
"","html-keyboard-response","46","1120376","0.0-72.0","ynq2zrra","","","","","","","","","","","","","16651","If gso press LEFT | If cmj press RIGHT","inducer practice",""," ","","prac","","","","","","","","","","","","","","",""
"","html-keyboard-response","47","1121129","0.0-73.0","ynq2zrra","1440","900","","","","","","","","","","","null","+","Fixation - short","","null","","","","","","","","","","","","","","","","",""
"","html-keyboard-response","48","1121879","0.0-74.0","ynq2zrra","","","","","","","","","","","","","748","gso","inducer practice","","f","","prac","","","","true","","","","","f","1","","false","LEFT","",""
"","html-keyboard-response","49","1122631","0.0-77.0","ynq2zrra","1440","900","","","","","","","","","","","null","+","Fixation - short","","null","","","","","","","","","","","","","","","","",""
"","html-keyboard-response","50","1128358","0.0-78.0","ynq2zrra","","","","","","","","","","","","","5726","If vib press LEFT | If dlg press RIGHT","inducer practice",""," ","","prac","","","","","","","","","","","","","","",""
"","html-keyboard-response","51","1129111","0.0-79.0","ynq2zrra","1440","900","","","","","","","","","","","null","+","Fixation - short","","null","","","","","","","","","","","","","","","","",""
"","html-keyboard-response","52","1129616","0.0-80.0","ynq2zrra","","","","","","","","","","","","","504","vib","inducer practice","","f","","prac","","","","true","","","","","f","1","","false","LEFT","",""
"","html-keyboard-response","53","1130367","0.0-83.0","ynq2zrra","1440","900","","","","","","","","","","","null","+","Fixation - short","","null","","","","","","","","","","","","","","","","",""
"","html-keyboard-response","54","1136781","0.0-84.0","ynq2zrra","","","","","","","","","","","","","6412","If jil press LEFT | If ivr press RIGHT","inducer practice",""," ","","prac","","","","","","","","","","","","","","",""
"","html-keyboard-response","55","1137533","0.0-85.0","ynq2zrra","1440","900","","","","","","","","","","","null","+","Fixation - short","","null","","","","","","","","","","","","","","","","",""
"","html-keyboard-response","56","1138100","0.0-86.0","ynq2zrra","","","","","","","","","","","","","567","jil","inducer practice","","f","","prac","","","","true","","","","","f","1","","false","LEFT","",""
"","html-keyboard-response","57","1138853","0.0-89.0","ynq2zrra","1440","900","","","","","","","","","","","null","+","Fixation - short","","null","","","","","","","","","","","","","","","","",""
"","html-keyboard-response","58","1143260","0.0-90.0","ynq2zrra","","","","","","","","","","","","","4406","If hhd press LEFT | If fja press RIGHT","inducer practice",""," ","","prac","","","","","","","","","","","","","","",""
"","html-keyboard-response","59","1144013","0.0-91.0","ynq2zrra","1440","900","","","","","","","","","","","null","+","Fixation - short","","null","","","","","","","","","","","","","","","","",""
"","html-keyboard-response","60","1144556","0.0-92.0","ynq2zrra","","","","","","","","","","","","","542","hhd","inducer practice","","f","","prac","","","","true","","","","","f","1","","false","LEFT","",""
"","html-keyboard-response","61","1145309","0.0-95.0","ynq2zrra","1440","900","","","","","","","","","","","null","+","Fixation - short","","null","","","","","","","","","","","","","","","","",""
"","html-keyboard-response","62","1148740","0.0-96.0","ynq2zrra","","","","","","","","","","","","","3430","If zpl press LEFT | If xet press RIGHT","inducer practice",""," ","","prac","","","","","","","","","","","","","","",""
"","html-keyboard-response","63","1149493","0.0-97.0","ynq2zrra","1440","900","","","","","","","","","","","null","+","Fixation - short","","null","","","","","","","","","","","","","","","","",""
"","html-keyboard-response","64","1149892","0.0-98.0","ynq2zrra","","","","","","","","","","","","","398","xet","inducer practice","","j","","prac","","","","true","","","","","j","1","","false","RIGHT","",""
"","html-keyboard-response","65","1150645","0.0-101.0","ynq2zrra","1440","900","","","","","","","","","","","null","+","Fixation - short","","null","","","","","","","","","","","","","","","","",""
"","html-keyboard-response","66","1159669","0.0-102.0","ynq2zrra","","","","","","","","","","","","","9023","If kmh press LEFT | If asn press RIGHT","inducer practice",""," ","","prac","","","","","","","","","","","","","","",""
"","html-keyboard-response","67","1160422","0.0-103.0","ynq2zrra","1440","900","","","","","","","","","","","null","+","Fixation - short","","null","","","","","","","","","","","","","","","","",""
"","html-keyboard-response","68","1160876","0.0-104.0","ynq2zrra","","","","","","","","","","","","","453","kmh","inducer practice","","f","","prac","","","","true","","","","","f","1","","false","LEFT","",""
"","html-keyboard-response","69","1161629","0.0-107.0","ynq2zrra","1440","900","","","","","","","","","","","null","+","Fixation - short","","null","","","","","","","","","","","","","","","","",""
"","html-keyboard-response","70","1352071","0.0-108.0","ynq2zrra","","","","","","","","","","","","","190439","Cue practice","Cue practice",""," ","","","","","","","","","","","","","","","","",""
"","html-keyboard-response","71","1358002","0.0-109.0","ynq2zrra","","","","","","","","","","","","","5927","If rif press LEFT | If pxv press RIGHT","cue practice",""," ","","prac","","","","","","","","","","","","","","",""
"","html-keyboard-response","72","1358754","0.0-110.0","ynq2zrra","1440","900","","","","","","","","","","","null","+","Fixation - short","","null","","","","","","","","","","","","","","","","",""
"","html-keyboard-response","73","1359271","0.0-111.0","ynq2zrra","","","","","","","","","","","","","516","rif","cue practice","","f","","prac","0","13","false","false","false","only pre","LEFT","RIGHT","j","0","false","","","",""
"","call-function","74","1359272","0.0-113.0-0.0","ynq2zrra","","","","","","","","","","","","","","","","","","","","","","","","","","","","","","","","","",""
"","html-keyboard-response","75","1359575","0.0-113.0-1.0","ynq2zrra","1440","900","","","","","","","","","","","null","Wrong","Feedback","","null","","","","","","","","","","","","","","","","",""
"","call-function","76","1359575","0.0-113.0-2.0","ynq2zrra","","","","","","","","","","","","","","","","","","","","","","","","","","","","","","","","","",""
"","html-keyboard-response","77","1360327","0.0-114.0","ynq2zrra","1440","900","","","","","","","","","","","null","+","Fixation - short","","null","","","","","","","","","","","","","","","","",""
"","html-keyboard-response","78","1363247","0.0-115.0","ynq2zrra","","","","","","","","","","","","","2919","pxv","cue practice","","f","","prac","1","13","false","false","true","only pre","RIGHT","LEFT","f","1","false","","","",""
"","html-keyboard-response","79","1364000","0.0-118.0","ynq2zrra","1440","900","","","","","","","","","","","null","+","Fixation - short","","null","","","","","","","","","","","","","","","","",""
"","html-keyboard-response","80","1364557","0.0-119.0","ynq2zrra","","","","","","","","","","","","","556","rif","cue practice","","f","","prac","2","13","false","false","true","only pre","LEFT","LEFT","f","1","true","","","",""
"","html-keyboard-response","81","1365309","0.0-122.0","ynq2zrra","1440","900","","","","","","","","","","","null","+","Fixation - short","","null","","","","","","","","","","","","","","","","",""
"","html-keyboard-response","82","1365997","0.0-123.0","ynq2zrra","","","","","","","","","","","","","687","rif","cue practice","","j","","prac","3","13","false","false","","only pre","LEFT","RIGHT","j","1","false","","","",""
"","html-keyboard-response","83","1366749","0.0-126.0","ynq2zrra","1440","900","","","","","","","","","","","null","+","Fixation - short","","null","","","","","","","","","","","","","","","","",""
"","html-keyboard-response","84","1367864","0.0-127.0","ynq2zrra","","","","","","","","","","","","","1114","pxv","cue practice","","j","","prac","4","13","false","false","","only pre","RIGHT","RIGHT","j","1","true","","","",""
"","html-keyboard-response","85","1368616","0.0-130.0","ynq2zrra","1440","900","","","","","","","","","","","null","+","Fixation - short","","null","","","","","","","","","","","","","","","","",""
"","html-keyboard-response","86","1369356","0.0-131.0","ynq2zrra","","","","","","","","","","","","","739","pxv","cue practice","","j","","prac","5","13","false","false","","only pre","RIGHT","RIGHT","j","1","true","","","",""
"","html-keyboard-response","87","1370110","0.0-134.0","ynq2zrra","1440","900","","","","","","","","","","","null","+","Fixation - short","","null","","","","","","","","","","","","","","","","",""
"","html-keyboard-response","88","1370576","0.0-135.0","ynq2zrra","","","","","","","","","","","","","465","pxv","cue practice","","j","","prac","6","13","false","false","","only pre","RIGHT","RIGHT","j","1","true","","","",""
"","html-keyboard-response","89","1371329","0.0-138.0","ynq2zrra","1440","900","","","","","","","","","","","null","+","Fixation - short","","null","","","","","","","","","","","","","","","","",""
"","html-keyboard-response","90","1371765","0.0-139.0","ynq2zrra","","","","","","","","","","","","","435","pxv","cue practice","","j","","prac","7","13","false","false","","only pre","RIGHT","RIGHT","j","1","true","","","",""
"","html-keyboard-response","91","1372517","0.0-142.0","ynq2zrra","1440","900","","","","","","","","","","","null","+","Fixation - short","","null","","","","","","","","","","","","","","","","",""
"","html-keyboard-response","92","1372905","0.0-143.0","ynq2zrra","","","","","","","","","","","","","386","pxv","cue practice","","j","","prac","8","13","false","false","","only pre","RIGHT","RIGHT","j","1","true","","","",""
"","html-keyboard-response","93","1373657","0.0-146.0","ynq2zrra","1440","900","","","","","","","","","","","null","+","Fixation - short","","null","","","","","","","","","","","","","","","","",""
"","html-keyboard-response","94","1375958","0.0-147.0","ynq2zrra","","","","","","","","","","","","","2299","rif","cue practice","","f","","prac","9","13","false","false","","only pre","LEFT","RIGHT","j","0","false","","","",""
"","call-function","95","1375958","0.0-149.0-0.0","ynq2zrra","","","","","","","","","","","","","","","","","","","","","","","","","","","","","","","","","",""
"","html-keyboard-response","96","1376261","0.0-149.0-1.0","ynq2zrra","1440","900","","","","","","","","","","","null","Wrong","Feedback","","null","","","","","","","","","","","","","","","","",""
"","call-function","97","1376261","0.0-149.0-2.0","ynq2zrra","","","","","","","","","","","","","","","","","","","","","","","","","","","","","","","","","",""
"","html-keyboard-response","98","1377014","0.0-150.0","ynq2zrra","1440","900","","","","","","","","","","","null","+","Fixation - short","","null","","","","","","","","","","","","","","","","",""
"","html-keyboard-response","99","1377701","0.0-151.0","ynq2zrra","","","","","","","","","","","","","686","rif","cue practice","","j","","prac","10","13","false","false","","only pre","LEFT","RIGHT","j","1","false","","","",""
"","html-keyboard-response","100","1378453","0.0-154.0","ynq2zrra","1440","900","","","","","","","","","","","null","+","Fixation - short","","null","","","","","","","","","","","","","","","","",""
"","html-keyboard-response","101","1378904","0.0-155.0","ynq2zrra","","","","","","","","","","","","","450","rif","cue practice","","j","","prac","11","13","false","false","","only pre","LEFT","RIGHT","j","1","false","","","",""
"","html-keyboard-response","102","1379657","0.0-158.0","ynq2zrra","1440","900","","","","","","","","","","","null","+","Fixation - short","","null","","","","","","","","","","","","","","","","",""
"","html-keyboard-response","103","1380069","0.0-159.0","ynq2zrra","","","","","","","","","","","","","411","rif","cue practice","","j","","prac","12","13","false","false","","only pre","LEFT","RIGHT","j","1","false","","","",""
"","html-keyboard-response","104","1380821","0.0-162.0","ynq2zrra","1440","900","","","","","","","","","","","null","+","Fixation - short","","null","","","","","","","","","","","","","","","","",""
"","canvas-keyboard-response","105","1382141","0.0-163.0","ynq2zrra","","","","","","","","","","","","","null","Cue","Cue","","null","","prac","12","","","false","","","","","","","","","","",""
"","html-keyboard-response","106","1382894","0.0-164.0","ynq2zrra","1440","900","","","","","","","","","","","null","+","Fixation - short","","null","","","","","","","","","","","","","","","","",""
"","html-keyboard-response","107","1383836","0.0-165.0","ynq2zrra","","","","","","","","","","","","","941","pxv","cue practice","","j","","prac","13","13","true","false","false","only pre","RIGHT","RIGHT","j","1","true","","","",""
"","html-keyboard-response","108","1384589","0.0-168.0","ynq2zrra","1440","900","","","","","","","","","","","null","+","Fixation - short","","null","","","","","","","","","","","","","","","","",""
"","html-keyboard-response","109","1385426","0.0-169.0","ynq2zrra","","","","","","","","","","","","","836","rif","cue practice","","j","","prac","14","13","true","false","false","only pre","LEFT","RIGHT","j","1","false","","","",""
"","html-keyboard-response","110","1386178","0.0-172.0","ynq2zrra","1440","900","","","","","","","","","","","null","+","Fixation - short","","null","","","","","","","","","","","","","","","","",""
"","html-keyboard-response","111","1387228","0.0-173.0","ynq2zrra","","","","","","","","","","","","","1049","pxv","cue practice","","j","","prac","15","13","true","false","false","only pre","RIGHT","RIGHT","j","1","true","","","",""
"","html-keyboard-response","112","1387981","0.0-176.0","ynq2zrra","1440","900","","","","","","","","","","","null","+","Fixation - short","","null","","","","","","","","","","","","","","","","",""
"","html-keyboard-response","113","1389984","0.0-177.0","ynq2zrra","","","","","","","","","","","","","null","rif","inducer practice","","null","","prac","","","","true","","","","","f","NaN","","false","LEFT","",""
"","call-function","114","1389985","0.0-178.0-0.0","ynq2zrra","","","","","","","","","","","","","","","","","","","","","","","","","","","","","","","","","",""
"","html-keyboard-response","115","1390287","0.0-178.0-1.0","ynq2zrra","1440","900","","","","","","","","","","","null","Slow","Feedback","","null","","","","","","","","","","","","","","","","",""
"","call-function","116","1390288","0.0-178.0-2.0","ynq2zrra","","","","","","","","","","","","","","","","","","","","","","","","","","","","","","","","","",""
"","html-keyboard-response","117","1391040","0.0-180.0","ynq2zrra","1440","900","","","","","","","","","","","null","+","Fixation - short","","null","","","","","","","","","","","","","","","","",""
"","html-keyboard-response","118","1401853","0.0-181.0","ynq2zrra","","","","","","","","","","","","","10812","End practice","End of practice",""," ","","","","","","","","","","","","","","","","",""
"","html-keyboard-response","119","1403357","0.0-182.0","ynq2zrra","1440","900","","","","","","","","","","","null","+","Fixation - long","","null","","","","","","","","","","","","","","","","",""
"","html-keyboard-response","120","1409457","0.0-183.0","ynq2zrra","","","","","","","","","","","","","6099","If gfm press LEFT | If kho press RIGHT","inducer instructions",""," ","","0","","","","","","","","","","","","","","",""
"","html-keyboard-response","121","1410211","0.0-184.0","ynq2zrra","1440","900","","","","","","","","","","","null","+","Fixation - short","","null","","","","","","","","","","","","","","","","",""
"","html-keyboard-response","122","1410893","0.0-185.0","ynq2zrra","","","","","","","","","","","","","682","kho","diagnostic trial","","j","","0","0","9","false","false","true","both pre & post","RIGHT","LEFT","f","0","false","","","",""
"","call-function","123","1410894","0.0-187.0-0.0","ynq2zrra","","","","","","","","","","","","","","","","","","","","","","","","","","","","","","","","","",""
"","html-keyboard-response","124","1411196","0.0-187.0-1.0","ynq2zrra","1440","900","","","","","","","","","","","null","Wrong","Feedback","","null","","","","","","","","","","","","","","","","",""
"","call-function","125","1411196","0.0-187.0-2.0","ynq2zrra","","","","","","","","","","","","","","","","","","","","","","","","","","","","","","","","","",""
"","html-keyboard-response","126","1411948","0.0-188.0","ynq2zrra","1440","900","","","","","","","","","","","null","+","Fixation - short","","null","","","","","","","","","","","","","","","","",""
"","html-keyboard-response","127","1413602","0.0-189.0","ynq2zrra","","","","","","","","","","","","","1653","gfm","diagnostic trial","","j","","0","1","9","false","false","false","both pre & post","LEFT","RIGHT","j","1","false","","","",""
"","html-keyboard-response","128","1414354","0.0-192.0","ynq2zrra","1440","900","","","","","","","","","","","null","+","Fixation - short","","null","","","","","","","","","","","","","","","","",""
"","html-keyboard-response","129","1414918","0.0-193.0","ynq2zrra","","","","","","","","","","","","","563","gfm","diagnostic trial","","j","","0","2","9","false","false","false","both pre & post","LEFT","RIGHT","j","1","false","","","",""
"","html-keyboard-response","130","1415671","0.0-196.0","ynq2zrra","1440","900","","","","","","","","","","","null","+","Fixation - short","","null","","","","","","","","","","","","","","","","",""
"","html-keyboard-response","131","1416518","0.0-197.0","ynq2zrra","","","","","","","","","","","","","846","kho","diagnostic trial","","f","","0","3","9","false","false","false","both pre & post","RIGHT","RIGHT","j","0","true","","","",""
"","call-function","132","1416519","0.0-199.0-0.0","ynq2zrra","","","","","","","","","","","","","","","","","","","","","","","","","","","","","","","","","",""
"","html-keyboard-response","133","1416821","0.0-199.0-1.0","ynq2zrra","1440","900","","","","","","","","","","","null","Wrong","Feedback","","null","","","","","","","","","","","","","","","","",""
"","call-function","134","1416822","0.0-199.0-2.0","ynq2zrra","","","","","","","","","","","","","","","","","","","","","","","","","","","","","","","","","",""
"","html-keyboard-response","135","1417574","0.0-200.0","ynq2zrra","1440","900","","","","","","","","","","","null","+","Fixation - short","","null","","","","","","","","","","","","","","","","",""
"","html-keyboard-response","136","1418397","0.0-201.0","ynq2zrra","","","","","","","","","","","","","822","gfm","diagnostic trial","","j","","0","4","9","false","false","false","both pre & post","LEFT","RIGHT","j","1","false","","","",""
"","html-keyboard-response","137","1419149","0.0-204.0","ynq2zrra","1440","900","","","","","","","","","","","null","+","Fixation - short","","null","","","","","","","","","","","","","","","","",""
"","html-keyboard-response","138","1420174","0.0-205.0","ynq2zrra","","","","","","","","","","","","","1024","kho","diagnostic trial","","f","","0","5","9","false","false","true","both pre & post","RIGHT","LEFT","f","1","false","","","",""
"","html-keyboard-response","139","1420927","0.0-208.0","ynq2zrra","1440","900","","","","","","","","","","","null","+","Fixation - short","","null","","","","","","","","","","","","","","","","",""
"","html-keyboard-response","140","1421830","0.0-209.0","ynq2zrra","","","","","","","","","","","","","902","kho","diagnostic trial","","j","","0","6","9","false","false","false","both pre & post","RIGHT","RIGHT","j","1","true","","","",""
"","html-keyboard-response","141","1422582","0.0-212.0","ynq2zrra","1440","900","","","","","","","","","","","null","+","Fixation - short","","null","","","","","","","","","","","","","","","","",""
"","html-keyboard-response","142","1423222","0.0-213.0","ynq2zrra","","","","","","","","","","","","","639","kho","diagnostic trial","","f","","0","7","9","false","false","true","both pre & post","RIGHT","LEFT","f","1","false","","","",""
"","html-keyboard-response","143","1423975","0.0-216.0","ynq2zrra","1440","900","","","","","","","","","","","null","+","Fixation - short","","null","","","","","","","","","","","","","","","","",""
"","html-keyboard-response","144","1424599","0.0-217.0","ynq2zrra","","","","","","","","","","","","","622","kho","diagnostic trial","","j","","0","8","9","false","false","false","both pre & post","RIGHT","RIGHT","j","1","true","","","",""
"","html-keyboard-response","145","1425352","0.0-220.0","ynq2zrra","1440","900","","","","","","","","","","","null","+","Fixation - short","","null","","","","","","","","","","","","","","","","",""
"","canvas-keyboard-response","146","1426605","0.0-221.0","ynq2zrra","","","","","","","","","","","","","null","Cue","Cue","","null","","0","8","","","false","","","","","","","","","","",""
"","html-keyboard-response","147","1427357","0.0-222.0","ynq2zrra","1440","900","","","","","","","","","","","null","+","Fixation - short","","null","","","","","","","","","","","","","","","","",""
"","html-keyboard-response","148","1428265","0.0-223.0","ynq2zrra","","","","","","","","","","","","","907","kho","diagnostic trial","","j","","0","9","9","true","false","false","both pre & post","RIGHT","RIGHT","j","1","true","","","",""
"","html-keyboard-response","149","1429018","0.0-226.0","ynq2zrra","1440","900","","","","","","","","","","","null","+","Fixation - short","","null","","","","","","","","","","","","","","","","",""
"","html-keyboard-response","150","1429630","0.0-227.0","ynq2zrra","","","","","","","","","","","","","612","gfm","diagnostic trial","","f","","0","10","9","true","false","true","both pre & post","LEFT","LEFT","f","1","true","","","",""
"","html-keyboard-response","151","1430383","0.0-230.0","ynq2zrra","1440","900","","","","","","","","","","","null","+","Fixation - short","","null","","","","","","","","","","","","","","","","",""
"","html-keyboard-response","152","1431382","0.0-231.0","ynq2zrra","","","","","","","","","","","","","998","gfm","diagnostic trial","","j","","0","11","9","true","false","false","both pre & post","LEFT","RIGHT","j","1","false","","","",""
"","html-keyboard-response","153","1432134","0.0-234.0","ynq2zrra","1440","900","","","","","","","","","","","null","+","Fixation - short","","null","","","","","","","","","","","","","","","","",""
"","html-keyboard-response","154","1432838","0.0-235.0","ynq2zrra","","","","","","","","","","","","","703","gfm","diagnostic trial","","f","","0","12","9","true","false","true","both pre & post","LEFT","LEFT","f","1","true","","","",""
"","html-keyboard-response","155","1433590","0.0-238.0","ynq2zrra","1440","900","","","","","","","","","","","null","+","Fixation - short","","null","","","","","","","","","","","","","","","","",""
"","html-keyboard-response","156","1435482","0.0-239.0","ynq2zrra","","","","","","","","","","","","","1890","gfm","inducer trial","","f","","0","","","","true","","","","","f","1","","false","LEFT","",""
"","html-keyboard-response","157","1436233","0.0-242.0","ynq2zrra","1440","900","","","","","","","","","","","null","+","Fixation - short","","null","","","","","","","","","","","","","","","","",""
"","html-keyboard-response","158","1443158","0.0-243.0","ynq2zrra","","","","","","","","","","","","","6923","If cpt press LEFT | If adj press RIGHT","inducer instructions",""," ","","1","","","","","","","","","","","","","","",""
"","html-keyboard-response","159","1443911","0.0-244.0","ynq2zrra","1440","900","","","","","","","","","","","null","+","Fixation - short","","null","","","","","","","","","","","","","","","","",""
"","html-keyboard-response","160","1444550","0.0-245.0","ynq2zrra","","","","","","","","","","","","","638","cpt","diagnostic trial","","f","","1","0","8","false","false","false","both pre & post","LEFT","RIGHT","j","0","false","","","",""
"","call-function","161","1444551","0.0-247.0-0.0","ynq2zrra","","","","","","","","","","","","","","","","","","","","","","","","","","","","","","","","","",""
"","html-keyboard-response","162","1444854","0.0-247.0-1.0","ynq2zrra","1440","900","","","","","","","","","","","null","Wrong","Feedback","","null","","","","","","","","","","","","","","","","",""
"","call-function","163","1444854","0.0-247.0-2.0","ynq2zrra","","","","","","","","","","","","","","","","","","","","","","","","","","","","","","","","","",""
"","html-keyboard-response","164","1445607","0.0-248.0","ynq2zrra","1440","900","","","","","","","","","","","null","+","Fixation - short","","null","","","","","","","","","","","","","","","","",""
"","html-keyboard-response","165","1446503","0.0-249.0","ynq2zrra","","","","","","","","","","","","","894","adj","diagnostic trial","","j","","1","1","8","false","false","false","both pre & post","RIGHT","RIGHT","j","1","true","","","",""
"","html-keyboard-response","166","1447255","0.0-252.0","ynq2zrra","1440","900","","","","","","","","","","","null","+","Fixation - short","","null","","","","","","","","","","","","","","","","",""
"","html-keyboard-response","167","1447882","0.0-253.0","ynq2zrra","","","","","","","","","","","","","625","cpt","diagnostic trial","","j","","1","2","8","false","false","false","both pre & post","LEFT","RIGHT","j","1","false","","","",""
"","html-keyboard-response","168","1448634","0.0-256.0","ynq2zrra","1440","900","","","","","","","","","","","null","+","Fixation - short","","null","","","","","","","","","","","","","","","","",""
"","html-keyboard-response","169","1449190","0.0-257.0","ynq2zrra","","","","","","","","","","","","","555","adj","diagnostic trial","","j","","1","3","8","false","false","false","both pre & post","RIGHT","RIGHT","j","1","true","","","",""
"","html-keyboard-response","170","1449942","0.0-260.0","ynq2zrra","1440","900","","","","","","","","","","","null","+","Fixation - short","","null","","","","","","","","","","","","","","","","",""
"","html-keyboard-response","171","1450558","0.0-261.0","ynq2zrra","","","","","","","","","","","","","616","cpt","diagnostic trial","","f","","1","4","8","false","false","true","both pre & post","LEFT","LEFT","f","1","true","","","",""
"","html-keyboard-response","172","1451311","0.0-264.0","ynq2zrra","1440","900","","","","","","","","","","","null","+","Fixation - short","","null","","","","","","","","","","","","","","","","",""
"","html-keyboard-response","173","1452065","0.0-265.0","ynq2zrra","","","","","","","","","","","","","753","adj","diagnostic trial","","f","","1","5","8","false","false","true","both pre & post","RIGHT","LEFT","f","1","false","","","",""
"","html-keyboard-response","174","1452818","0.0-268.0","ynq2zrra","1440","900","","","","","","","","","","","null","+","Fixation - short","","null","","","","","","","","","","","","","","","","",""
"","html-keyboard-response","175","1453373","0.0-269.0","ynq2zrra","","","","","","","","","","","","","554","cpt","diagnostic trial","","j","","1","6","8","false","false","false","both pre & post","LEFT","RIGHT","j","1","false","","","",""
"","html-keyboard-response","176","1454125","0.0-272.0","ynq2zrra","1440","900","","","","","","","","","","","null","+","Fixation - short","","null","","","","","","","","","","","","","","","","",""
"","html-keyboard-response","177","1454601","0.0-273.0","ynq2zrra","","","","","","","","","","","","","475","cpt","diagnostic trial","","j","","1","7","8","false","false","false","both pre & post","LEFT","RIGHT","j","1","false","","","",""
"","html-keyboard-response","178","1455354","0.0-276.0","ynq2zrra","1440","900","","","","","","","","","","","null","+","Fixation - short","","null","","","","","","","","","","","","","","","","",""
"","canvas-keyboard-response","179","1456606","0.0-277.0","ynq2zrra","","","","","","","","","","","","","null","Cue","Cue","","null","","1","7","","","false","","","","","","","","","","",""
"","html-keyboard-response","180","1457359","0.0-278.0","ynq2zrra","1440","900","","","","","","","","","","","null","+","Fixation - short","","null","","","","","","","","","","","","","","","","",""
"","html-keyboard-response","181","1457894","0.0-279.0","ynq2zrra","","","","","","","","","","","","","535","cpt","diagnostic trial","","j","","1","8","8","true","false","false","both pre & post","LEFT","RIGHT","j","1","false","","","",""
"","html-keyboard-response","182","1458647","0.0-282.0","ynq2zrra","1440","900","","","","","","","","","","","null","+","Fixation - short","","null","","","","","","","","","","","","","","","","",""
"","html-keyboard-response","183","1459097","0.0-283.0","ynq2zrra","","","","","","","","","","","","","449","cpt","diagnostic trial","","j","","1","9","8","true","false","false","both pre & post","LEFT","RIGHT","j","1","false","","","",""
"","html-keyboard-response","184","1459850","0.0-286.0","ynq2zrra","1440","900","","","","","","","","","","","null","+","Fixation - short","","null","","","","","","","","","","","","","","","","",""
"","html-keyboard-response","185","1460470","0.0-287.0","ynq2zrra","","","","","","","","","","","","","620","adj","diagnostic trial","","j","","1","10","8","true","false","false","both pre & post","RIGHT","RIGHT","j","1","true","","","",""
"","html-keyboard-response","186","1461223","0.0-290.0","ynq2zrra","1440","900","","","","","","","","","","","null","+","Fixation - short","","null","","","","","","","","","","","","","","","","",""
"","html-keyboard-response","187","1461665","0.0-291.0","ynq2zrra","","","","","","","","","","","","","441","adj","diagnostic trial","","j","","1","11","8","true","false","false","both pre & post","RIGHT","RIGHT","j","1","true","","","",""
"","html-keyboard-response","188","1462418","0.0-294.0","ynq2zrra","1440","900","","","","","","","","","","","null","+","Fixation - short","","null","","","","","","","","","","","","","","","","",""
"","html-keyboard-response","189","1462959","0.0-295.0","ynq2zrra","","","","","","","","","","","","","540","adj","inducer trial","","f","","1","","","","true","","","","","j","0","","false","RIGHT","",""
"","call-function","190","1462959","0.0-297.0-0.0","ynq2zrra","","","","","","","","","","","","","","","","","","","","","","","","","","","","","","","","","",""
"","html-keyboard-response","191","1463262","0.0-297.0-1.0","ynq2zrra","1440","900","","","","","","","","","","","null","Wrong","Feedback","","null","","","","","","","","","","","","","","","","",""
"","call-function","192","1463263","0.0-297.0-2.0","ynq2zrra","","","","","","","","","","","","","","","","","","","","","","","","","","","","","","","","","",""
"","html-keyboard-response","193","1464015","0.0-298.0","ynq2zrra","1440","900","","","","","","","","","","","null","+","Fixation - short","","null","","","","","","","","","","","","","","","","",""
"","html-keyboard-response","194","1472077","0.0-299.0","ynq2zrra","","","","","","","","","","","","","8061","If tkb press LEFT | If ufc press RIGHT","inducer instructions",""," ","","2","","","","","","","","","","","","","","",""
"","html-keyboard-response","195","1472830","0.0-300.0","ynq2zrra","1440","900","","","","","","","","","","","null","+","Fixation - short","","null","","","","","","","","","","","","","","","","",""
"","html-keyboard-response","196","1473453","0.0-301.0","ynq2zrra","","","","","","","","","","","","","622","tkb","diagnostic trial","","j","","2","0","4","false","false","false","both pre & post","LEFT","RIGHT","j","1","false","","","",""
"","html-keyboard-response","197","1474205","0.0-304.0","ynq2zrra","1440","900","","","","","","","","","","","null","+","Fixation - short","","null","","","","","","","","","","","","","","","","",""
"","html-keyboard-response","198","1474901","0.0-305.0","ynq2zrra","","","","","","","","","","","","","694","tkb","diagnostic trial","","f","","2","1","4","false","false","true","both pre & post","LEFT","LEFT","f","1","true","","","",""
"","html-keyboard-response","199","1475653","0.0-308.0","ynq2zrra","1440","900","","","","","","","","","","","null","+","Fixation - short","","null","","","","","","","","","","","","","","","","",""
"","html-keyboard-response","200","1476260","0.0-309.0","ynq2zrra","","","","","","","","","","","","","606","tkb","diagnostic trial","","j","","2","2","4","false","false","false","both pre & post","LEFT","RIGHT","j","1","false","","","",""
"","html-keyboard-response","201","1477013","0.0-312.0","ynq2zrra","1440","900","","","","","","","","","","","null","+","Fixation - short","","null","","","","","","","","","","","","","","","","",""
"","html-keyboard-response","202","1477660","0.0-313.0","ynq2zrra","","","","","","","","","","","","","646","tkb","diagnostic trial","","f","","2","3","4","false","false","true","both pre & post","LEFT","LEFT","f","1","true","","","",""
"","html-keyboard-response","203","1478412","0.0-316.0","ynq2zrra","1440","900","","","","","","","","","","","null","+","Fixation - short","","null","","","","","","","","","","","","","","","","",""
"","canvas-keyboard-response","204","1479665","0.0-317.0","ynq2zrra","","","","","","","","","","","","","null","Cue","Cue","","null","","2","3","","","false","","","","","","","","","","",""
"","html-keyboard-response","205","1480418","0.0-318.0","ynq2zrra","1440","900","","","","","","","","","","","null","+","Fixation - short","","null","","","","","","","","","","","","","","","","",""
"","html-keyboard-response","206","1481325","0.0-319.0","ynq2zrra","","","","","","","","","","","","","906","ufc","diagnostic trial","","j","","2","4","4","true","false","true","both pre & post","RIGHT","LEFT","f","0","false","","","",""
"","call-function","207","1481326","0.0-321.0-0.0","ynq2zrra","","","","","","","","","","","","","","","","","","","","","","","","","","","","","","","","","",""
"","html-keyboard-response","208","1481628","0.0-321.0-1.0","ynq2zrra","1440","900","","","","","","","","","","","null","Wrong","Feedback","","null","","","","","","","","","","","","","","","","",""
"","call-function","209","1481629","0.0-321.0-2.0","ynq2zrra","","","","","","","","","","","","","","","","","","","","","","","","","","","","","","","","","",""
"","html-keyboard-response","210","1482382","0.0-322.0","ynq2zrra","1440","900","","","","","","","","","","","null","+","Fixation - short","","null","","","","","","","","","","","","","","","","",""
"","html-keyboard-response","211","1483133","0.0-323.0","ynq2zrra","","","","","","","","","","","","","750","ufc","diagnostic trial","","f","","2","5","4","true","false","true","both pre & post","RIGHT","LEFT","f","1","false","","","",""
"","html-keyboard-response","212","1483886","0.0-326.0","ynq2zrra","1440","900","","","","","","","","","","","null","+","Fixation - short","","null","","","","","","","","","","","","","","","","",""
"","html-keyboard-response","213","1484872","0.0-327.0","ynq2zrra","","","","","","","","","","","","","985","tkb","inducer trial","","f","","2","","","","true","","","","","f","1","","false","LEFT","",""
"","html-keyboard-response","214","1485623","0.0-330.0","ynq2zrra","1440","900","","","","","","","","","","","null","+","Fixation - short","","null","","","","","","","","","","","","","","","","",""
"","html-keyboard-response","215","1490533","0.0-331.0","ynq2zrra","","","","","","","","","","","","","4909","If faq press LEFT | If vrm press RIGHT","inducer instructions",""," ","","3","","","","","","","","","","","","","","",""
"","html-keyboard-response","216","1491286","0.0-332.0","ynq2zrra","1440","900","","","","","","","","","","","null","+","Fixation - short","","null","","","","","","","","","","","","","","","","",""
"","html-keyboard-response","217","1492165","0.0-333.0","ynq2zrra","","","","","","","","","","","","","878","vrm","diagnostic trial","","j","","3","0","7","false","false","true","both pre & post","RIGHT","LEFT","f","0","false","","","",""
"","call-function","218","1492165","0.0-335.0-0.0","ynq2zrra","","","","","","","","","","","","","","","","","","","","","","","","","","","","","","","","","",""
"","html-keyboard-response","219","1492467","0.0-335.0-1.0","ynq2zrra","1440","900","","","","","","","","","","","null","Wrong","Feedback","","null","","","","","","","","","","","","","","","","",""
"","call-function","220","1492468","0.0-335.0-2.0","ynq2zrra","","","","","","","","","","","","","","","","","","","","","","","","","","","","","","","","","",""
"","html-keyboard-response","221","1493221","0.0-336.0","ynq2zrra","1440","900","","","","","","","","","","","null","+","Fixation - short","","null","","","","","","","","","","","","","","","","",""
"","html-keyboard-response","222","1494109","0.0-337.0","ynq2zrra","","","","","","","","","","","","","887","faq","diagnostic trial","","f","","3","1","7","false","false","true","both pre & post","LEFT","LEFT","f","1","true","","","",""
"","html-keyboard-response","223","1494861","0.0-340.0","ynq2zrra","1440","900","","","","","","","","","","","null","+","Fixation - short","","null","","","","","","","","","","","","","","","","",""
"","html-keyboard-response","224","1495524","0.0-341.0","ynq2zrra","","","","","","","","","","","","","663","faq","diagnostic trial","","j","","3","2","7","false","false","false","both pre & post","LEFT","RIGHT","j","1","false","","","",""
"","html-keyboard-response","225","1496277","0.0-344.0","ynq2zrra","1440","900","","","","","","","","","","","null","+","Fixation - short","","null","","","","","","","","","","","","","","","","",""
"","html-keyboard-response","226","1497189","0.0-345.0","ynq2zrra","","","","","","","","","","","","","911","vrm","diagnostic trial","","f","","3","3","7","false","false","true","both pre & post","RIGHT","LEFT","f","1","false","","","",""
"","html-keyboard-response","227","1497941","0.0-348.0","ynq2zrra","1440","900","","","","","","","","","","","null","+","Fixation - short","","null","","","","","","","","","","","","","","","","",""
"","html-keyboard-response","228","1498631","0.0-349.0","ynq2zrra","","","","","","","","","","","","","689","faq","diagnostic trial","","f","","3","4","7","false","false","true","both pre & post","LEFT","LEFT","f","1","true","","","",""
"","html-keyboard-response","229","1499384","0.0-352.0","ynq2zrra","1440","900","","","","","","","","","","","null","+","Fixation - short","","null","","","","","","","","","","","","","","","","",""
"","html-keyboard-response","230","1500109","0.0-353.0","ynq2zrra","","","","","","","","","","","","","724","faq","diagnostic trial","","f","","3","5","7","false","false","false","both pre & post","LEFT","RIGHT","j","0","false","","","",""
"","call-function","231","1500109","0.0-355.0-0.0","ynq2zrra","","","","","","","","","","","","","","","","","","","","","","","","","","","","","","","","","",""
"","html-keyboard-response","232","1500411","0.0-355.0-1.0","ynq2zrra","1440","900","","","","","","","","","","","null","Wrong","Feedback","","null","","","","","","","","","","","","","","","","",""
"","call-function","233","1500412","0.0-355.0-2.0","ynq2zrra","","","","","","","","","","","","","","","","","","","","","","","","","","","","","","","","","",""
"","html-keyboard-response","234","1501165","0.0-356.0","ynq2zrra","1440","900","","","","","","","","","","","null","+","Fixation - short","","null","","","","","","","","","","","","","","","","",""
"","html-keyboard-response","235","1502160","0.0-357.0","ynq2zrra","","","","","","","","","","","","","994","vrm","diagnostic trial","","f","","3","6","7","false","false","true","both pre & post","RIGHT","LEFT","f","1","false","","","",""
"","html-keyboard-response","236","1502912","0.0-360.0","ynq2zrra","1440","900","","","","","","","","","","","null","+","Fixation - short","","null","","","","","","","","","","","","","","","","",""
"","canvas-keyboard-response","237","1504165","0.0-361.0","ynq2zrra","","","","","","","","","","","","","null","Cue","Cue","","null","","3","6","","","false","","","","","","","","","","",""
"","html-keyboard-response","238","1504918","0.0-362.0","ynq2zrra","1440","900","","","","","","","","","","","null","+","Fixation - short","","null","","","","","","","","","","","","","","","","",""
"","html-keyboard-response","239","1505853","0.0-363.0","ynq2zrra","","","","","","","","","","","","","934","vrm","diagnostic trial","","j","","3","7","7","true","false","false","both pre & post","RIGHT","RIGHT","j","1","true","","","",""
"","html-keyboard-response","240","1506606","0.0-366.0","ynq2zrra","1440","900","","","","","","","","","","","null","+","Fixation - short","","null","","","","","","","","","","","","","","","","",""
"","html-keyboard-response","241","1507040","0.0-367.0","ynq2zrra","","","","","","","","","","","","","433","vrm","diagnostic trial","","j","","3","8","7","true","false","false","both pre & post","RIGHT","RIGHT","j","1","true","","","",""
"","html-keyboard-response","242","1507793","0.0-370.0","ynq2zrra","1440","900","","","","","","","","","","","null","+","Fixation - short","","null","","","","","","","","","","","","","","","","",""
"","html-keyboard-response","243","1508341","0.0-371.0","ynq2zrra","","","","","","","","","","","","","547","faq","diagnostic trial","","f","","3","9","7","true","false","true","both pre & post","LEFT","LEFT","f","1","true","","","",""
"","html-keyboard-response","244","1509092","0.0-374.0","ynq2zrra","1440","900","","","","","","","","","","","null","+","Fixation - short","","null","","","","","","","","","","","","","","","","",""
"","html-keyboard-response","245","1510205","0.0-375.0","ynq2zrra","","","","","","","","","","","","","1112","vrm","inducer trial","","j","","3","","","","true","","","","","j","1","","false","RIGHT","",""
"","html-keyboard-response","246","1510956","0.0-378.0","ynq2zrra","1440","900","","","","","","","","","","","null","+","Fixation - short","","null","","","","","","","","","","","","","","","","",""
"","html-keyboard-response","247","1515869","0.0-379.0","ynq2zrra","","","","","","","","","","","","","4912","If wab press LEFT | If wwt press RIGHT","inducer instructions",""," ","","4","","","","","","","","","","","","","","",""
"","html-keyboard-response","248","1516622","0.0-380.0","ynq2zrra","1440","900","","","","","","","","","","","null","+","Fixation - short","","null","","","","","","","","","","","","","","","","",""
"","html-keyboard-response","249","1517157","0.0-381.0","ynq2zrra","","","","","","","","","","","","","534","wwt","diagnostic trial","","f","","4","0","8","false","false","true","both pre & post","RIGHT","LEFT","f","1","false","","","",""
"","html-keyboard-response","250","1517909","0.0-384.0","ynq2zrra","1440","900","","","","","","","","","","","null","+","Fixation - short","","null","","","","","","","","","","","","","","","","",""
"","html-keyboard-response","251","1518872","0.0-385.0","ynq2zrra","","","","","","","","","","","","","962","wab","diagnostic trial","","f","","4","1","8","false","false","true","both pre & post","LEFT","LEFT","f","1","true","","","",""
"","html-keyboard-response","252","1519623","0.0-388.0","ynq2zrra","1440","900","","","","","","","","","","","null","+","Fixation - short","","null","","","","","","","","","","","","","","","","",""
"","html-keyboard-response","253","1520220","0.0-389.0","ynq2zrra","","","","","","","","","","","","","596","wwt","diagnostic trial","","j","","4","2","8","false","false","false","both pre & post","RIGHT","RIGHT","j","1","true","","","",""
"","html-keyboard-response","254","1520972","0.0-392.0","ynq2zrra","1440","900","","","","","","","","","","","null","+","Fixation - short","","null","","","","","","","","","","","","","","","","",""
"","html-keyboard-response","255","1521455","0.0-393.0","ynq2zrra","","","","","","","","","","","","","482","wwt","diagnostic trial","","j","","4","3","8","false","false","true","both pre & post","RIGHT","LEFT","f","0","false","","","",""
"","call-function","256","1521456","0.0-395.0-0.0","ynq2zrra","","","","","","","","","","","","","","","","","","","","","","","","","","","","","","","","","",""
"","html-keyboard-response","257","1521758","0.0-395.0-1.0","ynq2zrra","1440","900","","","","","","","","","","","null","Wrong","Feedback","","null","","","","","","","","","","","","","","","","",""
"","call-function","258","1521758","0.0-395.0-2.0","ynq2zrra","","","","","","","","","","","","","","","","","","","","","","","","","","","","","","","","","",""
"","html-keyboard-response","259","1522511","0.0-396.0","ynq2zrra","1440","900","","","","","","","","","","","null","+","Fixation - short","","null","","","","","","","","","","","","","","","","",""
"","html-keyboard-response","260","1523165","0.0-397.0","ynq2zrra","","","","","","","","","","","","","653","wab","diagnostic trial","","f","","4","4","8","false","false","true","both pre & post","LEFT","LEFT","f","1","true","","","",""
"","html-keyboard-response","261","1523916","0.0-400.0","ynq2zrra","1440","900","","","","","","","","","","","null","+","Fixation - short","","null","","","","","","","","","","","","","","","","",""
"","html-keyboard-response","262","1524584","0.0-401.0","ynq2zrra","","","","","","","","","","","","","667","wab","diagnostic trial","","f","","4","5","8","false","false","true","both pre & post","LEFT","LEFT","f","1","true","","","",""
"","html-keyboard-response","263","1525337","0.0-404.0","ynq2zrra","1440","900","","","","","","","","","","","null","+","Fixation - short","","null","","","","","","","","","","","","","","","","",""
"","html-keyboard-response","264","1525851","0.0-405.0","ynq2zrra","","","","","","","","","","","","","514","wab","diagnostic trial","","f","","4","6","8","false","false","true","both pre & post","LEFT","LEFT","f","1","true","","","",""
"","html-keyboard-response","265","1526603","0.0-408.0","ynq2zrra","1440","900","","","","","","","","","","","null","+","Fixation - short","","null","","","","","","","","","","","","","","","","",""
"","html-keyboard-response","266","1527065","0.0-409.0","ynq2zrra","","","","","","","","","","","","","461","wab","diagnostic trial","","f","","4","7","8","false","false","true","both pre & post","LEFT","LEFT","f","1","true","","","",""
"","html-keyboard-response","267","1527817","0.0-412.0","ynq2zrra","1440","900","","","","","","","","","","","null","+","Fixation - short","","null","","","","","","","","","","","","","","","","",""
"","canvas-keyboard-response","268","1529069","0.0-413.0","ynq2zrra","","","","","","","","","","","","","null","Cue","Cue","","null","","4","7","","","false","","","","","","","","","","",""
"","html-keyboard-response","269","1529822","0.0-414.0","ynq2zrra","1440","900","","","","","","","","","","","null","+","Fixation - short","","null","","","","","","","","","","","","","","","","",""
"","html-keyboard-response","270","1530373","0.0-415.0","ynq2zrra","","","","","","","","","","","","","550","wab","diagnostic trial","","f","","4","8","8","true","false","true","both pre & post","LEFT","LEFT","f","1","true","","","",""
"","html-keyboard-response","271","1531126","0.0-418.0","ynq2zrra","1440","900","","","","","","","","","","","null","+","Fixation - short","","null","","","","","","","","","","","","","","","","",""
"","html-keyboard-response","272","1531616","0.0-419.0","ynq2zrra","","","","","","","","","","","","","489","wwt","diagnostic trial","","f","","4","9","8","true","false","false","both pre & post","RIGHT","RIGHT","j","0","true","","","",""
"","call-function","273","1531616","0.0-421.0-0.0","ynq2zrra","","","","","","","","","","","","","","","","","","","","","","","","","","","","","","","","","",""
"","html-keyboard-response","274","1531919","0.0-421.0-1.0","ynq2zrra","1440","900","","","","","","","","","","","null","Wrong","Feedback","","null","","","","","","","","","","","","","","","","",""
"","call-function","275","1531920","0.0-421.0-2.0","ynq2zrra","","","","","","","","","","","","","","","","","","","","","","","","","","","","","","","","","",""
"","html-keyboard-response","276","1532673","0.0-422.0","ynq2zrra","1440","900","","","","","","","","","","","null","+","Fixation - short","","null","","","","","","","","","","","","","","","","",""
"","html-keyboard-response","277","1533316","0.0-423.0","ynq2zrra","","","","","","","","","","","","","643","wwt","diagnostic trial","","j","","4","10","8","true","false","true","both pre & post","RIGHT","LEFT","f","0","false","","","",""
"","call-function","278","1533317","0.0-425.0-0.0","ynq2zrra","","","","","","","","","","","","","","","","","","","","","","","","","","","","","","","","","",""
"","html-keyboard-response","279","1533619","0.0-425.0-1.0","ynq2zrra","1440","900","","","","","","","","","","","null","Wrong","Feedback","","null","","","","","","","","","","","","","","","","",""
"","call-function","280","1533620","0.0-425.0-2.0","ynq2zrra","","","","","","","","","","","","","","","","","","","","","","","","","","","","","","","","","",""
"","html-keyboard-response","281","1534372","0.0-426.0","ynq2zrra","1440","900","","","","","","","","","","","null","+","Fixation - short","","null","","","","","","","","","","","","","","","","",""
"","html-keyboard-response","282","1535245","0.0-427.0","ynq2zrra","","","","","","","","","","","","","872","wab","diagnostic trial","","f","","4","11","8","true","false","true","both pre & post","LEFT","LEFT","f","1","true","","","",""
"","html-keyboard-response","283","1535997","0.0-430.0","ynq2zrra","1440","900","","","","","","","","","","","null","+","Fixation - short","","null","","","","","","","","","","","","","","","","",""
"","html-keyboard-response","284","1537257","0.0-431.0","ynq2zrra","","","","","","","","","","","","","1258","wab","inducer trial","","f","","4","","","","true","","","","","f","1","","false","LEFT","",""
"","html-keyboard-response","285","1538009","0.0-434.0","ynq2zrra","1440","900","","","","","","","","","","","null","+","Fixation - short","","null","","","","","","","","","","","","","","","","",""
"","html-keyboard-response","286","1543141","0.0-435.0","ynq2zrra","","","","","","","","","","","","","5130","If pcm press LEFT | If amb press RIGHT","inducer instructions",""," ","","5","","","","","","","","","","","","","","",""
"","html-keyboard-response","287","1543894","0.0-436.0","ynq2zrra","1440","900","","","","","","","","","","","null","+","Fixation - short","","null","","","","","","","","","","","","","","","","",""
"","html-keyboard-response","288","1544709","0.0-437.0","ynq2zrra","","","","","","","","","","","","","814","amb","diagnostic trial","","f","","5","0","9","false","false","true","both pre & post","RIGHT","LEFT","f","1","false","","","",""
"","html-keyboard-response","289","1545461","0.0-440.0","ynq2zrra","1440","900","","","","","","","","","","","null","+","Fixation - short","","null","","","","","","","","","","","","","","","","",""
"","html-keyboard-response","290","1545967","0.0-441.0","ynq2zrra","","","","","","","","","","","","","505","amb","diagnostic trial","","f","","5","1","9","false","false","true","both pre & post","RIGHT","LEFT","f","1","false","","","",""
"","html-keyboard-response","291","1546719","0.0-444.0","ynq2zrra","1440","900","","","","","","","","","","","null","+","Fixation - short","","null","","","","","","","","","","","","","","","","",""
"","html-keyboard-response","292","1547293","0.0-445.0","ynq2zrra","","","","","","","","","","","","","573","pcm","diagnostic trial","","f","","5","2","9","false","false","false","both pre & post","LEFT","RIGHT","j","0","false","","","",""
"","call-function","293","1547294","0.0-447.0-0.0","ynq2zrra","","","","","","","","","","","","","","","","","","","","","","","","","","","","","","","","","",""
"","html-keyboard-response","294","1547596","0.0-447.0-1.0","ynq2zrra","1440","900","","","","","","","","","","","null","Wrong","Feedback","","null","","","","","","","","","","","","","","","","",""
"","call-function","295","1547596","0.0-447.0-2.0","ynq2zrra","","","","","","","","","","","","","","","","","","","","","","","","","","","","","","","","","",""
"","html-keyboard-response","296","1548349","0.0-448.0","ynq2zrra","1440","900","","","","","","","","","","","null","+","Fixation - short","","null","","","","","","","","","","","","","","","","",""
"","html-keyboard-response","297","1549160","0.0-449.0","ynq2zrra","","","","","","","","","","","","","810","pcm","diagnostic trial","","f","","5","3","9","false","false","false","both pre & post","LEFT","RIGHT","j","0","false","","","",""
"","call-function","298","1549160","0.0-451.0-0.0","ynq2zrra","","","","","","","","","","","","","","","","","","","","","","","","","","","","","","","","","",""
"","html-keyboard-response","299","1549463","0.0-451.0-1.0","ynq2zrra","1440","900","","","","","","","","","","","null","Wrong","Feedback","","null","","","","","","","","","","","","","","","","",""
"","call-function","300","1549463","0.0-451.0-2.0","ynq2zrra","","","","","","","","","","","","","","","","","","","","","","","","","","","","","","","","","",""
"","html-keyboard-response","301","1550216","0.0-452.0","ynq2zrra","1440","900","","","","","","","","","","","null","+","Fixation - short","","null","","","","","","","","","","","","","","","","",""
"","html-keyboard-response","302","1550941","0.0-453.0","ynq2zrra","","","","","","","","","","","","","724","amb","diagnostic trial","","f","","5","4","9","false","false","true","both pre & post","RIGHT","LEFT","f","1","false","","","",""
"","html-keyboard-response","303","1551693","0.0-456.0","ynq2zrra","1440","900","","","","","","","","","","","null","+","Fixation - short","","null","","","","","","","","","","","","","","","","",""
"","html-keyboard-response","304","1552645","0.0-457.0","ynq2zrra","","","","","","","","","","","","","951","pcm","diagnostic trial","","j","","5","5","9","false","false","true","both pre & post","LEFT","LEFT","f","0","true","","","",""
"","call-function","305","1552645","0.0-459.0-0.0","ynq2zrra","","","","","","","","","","","","","","","","","","","","","","","","","","","","","","","","","",""
"","html-keyboard-response","306","1552948","0.0-459.0-1.0","ynq2zrra","1440","900","","","","","","","","","","","null","Wrong","Feedback","","null","","","","","","","","","","","","","","","","",""
"","call-function","307","1552948","0.0-459.0-2.0","ynq2zrra","","","","","","","","","","","","","","","","","","","","","","","","","","","","","","","","","",""
"","html-keyboard-response","308","1553701","0.0-460.0","ynq2zrra","1440","900","","","","","","","","","","","null","+","Fixation - short","","null","","","","","","","","","","","","","","","","",""
"","html-keyboard-response","309","1555095","0.0-461.0","ynq2zrra","","","","","","","","","","","","","1394","pcm","diagnostic trial","","j","","5","6","9","false","false","false","both pre & post","LEFT","RIGHT","j","1","false","","","",""
"","html-keyboard-response","310","1555848","0.0-464.0","ynq2zrra","1440","900","","","","","","","","","","","null","+","Fixation - short","","null","","","","","","","","","","","","","","","","",""
"","html-keyboard-response","311","1556525","0.0-465.0","ynq2zrra","","","","","","","","","","","","","676","amb","diagnostic trial","","f","","5","7","9","false","false","true","both pre & post","RIGHT","LEFT","f","1","false","","","",""
"","html-keyboard-response","312","1557277","0.0-468.0","ynq2zrra","1440","900","","","","","","","","","","","null","+","Fixation - short","","null","","","","","","","","","","","","","","","","",""
"","html-keyboard-response","313","1558640","0.0-469.0","ynq2zrra","","","","","","","","","","","","","1362","pcm","diagnostic trial","","f","","5","8","9","false","false","true","both pre & post","LEFT","LEFT","f","1","true","","","",""
"","html-keyboard-response","314","1559392","0.0-472.0","ynq2zrra","1440","900","","","","","","","","","","","null","+","Fixation - short","","null","","","","","","","","","","","","","","","","",""
"","canvas-keyboard-response","315","1560645","0.0-473.0","ynq2zrra","","","","","","","","","","","","","null","Cue","Cue","","null","","5","8","","","false","","","","","","","","","","",""
"","html-keyboard-response","316","1561396","0.0-474.0","ynq2zrra","1440","900","","","","","","","","","","","null","+","Fixation - short","","null","","","","","","","","","","","","","","","","",""
"","html-keyboard-response","317","1562269","0.0-475.0","ynq2zrra","","","","","","","","","","","","","872","amb","diagnostic trial","","j","","5","9","9","true","false","false","both pre & post","RIGHT","RIGHT","j","1","true","","","",""
"","html-keyboard-response","318","1563020","0.0-478.0","ynq2zrra","1440","900","","","","","","","","","","","null","+","Fixation - short","","null","","","","","","","","","","","","","","","","",""
"","html-keyboard-response","319","1563952","0.0-479.0","ynq2zrra","","","","","","","","","","","","","931","amb","inducer trial","","j","","5","","","","true","","","","","j","1","","false","RIGHT","",""
"","html-keyboard-response","320","1564704","0.0-482.0","ynq2zrra","1440","900","","","","","","","","","","","null","+","Fixation - short","","null","","","","","","","","","","","","","","","","",""
"","html-keyboard-response","321","1568411","0.0-483.0","ynq2zrra","","","","","","","","","","","","","3706","If yrp press LEFT | If uus press RIGHT","inducer instructions",""," ","","6","","","","","","","","","","","","","","",""
"","html-keyboard-response","322","1569163","0.0-484.0","ynq2zrra","1440","900","","","","","","","","","","","null","+","Fixation - short","","null","","","","","","","","","","","","","","","","",""
"","html-keyboard-response","323","1570060","0.0-485.0","ynq2zrra","","","","","","","","","","","","","896","yrp","diagnostic trial","","f","","6","0","5","false","false","false","both pre & post","LEFT","RIGHT","j","0","false","","","",""
"","call-function","324","1570061","0.0-487.0-0.0","ynq2zrra","","","","","","","","","","","","","","","","","","","","","","","","","","","","","","","","","",""
"","html-keyboard-response","325","1570363","0.0-487.0-1.0","ynq2zrra","1440","900","","","","","","","","","","","null","Wrong","Feedback","","null","","","","","","","","","","","","","","","","",""
"","call-function","326","1570364","0.0-487.0-2.0","ynq2zrra","","","","","","","","","","","","","","","","","","","","","","","","","","","","","","","","","",""
"","html-keyboard-response","327","1571117","0.0-488.0","ynq2zrra","1440","900","","","","","","","","","","","null","+","Fixation - short","","null","","","","","","","","","","","","","","","","",""
"","html-keyboard-response","328","1573119","0.0-489.0","ynq2zrra","","","","","","","","","","","","","null","uus","diagnostic trial","","null","","6","1","5","false","false","true","both pre & post","RIGHT","LEFT","f","NaN","false","","","",""
"","call-function","329","1573121","0.0-490.0-0.0","ynq2zrra","","","","","","","","","","","","","","","","","","","","","","","","","","","","","","","","","",""
"","html-keyboard-response","330","1573424","0.0-490.0-1.0","ynq2zrra","1440","900","","","","","","","","","","","null","Slow","Feedback","","null","","","","","","","","","","","","","","","","",""
"","call-function","331","1573424","0.0-490.0-2.0","ynq2zrra","","","","","","","","","","","","","","","","","","","","","","","","","","","","","","","","","",""
"","html-keyboard-response","332","1574177","0.0-492.0","ynq2zrra","1440","900","","","","","","","","","","","null","+","Fixation - short","","null","","","","","","","","","","","","","","","","",""
"","html-keyboard-response","333","1575021","0.0-493.0","ynq2zrra","","","","","","","","","","","","","843","uus","diagnostic trial","","j","","6","2","5","false","false","false","both pre & post","RIGHT","RIGHT","j","1","true","","","",""
"","html-keyboard-response","334","1575773","0.0-496.0","ynq2zrra","1440","900","","","","","","","","","","","null","+","Fixation - short","","null","","","","","","","","","","","","","","","","",""
"","html-keyboard-response","335","1576327","0.0-497.0","ynq2zrra","","","","","","","","","","","","","554","uus","diagnostic trial","","j","","6","3","5","false","false","false","both pre & post","RIGHT","RIGHT","j","1","true","","","",""
"","html-keyboard-response","336","1577080","0.0-500.0","ynq2zrra","1440","900","","","","","","","","","","","null","+","Fixation - short","","null","","","","","","","","","","","","","","","","",""
"","html-keyboard-response","337","1577731","0.0-501.0","ynq2zrra","","","","","","","","","","","","","651","uus","diagnostic trial","","f","","6","4","5","false","false","true","both pre & post","RIGHT","LEFT","f","1","false","","","",""
"","html-keyboard-response","338","1578484","0.0-504.0","ynq2zrra","1440","900","","","","","","","","","","","null","+","Fixation - short","","null","","","","","","","","","","","","","","","","",""
"","canvas-keyboard-response","339","1579737","0.0-505.0","ynq2zrra","","","","","","","","","","","","","null","Cue","Cue","","null","","6","4","","","false","","","","","","","","","","",""
"","html-keyboard-response","340","1580490","0.0-506.0","ynq2zrra","1440","900","","","","","","","","","","","null","+","Fixation - short","","null","","","","","","","","","","","","","","","","",""
"","html-keyboard-response","341","1581701","0.0-507.0","ynq2zrra","","","","","","","","","","","","","1210","uus","inducer trial","","j","","6","","","","true","","","","","j","1","","false","RIGHT","",""
"","html-keyboard-response","342","1582454","0.0-510.0","ynq2zrra","1440","900","","","","","","","","","","","null","+","Fixation - short","","null","","","","","","","","","","","","","","","","",""
"","html-keyboard-response","343","1586837","0.0-511.0","ynq2zrra","","","","","","","","","","","","","4382","If ois press LEFT | If anz press RIGHT","inducer instructions",""," ","","7","","","","","","","","","","","","","","",""
"","html-keyboard-response","344","1587589","0.0-512.0","ynq2zrra","1440","900","","","","","","","","","","","null","+","Fixation - short","","null","","","","","","","","","","","","","","","","",""
"","html-keyboard-response","345","1588469","0.0-513.0","ynq2zrra","","","","","","","","","","","","","878","anz","diagnostic trial","","f","","7","0","4","false","false","true","both pre & post","RIGHT","LEFT","f","1","false","","","",""
"","html-keyboard-response","346","1589221","0.0-516.0","ynq2zrra","1440","900","","","","","","","","","","","null","+","Fixation - short","","null","","","","","","","","","","","","","","","","",""
"","html-keyboard-response","347","1590416","0.0-517.0","ynq2zrra","","","","","","","","","","","","","1194","ois","diagnostic trial","","f","","7","1","4","false","false","false","both pre & post","LEFT","RIGHT","j","0","false","","","",""
"","call-function","348","1590416","0.0-519.0-0.0","ynq2zrra","","","","","","","","","","","","","","","","","","","","","","","","","","","","","","","","","",""
"","html-keyboard-response","349","1590717","0.0-519.0-1.0","ynq2zrra","1440","900","","","","","","","","","","","null","Wrong","Feedback","","null","","","","","","","","","","","","","","","","",""
"","call-function","350","1590718","0.0-519.0-2.0","ynq2zrra","","","","","","","","","","","","","","","","","","","","","","","","","","","","","","","","","",""
"","html-keyboard-response","351","1591470","0.0-520.0","ynq2zrra","1440","900","","","","","","","","","","","null","+","Fixation - short","","null","","","","","","","","","","","","","","","","",""
"","html-keyboard-response","352","1592573","0.0-521.0","ynq2zrra","","","","","","","","","","","","","1102","ois","diagnostic trial","","f","","7","2","4","false","false","true","both pre & post","LEFT","LEFT","f","1","true","","","",""
"","html-keyboard-response","353","1593326","0.0-524.0","ynq2zrra","1440","900","","","","","","","","","","","null","+","Fixation - short","","null","","","","","","","","","","","","","","","","",""
"","html-keyboard-response","354","1594004","0.0-525.0","ynq2zrra","","","","","","","","","","","","","677","anz","diagnostic trial","","j","","7","3","4","false","false","false","both pre & post","RIGHT","RIGHT","j","1","true","","","",""
"","html-keyboard-response","355","1594756","0.0-528.0","ynq2zrra","1440","900","","","","","","","","","","","null","+","Fixation - short","","null","","","","","","","","","","","","","","","","",""
"","canvas-keyboard-response","356","1596009","0.0-529.0","ynq2zrra","","","","","","","","","","","","","null","Cue","Cue","","null","","7","3","","","false","","","","","","","","","","",""
"","html-keyboard-response","357","1596760","0.0-530.0","ynq2zrra","1440","900","","","","","","","","","","","null","+","Fixation - short","","null","","","","","","","","","","","","","","","","",""
"","html-keyboard-response","358","1597613","0.0-531.0","ynq2zrra","","","","","","","","","","","","","852","ois","diagnostic trial","","f","","7","4","4","true","false","true","both pre & post","LEFT","LEFT","f","1","true","","","",""
"","html-keyboard-response","359","1598366","0.0-534.0","ynq2zrra","1440","900","","","","","","","","","","","null","+","Fixation - short","","null","","","","","","","","","","","","","","","","",""
"","html-keyboard-response","360","1598901","0.0-535.0","ynq2zrra","","","","","","","","","","","","","534","anz","diagnostic trial","","j","","7","5","4","true","false","false","both pre & post","RIGHT","RIGHT","j","1","true","","","",""
"","html-keyboard-response","361","1599652","0.0-538.0","ynq2zrra","1440","900","","","","","","","","","","","null","+","Fixation - short","","null","","","","","","","","","","","","","","","","",""
"","html-keyboard-response","362","1600366","0.0-539.0","ynq2zrra","","","","","","","","","","","","","712","ois","diagnostic trial","","j","","7","6","4","true","false","false","both pre & post","LEFT","RIGHT","j","1","false","","","",""
"","html-keyboard-response","363","1601118","0.0-542.0","ynq2zrra","1440","900","","","","","","","","","","","null","+","Fixation - short","","null","","","","","","","","","","","","","","","","",""
"","html-keyboard-response","364","1601789","0.0-543.0","ynq2zrra","","","","","","","","","","","","","670","ois","diagnostic trial","","f","","7","7","4","true","false","true","both pre & post","LEFT","LEFT","f","1","true","","","",""
"","html-keyboard-response","365","1602541","0.0-546.0","ynq2zrra","1440","900","","","","","","","","","","","null","+","Fixation - short","","null","","","","","","","","","","","","","","","","",""
"","html-keyboard-response","366","1603708","0.0-547.0","ynq2zrra","","","","","","","","","","","","","1166","anz","inducer trial","","j","","7","","","","true","","","","","j","1","","false","RIGHT","",""
"","html-keyboard-response","367","1604461","0.0-550.0","ynq2zrra","1440","900","","","","","","","","","","","null","+","Fixation - short","","null","","","","","","","","","","","","","","","","",""
"","html-keyboard-response","368","1612980","0.0-551.0","ynq2zrra","","","","","","","","","","","","","8518","If jft press LEFT | If hfs press RIGHT","inducer instructions",""," ","","8","","","","","","","","","","","","","","",""
"","html-keyboard-response","369","1613733","0.0-552.0","ynq2zrra","1440","900","","","","","","","","","","","null","+","Fixation - short","","null","","","","","","","","","","","","","","","","",""
"","html-keyboard-response","370","1614532","0.0-553.0","ynq2zrra","","","","","","","","","","","","","799","jft","diagnostic trial","","j","","8","0","9","false","false","false","both pre & post","LEFT","RIGHT","j","1","false","","","",""
"","html-keyboard-response","371","1615283","0.0-556.0","ynq2zrra","1440","900","","","","","","","","","","","null","+","Fixation - short","","null","","","","","","","","","","","","","","","","",""
"","html-keyboard-response","372","1616415","0.0-557.0","ynq2zrra","","","","","","","","","","","","","1133","hfs","diagnostic trial","","f","","8","1","9","false","false","false","both pre & post","RIGHT","RIGHT","j","0","true","","","",""
"","call-function","373","1616415","0.0-559.0-0.0","ynq2zrra","","","","","","","","","","","","","","","","","","","","","","","","","","","","","","","","","",""
"","html-keyboard-response","374","1616717","0.0-559.0-1.0","ynq2zrra","1440","900","","","","","","","","","","","null","Wrong","Feedback","","null","","","","","","","","","","","","","","","","",""
"","call-function","375","1616718","0.0-559.0-2.0","ynq2zrra","","","","","","","","","","","","","","","","","","","","","","","","","","","","","","","","","",""
"","html-keyboard-response","376","1617469","0.0-560.0","ynq2zrra","1440","900","","","","","","","","","","","null","+","Fixation - short","","null","","","","","","","","","","","","","","","","",""
"","html-keyboard-response","377","1618023","0.0-561.0","ynq2zrra","","","","","","","","","","","","","553","hfs","diagnostic trial","","j","","8","2","9","false","false","false","both pre & post","RIGHT","RIGHT","j","1","true","","","",""
"","html-keyboard-response","378","1618774","0.0-564.0","ynq2zrra","1440","900","","","","","","","","","","","null","+","Fixation - short","","null","","","","","","","","","","","","","","","","",""
"","html-keyboard-response","379","1619176","0.0-565.0","ynq2zrra","","","","","","","","","","","","","402","hfs","diagnostic trial","","j","","8","3","9","false","false","false","both pre & post","RIGHT","RIGHT","j","1","true","","","",""
"","html-keyboard-response","380","1619928","0.0-568.0","ynq2zrra","1440","900","","","","","","","","","","","null","+","Fixation - short","","null","","","","","","","","","","","","","","","","",""
"","html-keyboard-response","381","1620412","0.0-569.0","ynq2zrra","","","","","","","","","","","","","483","hfs","diagnostic trial","","f","","8","4","9","false","false","true","both pre & post","RIGHT","LEFT","f","1","false","","","",""
"","html-keyboard-response","382","1621164","0.0-572.0","ynq2zrra","1440","900","","","","","","","","","","","null","+","Fixation - short","","null","","","","","","","","","","","","","","","","",""
"","html-keyboard-response","383","1621619","0.0-573.0","ynq2zrra","","","","","","","","","","","","","454","hfs","diagnostic trial","","j","","8","5","9","false","false","false","both pre & post","RIGHT","RIGHT","j","1","true","","","",""
"","html-keyboard-response","384","1622371","0.0-576.0","ynq2zrra","1440","900","","","","","","","","","","","null","+","Fixation - short","","null","","","","","","","","","","","","","","","","",""
"","html-keyboard-response","385","1622770","0.0-577.0","ynq2zrra","","","","","","","","","","","","","398","jft","diagnostic trial","","f","","8","6","9","false","false","true","both pre & post","LEFT","LEFT","f","1","true","","","",""
"","html-keyboard-response","386","1623521","0.0-580.0","ynq2zrra","1440","900","","","","","","","","","","","null","+","Fixation - short","","null","","","","","","","","","","","","","","","","",""
"","html-keyboard-response","387","1624016","0.0-581.0","ynq2zrra","","","","","","","","","","","","","495","hfs","diagnostic trial","","j","","8","7","9","false","false","false","both pre & post","RIGHT","RIGHT","j","1","true","","","",""
"","html-keyboard-response","388","1624767","0.0-584.0","ynq2zrra","1440","900","","","","","","","","","","","null","+","Fixation - short","","null","","","","","","","","","","","","","","","","",""
"","html-keyboard-response","389","1625216","0.0-585.0","ynq2zrra","","","","","","","","","","","","","449","jft","diagnostic trial","","f","","8","8","9","false","false","true","both pre & post","LEFT","LEFT","f","1","true","","","",""
"","html-keyboard-response","390","1625968","0.0-588.0","ynq2zrra","1440","900","","","","","","","","","","","null","+","Fixation - short","","null","","","","","","","","","","","","","","","","",""
"","canvas-keyboard-response","391","1627219","0.0-589.0","ynq2zrra","","","","","","","","","","","","","null","Cue","Cue","","null","","8","8","","","false","","","","","","","","","","",""
"","html-keyboard-response","392","1627972","0.0-590.0","ynq2zrra","1440","900","","","","","","","","","","","null","+","Fixation - short","","null","","","","","","","","","","","","","","","","",""
"","html-keyboard-response","393","1628653","0.0-591.0","ynq2zrra","","","","","","","","","","","","","681","jft","diagnostic trial","","j","","8","9","9","true","false","false","both pre & post","LEFT","RIGHT","j","1","false","","","",""
"","html-keyboard-response","394","1629405","0.0-594.0","ynq2zrra","1440","900","","","","","","","","","","","null","+","Fixation - short","","null","","","","","","","","","","","","","","","","",""
"","html-keyboard-response","395","1629909","0.0-595.0","ynq2zrra","","","","","","","","","","","","","503","jft","diagnostic trial","","f","","8","10","9","true","false","true","both pre & post","LEFT","LEFT","f","1","true","","","",""
"","html-keyboard-response","396","1630661","0.0-598.0","ynq2zrra","1440","900","","","","","","","","","","","null","+","Fixation - short","","null","","","","","","","","","","","","","","","","",""
"","html-keyboard-response","397","1631188","0.0-599.0","ynq2zrra","","","","","","","","","","","","","526","hfs","diagnostic trial","","j","","8","11","9","true","false","true","both pre & post","RIGHT","LEFT","f","0","false","","","",""
"","call-function","398","1631188","0.0-601.0-0.0","ynq2zrra","","","","","","","","","","","","","","","","","","","","","","","","","","","","","","","","","",""
"","html-keyboard-response","399","1631491","0.0-601.0-1.0","ynq2zrra","1440","900","","","","","","","","","","","null","Wrong","Feedback","","null","","","","","","","","","","","","","","","","",""
"","call-function","400","1631491","0.0-601.0-2.0","ynq2zrra","","","","","","","","","","","","","","","","","","","","","","","","","","","","","","","","","",""
"","html-keyboard-response","401","1632244","0.0-602.0","ynq2zrra","1440","900","","","","","","","","","","","null","+","Fixation - short","","null","","","","","","","","","","","","","","","","",""
"","html-keyboard-response","402","1633062","0.0-603.0","ynq2zrra","","","","","","","","","","","","","818","jft","diagnostic trial","","j","","8","12","9","true","false","false","both pre & post","LEFT","RIGHT","j","1","false","","","",""
"","html-keyboard-response","403","1633814","0.0-606.0","ynq2zrra","1440","900","","","","","","","","","","","null","+","Fixation - short","","null","","","","","","","","","","","","","","","","",""
"","html-keyboard-response","404","1634627","0.0-607.0","ynq2zrra","","","","","","","","","","","","","812","jft","inducer trial","","j","","8","","","","true","","","","","f","0","","false","LEFT","",""
"","call-function","405","1634627","0.0-609.0-0.0","ynq2zrra","","","","","","","","","","","","","","","","","","","","","","","","","","","","","","","","","",""
"","html-keyboard-response","406","1634929","0.0-609.0-1.0","ynq2zrra","1440","900","","","","","","","","","","","null","Wrong","Feedback","","null","","","","","","","","","","","","","","","","",""
"","call-function","407","1634930","0.0-609.0-2.0","ynq2zrra","","","","","","","","","","","","","","","","","","","","","","","","","","","","","","","","","",""
"","html-keyboard-response","408","1635682","0.0-610.0","ynq2zrra","1440","900","","","","","","","","","","","null","+","Fixation - short","","null","","","","","","","","","","","","","","","","",""
"","html-keyboard-response","409","1640920","0.0-611.0","ynq2zrra","","","","","","","","","","","","","5240","If slu press LEFT | If jlm press RIGHT","inducer instructions",""," ","","9","","","","","","","","","","","","","","",""
"","html-keyboard-response","410","1641673","0.0-612.0","ynq2zrra","1440","900","","","","","","","","","","","null","+","Fixation - short","","null","","","","","","","","","","","","","","","","",""
"","html-keyboard-response","411","1642520","0.0-613.0","ynq2zrra","","","","","","","","","","","","","846","slu","diagnostic trial","","f","","9","0","7","false","false","true","both pre & post","LEFT","LEFT","f","1","true","","","",""
"","html-keyboard-response","412","1643272","0.0-616.0","ynq2zrra","1440","900","","","","","","","","","","","null","+","Fixation - short","","null","","","","","","","","","","","","","","","","",""
"","html-keyboard-response","413","1643735","0.0-617.0","ynq2zrra","","","","","","","","","","","","","462","jlm","diagnostic trial","","j","","9","1","7","false","false","false","both pre & post","RIGHT","RIGHT","j","1","true","","","",""
"","html-keyboard-response","414","1644488","0.0-620.0","ynq2zrra","1440","900","","","","","","","","","","","null","+","Fixation - short","","null","","","","","","","","","","","","","","","","",""
"","html-keyboard-response","415","1645122","0.0-621.0","ynq2zrra","","","","","","","","","","","","","634","jlm","diagnostic trial","","j","","9","2","7","false","false","false","both pre & post","RIGHT","RIGHT","j","1","true","","","",""
"","html-keyboard-response","416","1645875","0.0-624.0","ynq2zrra","1440","900","","","","","","","","","","","null","+","Fixation - short","","null","","","","","","","","","","","","","","","","",""
"","html-keyboard-response","417","1646343","0.0-625.0","ynq2zrra","","","","","","","","","","","","","467","slu","diagnostic trial","","f","","9","3","7","false","false","true","both pre & post","LEFT","LEFT","f","1","true","","","",""
"","html-keyboard-response","418","1647094","0.0-628.0","ynq2zrra","1440","900","","","","","","","","","","","null","+","Fixation - short","","null","","","","","","","","","","","","","","","","",""
"","html-keyboard-response","419","1647462","0.0-629.0","ynq2zrra","","","","","","","","","","","","","368","jlm","diagnostic trial","","j","","9","4","7","false","false","false","both pre & post","RIGHT","RIGHT","j","1","true","","","",""
"","html-keyboard-response","420","1648215","0.0-632.0","ynq2zrra","1440","900","","","","","","","","","","","null","+","Fixation - short","","null","","","","","","","","","","","","","","","","",""
"","html-keyboard-response","421","1648686","0.0-633.0","ynq2zrra","","","","","","","","","","","","","470","slu","diagnostic trial","","f","","9","5","7","false","false","true","both pre & post","LEFT","LEFT","f","1","true","","","",""
"","html-keyboard-response","422","1649439","0.0-636.0","ynq2zrra","1440","900","","","","","","","","","","","null","+","Fixation - short","","null","","","","","","","","","","","","","","","","",""
"","html-keyboard-response","423","1649918","0.0-637.0","ynq2zrra","","","","","","","","","","","","","479","jlm","diagnostic trial","","j","","9","6","7","false","false","false","both pre & post","RIGHT","RIGHT","j","1","true","","","",""
"","html-keyboard-response","424","1650671","0.0-640.0","ynq2zrra","1440","900","","","","","","","","","","","null","+","Fixation - short","","null","","","","","","","","","","","","","","","","",""
"","canvas-keyboard-response","425","1651924","0.0-641.0","ynq2zrra","","","","","","","","","","","","","null","Cue","Cue","","null","","9","6","","","false","","","","","","","","","","",""
"","html-keyboard-response","426","1652676","0.0-642.0","ynq2zrra","1440","900","","","","","","","","","","","null","+","Fixation - short","","null","","","","","","","","","","","","","","","","",""
"","html-keyboard-response","427","1653398","0.0-643.0","ynq2zrra","","","","","","","","","","","","","721","slu","diagnostic trial","","f","","9","7","7","true","false","false","both pre & post","LEFT","RIGHT","j","0","false","","","",""
"","call-function","428","1653399","0.0-645.0-0.0","ynq2zrra","","","","","","","","","","","","","","","","","","","","","","","","","","","","","","","","","",""
"","html-keyboard-response","429","1653700","0.0-645.0-1.0","ynq2zrra","1440","900","","","","","","","","","","","null","Wrong","Feedback","","null","","","","","","","","","","","","","","","","",""
"","call-function","430","1653700","0.0-645.0-2.0","ynq2zrra","","","","","","","","","","","","","","","","","","","","","","","","","","","","","","","","","",""
"","html-keyboard-response","431","1654453","0.0-646.0","ynq2zrra","1440","900","","","","","","","","","","","null","+","Fixation - short","","null","","","","","","","","","","","","","","","","",""
"","html-keyboard-response","432","1655756","0.0-647.0","ynq2zrra","","","","","","","","","","","","","1302","jlm","diagnostic trial","","j","","9","8","7","true","false","true","both pre & post","RIGHT","LEFT","f","0","false","","","",""
"","call-function","433","1655756","0.0-649.0-0.0","ynq2zrra","","","","","","","","","","","","","","","","","","","","","","","","","","","","","","","","","",""
"","html-keyboard-response","434","1656059","0.0-649.0-1.0","ynq2zrra","1440","900","","","","","","","","","","","null","Wrong","Feedback","","null","","","","","","","","","","","","","","","","",""
"","call-function","435","1656060","0.0-649.0-2.0","ynq2zrra","","","","","","","","","","","","","","","","","","","","","","","","","","","","","","","","","",""
"","html-keyboard-response","436","1656811","0.0-650.0","ynq2zrra","1440","900","","","","","","","","","","","null","+","Fixation - short","","null","","","","","","","","","","","","","","","","",""
"","html-keyboard-response","437","1657997","0.0-651.0","ynq2zrra","","","","","","","","","","","","","1185","jlm","diagnostic trial","","f","","9","9","7","true","false","true","both pre & post","RIGHT","LEFT","f","1","false","","","",""
"","html-keyboard-response","438","1658748","0.0-654.0","ynq2zrra","1440","900","","","","","","","","","","","null","+","Fixation - short","","null","","","","","","","","","","","","","","","","",""
"","html-keyboard-response","439","1659208","0.0-655.0","ynq2zrra","","","","","","","","","","","","","459","jlm","diagnostic trial","","f","","9","10","7","true","false","true","both pre & post","RIGHT","LEFT","f","1","false","","","",""
"","html-keyboard-response","440","1659960","0.0-658.0","ynq2zrra","1440","900","","","","","","","","","","","null","+","Fixation - short","","null","","","","","","","","","","","","","","","","",""
"","html-keyboard-response","441","1660949","0.0-659.0","ynq2zrra","","","","","","","","","","","","","987","slu","inducer trial","","f","","9","","","","true","","","","","f","1","","false","LEFT","",""
"","html-keyboard-response","442","1661700","0.0-662.0","ynq2zrra","1440","900","","","","","","","","","","","null","+","Fixation - short","","null","","","","","","","","","","","","","","","","",""
"","call-function","443","1661701","0.0-663.0","ynq2zrra","","","","","","","","","","","","","","","","","","","","","","","","","","","","","","","","","",""
"","survey","444","2646990","0.0-664.0","ynq2zrra","","","","","","","","","","","","","985221","feedback","Feedback","","{""strategy_feedback"":""Skjnte etter hvert at det frst bare var  differensiere mellom kursiv og normal tekst, og s fokusere mest p ordet etter hvert (Men det virket ikke som at den strategien funket hele tiden). Tok litt tid  forst hvilken regel som sto hyest p forskjellige tidspunkt, s jeg var slightly usikker p strategien hele tiden (kan ha  gjre med  vre sliten atm, s det er ikke sikkert det er representativt). "",""open_feedback"":""Bittelitt klarere instruksjoner hadde kanskje vrt greit, for det var en gang eller to hvor jeg ikke skjnte hvorfor jeg fikk feil, og ble usikker p strategien.\n\nLitt smpirk fordi ble bedt om feedback:\n\nHelt i starten kunne jeg nske slutten av denne setningen var litt klarere: \n\""In this (experimental) study, we will ask you to complete two categorization tasks in parallel, with instructions for one categorization changing during the task\""\nKanskje sette et punktum etter \""parallel\"", evt \""...complete two categorization tasks at the same time. The instructions for one of the categorization tasks will change during/throughout the study\""\n\nMini-pirk:\nbare legg p en s etter screen i setningen red circle indicate that yellow-colored nonword will appear within a couple of screen\nKanskje en ekstra prverunde p dette og?""}","","","","","","","","","","","","","","","","[]","[{""event"":""blur"",""trial"":2,""time"":625106},{""event"":""focus"",""trial"":2,""time"":844360},{""event"":""blur"",""trial"":2,""time"":879374},{""event"":""focus"",""trial"":2,""time"":918280},{""event"":""fullscreenenter"",""trial"":3,""time"":999971},{""event"":""blur"",""trial"":70,""time"":1264160},{""event"":""focus"",""trial"":70,""time"":1272207},{""event"":""blur"",""trial"":70,""time"":1273516},{""event"":""focus"",""trial"":70,""time"":1291453},{""event"":""blur"",""trial"":70,""time"":1302733},{""event"":""focus"",""trial"":70,""time"":1312106},{""event"":""blur"",""trial"":70,""time"":1314659},{""event"":""focus"",""trial"":70,""time"":1320748},{""event"":""blur"",""trial"":444,""time"":2095471},{""event"":""focus"",""trial"":444,""time"":2113094},{""event"":""blur"",""trial"":444,""time"":2144756},{""event"":""focus"",""trial"":444,""time"":2148143},{""event"":""blur"",""trial"":444,""time"":2180201},{""event"":""focus"",""trial"":444,""time"":2181545},{""event"":""blur"",""trial"":444,""time"":2183048},{""event"":""focus"",""trial"":444,""time"":2213919},{""event"":""blur"",""trial"":444,""time"":2522134},{""event"":""focus"",""trial"":444,""time"":2532232},{""event"":""blur"",""trial"":444,""time"":2540568},{""event"":""focus"",""trial"":444,""time"":2543455}]"
