"value","trial_type","trial_index","time_elapsed","internal_node_id","id","width","height","webaudio","browser","browser_version","mobile","os","fullscreen","vsync_rate","webcam","microphone","view_history","rt","stimulus","trial_info","success","response","exp_parameters","inducer_run","diagnostic_run","cue_num","post_cue","inducer_trial","italic","forced_equal_run","correct_inducer_response_side","correct_diag_response_side","correct_response_key","correct_response","congruent","force_equal","correct_indu_response_side","accuracy","interactive"
"","call-function","0","1","0.0-0.0","nvp313vw","","","","","","","","","","","","","","","","","","","","","","","","","","","","","","","","","",""
"","browser-check","1","1094","0.0-1.0","nvp313vw","1920","955","true","firefox","123.0.0","false","Windows 10","true","60","false","true","","","","","","","","","","","","","","","","","","","","","","",""
"","instructions","2","69173","0.0-2.0","nvp313vw","","","","","","","","","","","","[{""page_index"":0,""viewing_time"":35504},{""page_index"":1,""viewing_time"":25008},{""page_index"":2,""viewing_time"":7568}]","68080","The experiment and consent","The experiment and consent","","","","","","","","","","","","","","","","","","",""
"","fullscreen","3","79952","0.0-3.0","nvp313vw","","","","","","","","","","","","","9774","","Full screen","true","","","","","","","","","","","","","","","","","",""
"","instructions","4","2473254","0.0-4.0","nvp313vw","","","","","","","","","","","","[{""page_index"":0,""viewing_time"":2370644},{""page_index"":1,""viewing_time"":21616}]","2392260","Instructions","Basic overview explanation","","","","","","","","","","","","","","","","","","",""
"","html-keyboard-response","5","2489418","0.0-5.0","nvp313vw","","","","","","","","","","","","","14652","If italic press LEFT | If upright press RIGHT","Diagnostic instructions",""," ","{""debug"":true,""skip_instructions"":false,""skip_practice"":false,""save_local_data"":false,""studu_name"":""exp2_pilot"",""default_background_colour"":""#cccccc"",""wrong_response_colour"":""#d22d2d"",""instruction_delay"":20000,""trial_duration"":2000,""short_fixation"":750,""long_fixation"":1500,""wrong_response_delay"":300,""too_slow_delay"":300,""instruction_font_size"":""24px"",""general_font_size"":""42px"",""fixation_size"":""48px"",""allowed_responses"":[""f"",""j""],""cue_min_length"":0,""cue_max_length"":4,""tot_post_cue_len"":30,""cue_colour"":""yellow"",""cue_shape"":""Triangle"",""cue_size"":70,""cue_duration"":1250,""avg_number_of_cues"":3,""inducer_colour"":""blue"",""number_of_inducers"":10,""pre_cue_italic_forced_equal"":true,""post_cue_italic_forced_equal"":true,""prac_diagnostic_rounds"":16,""prac_inducer_rounds"":6,""prac_cue_rounds"":16,""prac_post_cue_num"":3}","","","","","","","","","","","","","","","",""
"","html-keyboard-response","6","2490181","0.0-6.0","nvp313vw","1920","1080","","","","","","","","","","","null","+","Fixation - short","","null","","","","","","","","","","","","","","","","",""
"","html-keyboard-response","7","2491537","0.0-7.0","nvp313vw","","","","","","","","","","","","","1355","iei","diagnostic practice","","j","","prac","0","-84","true","false","false","prac equal","RIGHT","RIGHT","j","1","true","","","",""
"","html-keyboard-response","8","2492288","0.0-10.0","nvp313vw","1920","1080","","","","","","","","","","","null","+","Fixation - short","","null","","","","","","","","","","","","","","","","",""
"","html-keyboard-response","9","2493081","0.0-11.0","nvp313vw","","","","","","","","","","","","","792","quy","diagnostic practice","","j","","prac","1","-84","true","false","false","prac equal","LEFT","RIGHT","j","1","false","","","",""
"","html-keyboard-response","10","2493840","0.0-14.0","nvp313vw","1920","1080","","","","","","","","","","","null","+","Fixation - short","","null","","","","","","","","","","","","","","","","",""
"","html-keyboard-response","11","2494296","0.0-15.0","nvp313vw","","","","","","","","","","","","","454","quy","diagnostic practice","","j","","prac","2","-84","true","false","false","prac equal","LEFT","RIGHT","j","1","false","","","",""
"","html-keyboard-response","12","2495061","0.0-18.0","nvp313vw","1920","1080","","","","","","","","","","","null","+","Fixation - short","","null","","","","","","","","","","","","","","","","",""
"","html-keyboard-response","13","2495688","0.0-19.0","nvp313vw","","","","","","","","","","","","","626","iei","diagnostic practice","","f","","prac","3","-84","true","false","true","prac equal","RIGHT","LEFT","f","1","false","","","",""
"","html-keyboard-response","14","2496453","0.0-22.0","nvp313vw","1920","1080","","","","","","","","","","","null","+","Fixation - short","","null","","","","","","","","","","","","","","","","",""
"","html-keyboard-response","15","2496872","0.0-23.0","nvp313vw","","","","","","","","","","","","","419","quy","diagnostic practice","","j","","prac","4","-84","true","false","false","prac equal","LEFT","RIGHT","j","1","false","","","",""
"","html-keyboard-response","16","2497689","0.0-26.0","nvp313vw","1920","1080","","","","","","","","","","","null","+","Fixation - short","","null","","","","","","","","","","","","","","","","",""
"","html-keyboard-response","17","2498185","0.0-27.0","nvp313vw","","","","","","","","","","","","","495","quy","diagnostic practice","","f","","prac","5","-84","true","false","true","prac equal","LEFT","LEFT","f","1","true","","","",""
"","html-keyboard-response","18","2498948","0.0-30.0","nvp313vw","1920","1080","","","","","","","","","","","null","+","Fixation - short","","null","","","","","","","","","","","","","","","","",""
"","html-keyboard-response","19","2499456","0.0-31.0","nvp313vw","","","","","","","","","","","","","507","iei","diagnostic practice","","f","","prac","6","-84","true","false","true","prac equal","RIGHT","LEFT","f","1","false","","","",""
"","html-keyboard-response","20","2500210","0.0-34.0","nvp313vw","1920","1080","","","","","","","","","","","null","+","Fixation - short","","null","","","","","","","","","","","","","","","","",""
"","html-keyboard-response","21","2500633","0.0-35.0","nvp313vw","","","","","","","","","","","","","422","iei","diagnostic practice","","f","","prac","7","-84","true","false","true","prac equal","RIGHT","LEFT","f","1","false","","","",""
"","html-keyboard-response","22","2501394","0.0-38.0","nvp313vw","1920","1080","","","","","","","","","","","null","+","Fixation - short","","null","","","","","","","","","","","","","","","","",""
"","html-keyboard-response","23","2501849","0.0-39.0","nvp313vw","","","","","","","","","","","","","453","iei","diagnostic practice","","j","","prac","8","-84","true","false","false","prac equal","RIGHT","RIGHT","j","1","true","","","",""
"","html-keyboard-response","24","2502603","0.0-42.0","nvp313vw","1920","1080","","","","","","","","","","","null","+","Fixation - short","","null","","","","","","","","","","","","","","","","",""
"","html-keyboard-response","25","2503257","0.0-43.0","nvp313vw","","","","","","","","","","","","","653","iei","diagnostic practice","","f","","prac","9","-84","true","false","true","prac equal","RIGHT","LEFT","f","1","false","","","",""
"","html-keyboard-response","26","2504012","0.0-46.0","nvp313vw","1920","1080","","","","","","","","","","","null","+","Fixation - short","","null","","","","","","","","","","","","","","","","",""
"","html-keyboard-response","27","2504801","0.0-47.0","nvp313vw","","","","","","","","","","","","","789","quy","diagnostic practice","","j","","prac","10","-84","true","false","false","prac equal","LEFT","RIGHT","j","1","false","","","",""
"","html-keyboard-response","28","2505553","0.0-50.0","nvp313vw","1920","1080","","","","","","","","","","","null","+","Fixation - short","","null","","","","","","","","","","","","","","","","",""
"","html-keyboard-response","29","2506073","0.0-51.0","nvp313vw","","","","","","","","","","","","","521","quy","diagnostic practice","","j","","prac","11","-84","true","false","false","prac equal","LEFT","RIGHT","j","1","false","","","",""
"","html-keyboard-response","30","2506824","0.0-54.0","nvp313vw","1920","1080","","","","","","","","","","","null","+","Fixation - short","","null","","","","","","","","","","","","","","","","",""
"","html-keyboard-response","31","2507273","0.0-55.0","nvp313vw","","","","","","","","","","","","","448","quy","diagnostic practice","","j","","prac","12","-84","true","false","false","prac equal","LEFT","RIGHT","j","1","false","","","",""
"","html-keyboard-response","32","2508036","0.0-58.0","nvp313vw","1920","1080","","","","","","","","","","","null","+","Fixation - short","","null","","","","","","","","","","","","","","","","",""
"","html-keyboard-response","33","2508481","0.0-59.0","nvp313vw","","","","","","","","","","","","","445","iei","diagnostic practice","","f","","prac","13","-84","true","false","true","prac equal","RIGHT","LEFT","f","1","false","","","",""
"","html-keyboard-response","34","2509242","0.0-62.0","nvp313vw","1920","1080","","","","","","","","","","","null","+","Fixation - short","","null","","","","","","","","","","","","","","","","",""
"","html-keyboard-response","35","2509728","0.0-63.0","nvp313vw","","","","","","","","","","","","","486","quy","diagnostic practice","","f","","prac","14","-84","true","false","true","prac equal","LEFT","LEFT","f","1","true","","","",""
"","html-keyboard-response","36","2510485","0.0-66.0","nvp313vw","1920","1080","","","","","","","","","","","null","+","Fixation - short","","null","","","","","","","","","","","","","","","","",""
"","html-keyboard-response","37","2510944","0.0-67.0","nvp313vw","","","","","","","","","","","","","458","quy","diagnostic practice","","f","","prac","15","-84","true","false","true","prac equal","LEFT","LEFT","f","1","true","","","",""
"","html-keyboard-response","38","2511710","0.0-70.0","nvp313vw","1920","1080","","","","","","","","","","","null","+","Fixation - short","","null","","","","","","","","","","","","","","","","",""
"","instructions","39","2527934","0.0-71.0","nvp313vw","","","","","","","","","","","","[{""page_index"":0,""viewing_time"":16223}]","16223","Instructions","Final experiment explanation","","","","","","","","","","","","","","","","","","",""
"","html-keyboard-response","40","2538182","0.0-72.0","nvp313vw","","","","","","","","","","","","","8739","If ndm press LEFT | If cer press RIGHT","inducer practice",""," ","","prac","","","","","","","","","","","","","","",""
"","html-keyboard-response","41","2538945","0.0-73.0","nvp313vw","1920","1080","","","","","","","","","","","null","+","Fixation - short","","null","","","","","","","","","","","","","","","","",""
"","html-keyboard-response","42","2540065","0.0-74.0","nvp313vw","","","","","","","","","","","","","1119","cer","inducer practice","","j","","prac","","","","true","","","","","j","1","","false","RIGHT","",""
"","html-keyboard-response","43","2540824","0.0-77.0","nvp313vw","1920","1080","","","","","","","","","","","null","+","Fixation - short","","null","","","","","","","","","","","","","","","","",""
"","html-keyboard-response","44","2548409","0.0-78.0","nvp313vw","","","","","","","","","","","","","7585","If sjn press LEFT | If feg press RIGHT","inducer practice",""," ","","prac","","","","","","","","","","","","","","",""
"","html-keyboard-response","45","2549173","0.0-79.0","nvp313vw","1920","1080","","","","","","","","","","","null","+","Fixation - short","","null","","","","","","","","","","","","","","","","",""
"","html-keyboard-response","46","2549904","0.0-80.0","nvp313vw","","","","","","","","","","","","","731","sjn","inducer practice","","f","","prac","","","","true","","","","","f","1","","false","LEFT","",""
"","html-keyboard-response","47","2550657","0.0-83.0","nvp313vw","1920","1080","","","","","","","","","","","null","+","Fixation - short","","null","","","","","","","","","","","","","","","","",""
"","html-keyboard-response","48","2554065","0.0-84.0","nvp313vw","","","","","","","","","","","","","3408","If guf press LEFT | If rbc press RIGHT","inducer practice",""," ","","prac","","","","","","","","","","","","","","",""
"","html-keyboard-response","49","2554819","0.0-85.0","nvp313vw","1920","1080","","","","","","","","","","","null","+","Fixation - short","","null","","","","","","","","","","","","","","","","",""
"","html-keyboard-response","50","2555410","0.0-86.0","nvp313vw","","","","","","","","","","","","","589","guf","inducer practice","","f","","prac","","","","true","","","","","f","1","","false","LEFT","",""
"","html-keyboard-response","51","2556166","0.0-89.0","nvp313vw","1920","1080","","","","","","","","","","","null","+","Fixation - short","","null","","","","","","","","","","","","","","","","",""
"","html-keyboard-response","52","2559040","0.0-90.0","nvp313vw","","","","","","","","","","","","","2874","If rrd press LEFT | If ccx press RIGHT","inducer practice",""," ","","prac","","","","","","","","","","","","","","",""
"","html-keyboard-response","53","2559792","0.0-91.0","nvp313vw","1920","1080","","","","","","","","","","","null","+","Fixation - short","","null","","","","","","","","","","","","","","","","",""
"","html-keyboard-response","54","2560705","0.0-92.0","nvp313vw","","","","","","","","","","","","","913","ccx","inducer practice","","j","","prac","","","","true","","","","","j","1","","false","RIGHT","",""
"","html-keyboard-response","55","2561456","0.0-95.0","nvp313vw","1920","1080","","","","","","","","","","","null","+","Fixation - short","","null","","","","","","","","","","","","","","","","",""
"","html-keyboard-response","56","2564792","0.0-96.0","nvp313vw","","","","","","","","","","","","","3336","If rif press LEFT | If mvv press RIGHT","inducer practice",""," ","","prac","","","","","","","","","","","","","","",""
"","html-keyboard-response","57","2565553","0.0-97.0","nvp313vw","1920","1080","","","","","","","","","","","null","+","Fixation - short","","null","","","","","","","","","","","","","","","","",""
"","html-keyboard-response","58","2566240","0.0-98.0","nvp313vw","","","","","","","","","","","","","686","rif","inducer practice","","f","","prac","","","","true","","","","","f","1","","false","LEFT","",""
"","html-keyboard-response","59","2566993","0.0-101.0","nvp313vw","1920","1080","","","","","","","","","","","null","+","Fixation - short","","null","","","","","","","","","","","","","","","","",""
"","html-keyboard-response","60","2568761","0.0-102.0","nvp313vw","","","","","","","","","","","","","1768","If chy press LEFT | If csp press RIGHT","inducer practice",""," ","","prac","","","","","","","","","","","","","","",""
"","html-keyboard-response","61","2569523","0.0-103.0","nvp313vw","1920","1080","","","","","","","","","","","null","+","Fixation - short","","null","","","","","","","","","","","","","","","","",""
"","html-keyboard-response","62","2570080","0.0-104.0","nvp313vw","","","","","","","","","","","","","556","chy","inducer practice","","f","","prac","","","","true","","","","","f","1","","false","LEFT","",""
"","html-keyboard-response","63","2570841","0.0-107.0","nvp313vw","1920","1080","","","","","","","","","","","null","+","Fixation - short","","null","","","","","","","","","","","","","","","","",""
"","html-keyboard-response","64","2611345","0.0-108.0","nvp313vw","","","","","","","","","","","","","40503","Cue practice","Cue practice",""," ","","","","","","","","","","","","","","","","",""
"","html-keyboard-response","65","2617600","0.0-109.0","nvp313vw","","","","","","","","","","","","","6255","If glp press LEFT | If eeu press RIGHT","cue practice",""," ","","prac","","","","","","","","","","","","","","",""
"","html-keyboard-response","66","2618365","0.0-110.0","nvp313vw","1920","1080","","","","","","","","","","","null","+","Fixation - short","","null","","","","","","","","","","","","","","","","",""
"","html-keyboard-response","67","2619601","0.0-111.0","nvp313vw","","","","","","","","","","","","","1236","eeu","cue practice","","j","","prac","0","13","false","false","true","only pre","RIGHT","LEFT","f","0","false","","","",""
"","call-function","68","2619601","0.0-113.0-0.0","nvp313vw","","","","","","","","","","","","","","","","","","","","","","","","","","","","","","","","","",""
"","html-keyboard-response","69","2619912","0.0-113.0-1.0","nvp313vw","1920","1080","","","","","","","","","","","null","Wrong","Feedback","","null","","","","","","","","","","","","","","","","",""
"","call-function","70","2619913","0.0-113.0-2.0","nvp313vw","","","","","","","","","","","","","","","","","","","","","","","","","","","","","","","","","",""
"","html-keyboard-response","71","2620676","0.0-114.0","nvp313vw","1920","1080","","","","","","","","","","","null","+","Fixation - short","","null","","","","","","","","","","","","","","","","",""
"","html-keyboard-response","72","2621529","0.0-115.0","nvp313vw","","","","","","","","","","","","","852","glp","cue practice","","f","","prac","1","13","false","false","false","only pre","LEFT","RIGHT","j","0","false","","","",""
"","call-function","73","2621529","0.0-117.0-0.0","nvp313vw","","","","","","","","","","","","","","","","","","","","","","","","","","","","","","","","","",""
"","html-keyboard-response","74","2621840","0.0-117.0-1.0","nvp313vw","1920","1080","","","","","","","","","","","null","Wrong","Feedback","","null","","","","","","","","","","","","","","","","",""
"","call-function","75","2621840","0.0-117.0-2.0","nvp313vw","","","","","","","","","","","","","","","","","","","","","","","","","","","","","","","","","",""
"","html-keyboard-response","76","2622602","0.0-118.0","nvp313vw","1920","1080","","","","","","","","","","","null","+","Fixation - short","","null","","","","","","","","","","","","","","","","",""
"","html-keyboard-response","77","2624088","0.0-119.0","nvp313vw","","","","","","","","","","","","","1487","glp","cue practice","","f","","prac","2","13","false","false","true","only pre","LEFT","LEFT","f","1","true","","","",""
"","html-keyboard-response","78","2624839","0.0-122.0","nvp313vw","1920","1080","","","","","","","","","","","null","+","Fixation - short","","null","","","","","","","","","","","","","","","","",""
"","html-keyboard-response","79","2625792","0.0-123.0","nvp313vw","","","","","","","","","","","","","954","eeu","cue practice","","j","","prac","3","13","false","false","","only pre","RIGHT","RIGHT","j","1","true","","","",""
"","html-keyboard-response","80","2626555","0.0-126.0","nvp313vw","1920","1080","","","","","","","","","","","null","+","Fixation - short","","null","","","","","","","","","","","","","","","","",""
"","html-keyboard-response","81","2627466","0.0-127.0","nvp313vw","","","","","","","","","","","","","911","eeu","cue practice","","j","","prac","4","13","false","false","","only pre","RIGHT","RIGHT","j","1","true","","","",""
"","html-keyboard-response","82","2628223","0.0-130.0","nvp313vw","1920","1080","","","","","","","","","","","null","+","Fixation - short","","null","","","","","","","","","","","","","","","","",""
"","html-keyboard-response","83","2628696","0.0-131.0","nvp313vw","","","","","","","","","","","","","474","eeu","cue practice","","j","","prac","5","13","false","false","","only pre","RIGHT","RIGHT","j","1","true","","","",""
"","html-keyboard-response","84","2629455","0.0-134.0","nvp313vw","1920","1080","","","","","","","","","","","null","+","Fixation - short","","null","","","","","","","","","","","","","","","","",""
"","html-keyboard-response","85","2629984","0.0-135.0","nvp313vw","","","","","","","","","","","","","529","eeu","cue practice","","j","","prac","6","13","false","false","","only pre","RIGHT","RIGHT","j","1","true","","","",""
"","html-keyboard-response","86","2630743","0.0-138.0","nvp313vw","1920","1080","","","","","","","","","","","null","+","Fixation - short","","null","","","","","","","","","","","","","","","","",""
"","html-keyboard-response","87","2631193","0.0-139.0","nvp313vw","","","","","","","","","","","","","449","eeu","cue practice","","j","","prac","7","13","false","false","","only pre","RIGHT","RIGHT","j","1","true","","","",""
"","html-keyboard-response","88","2631957","0.0-142.0","nvp313vw","1920","1080","","","","","","","","","","","null","+","Fixation - short","","null","","","","","","","","","","","","","","","","",""
"","html-keyboard-response","89","2632345","0.0-143.0","nvp313vw","","","","","","","","","","","","","388","eeu","cue practice","","j","","prac","8","13","false","false","","only pre","RIGHT","RIGHT","j","1","true","","","",""
"","html-keyboard-response","90","2633102","0.0-146.0","nvp313vw","1920","1080","","","","","","","","","","","null","+","Fixation - short","","null","","","","","","","","","","","","","","","","",""
"","html-keyboard-response","91","2634304","0.0-147.0","nvp313vw","","","","","","","","","","","","","1203","glp","cue practice","","f","","prac","9","13","false","false","","only pre","LEFT","RIGHT","j","0","false","","","",""
"","call-function","92","2634304","0.0-149.0-0.0","nvp313vw","","","","","","","","","","","","","","","","","","","","","","","","","","","","","","","","","",""
"","html-keyboard-response","93","2634607","0.0-149.0-1.0","nvp313vw","1920","1080","","","","","","","","","","","null","Wrong","Feedback","","null","","","","","","","","","","","","","","","","",""
"","call-function","94","2634607","0.0-149.0-2.0","nvp313vw","","","","","","","","","","","","","","","","","","","","","","","","","","","","","","","","","",""
"","html-keyboard-response","95","2635371","0.0-150.0","nvp313vw","1920","1080","","","","","","","","","","","null","+","Fixation - short","","null","","","","","","","","","","","","","","","","",""
"","html-keyboard-response","96","2636658","0.0-151.0","nvp313vw","","","","","","","","","","","","","1285","glp","cue practice","","j","","prac","10","13","false","false","","only pre","LEFT","RIGHT","j","1","false","","","",""
"","html-keyboard-response","97","2637419","0.0-154.0","nvp313vw","1920","1080","","","","","","","","","","","null","+","Fixation - short","","null","","","","","","","","","","","","","","","","",""
"","html-keyboard-response","98","2638336","0.0-155.0","nvp313vw","","","","","","","","","","","","","917","glp","cue practice","","j","","prac","11","13","false","false","","only pre","LEFT","RIGHT","j","1","false","","","",""
"","html-keyboard-response","99","2639089","0.0-158.0","nvp313vw","1920","1080","","","","","","","","","","","null","+","Fixation - short","","null","","","","","","","","","","","","","","","","",""
"","html-keyboard-response","100","2639561","0.0-159.0","nvp313vw","","","","","","","","","","","","","471","glp","cue practice","","j","","prac","12","13","false","false","","only pre","LEFT","RIGHT","j","1","false","","","",""
"","html-keyboard-response","101","2640312","0.0-162.0","nvp313vw","1920","1080","","","","","","","","","","","null","+","Fixation - short","","null","","","","","","","","","","","","","","","","",""
"","canvas-keyboard-response","102","2641569","0.0-163.0","nvp313vw","","","","","","","","","","","","","null","Cue","Cue","","null","","prac","12","","","false","","","","","","","","","","",""
"","html-keyboard-response","103","2642325","0.0-164.0","nvp313vw","1920","1080","","","","","","","","","","","null","+","Fixation - short","","null","","","","","","","","","","","","","","","","",""
"","html-keyboard-response","104","2643400","0.0-165.0","nvp313vw","","","","","","","","","","","","","1075","eeu","cue practice","","j","","prac","13","13","true","false","false","only pre","RIGHT","RIGHT","j","1","true","","","",""
"","html-keyboard-response","105","2644153","0.0-168.0","nvp313vw","1920","1080","","","","","","","","","","","null","+","Fixation - short","","null","","","","","","","","","","","","","","","","",""
"","html-keyboard-response","106","2645448","0.0-169.0","nvp313vw","","","","","","","","","","","","","1296","glp","cue practice","","f","","prac","14","13","true","false","true","only pre","LEFT","LEFT","f","1","true","","","",""
"","html-keyboard-response","107","2646212","0.0-172.0","nvp313vw","1920","1080","","","","","","","","","","","null","+","Fixation - short","","null","","","","","","","","","","","","","","","","",""
"","html-keyboard-response","108","2647361","0.0-173.0","nvp313vw","","","","","","","","","","","","","1149","eeu","cue practice","","j","","prac","15","13","true","false","false","only pre","RIGHT","RIGHT","j","1","true","","","",""
"","html-keyboard-response","109","2648118","0.0-176.0","nvp313vw","1920","1080","","","","","","","","","","","null","+","Fixation - short","","null","","","","","","","","","","","","","","","","",""
"","html-keyboard-response","110","2650121","0.0-177.0","nvp313vw","","","","","","","","","","","","","null","eeu","inducer practice","","null","","prac","","","","true","","","","","j","NaN","","false","RIGHT","",""
"","call-function","111","2650121","0.0-178.0-0.0","nvp313vw","","","","","","","","","","","","","","","","","","","","","","","","","","","","","","","","","",""
"","html-keyboard-response","112","2650432","0.0-178.0-1.0","nvp313vw","1920","1080","","","","","","","","","","","null","Slow","Feedback","","null","","","","","","","","","","","","","","","","",""
"","call-function","113","2650432","0.0-178.0-2.0","nvp313vw","","","","","","","","","","","","","","","","","","","","","","","","","","","","","","","","","",""
"","html-keyboard-response","114","2651191","0.0-180.0","nvp313vw","1920","1080","","","","","","","","","","","null","+","Fixation - short","","null","","","","","","","","","","","","","","","","",""
"","html-keyboard-response","115","2662297","0.0-181.0","nvp313vw","","","","","","","","","","","","","11105","End practice","End of practice",""," ","","","","","","","","","","","","","","","","",""
"","html-keyboard-response","116","2663804","0.0-182.0","nvp313vw","1920","1080","","","","","","","","","","","null","+","Fixation - long","","null","","","","","","","","","","","","","","","","",""
"","html-keyboard-response","117","2669289","0.0-183.0","nvp313vw","","","","","","","","","","","","","5483","If mts press LEFT | If kue press RIGHT","inducer instructions",""," ","","0","","","","","","","","","","","","","","",""
"","html-keyboard-response","118","2670042","0.0-184.0","nvp313vw","1920","1080","","","","","","","","","","","null","+","Fixation - short","","null","","","","","","","","","","","","","","","","",""
"","html-keyboard-response","119","2671097","0.0-185.0","nvp313vw","","","","","","","","","","","","","1056","kue","diagnostic trial","","f","","0","0","6","false","false","true","both pre & post","RIGHT","LEFT","f","1","false","","","",""
"","html-keyboard-response","120","2671851","0.0-188.0","nvp313vw","1920","1080","","","","","","","","","","","null","+","Fixation - short","","null","","","","","","","","","","","","","","","","",""
"","html-keyboard-response","121","2673129","0.0-189.0","nvp313vw","","","","","","","","","","","","","1277","kue","diagnostic trial","","j","","0","1","6","false","false","false","both pre & post","RIGHT","RIGHT","j","1","true","","","",""
"","html-keyboard-response","122","2673889","0.0-192.0","nvp313vw","1920","1080","","","","","","","","","","","null","+","Fixation - short","","null","","","","","","","","","","","","","","","","",""
"","html-keyboard-response","123","2674592","0.0-193.0","nvp313vw","","","","","","","","","","","","","703","kue","diagnostic trial","","j","","0","2","6","false","false","false","both pre & post","RIGHT","RIGHT","j","1","true","","","",""
"","html-keyboard-response","124","2675352","0.0-196.0","nvp313vw","1920","1080","","","","","","","","","","","null","+","Fixation - short","","null","","","","","","","","","","","","","","","","",""
"","html-keyboard-response","125","2676192","0.0-197.0","nvp313vw","","","","","","","","","","","","","839","mts","diagnostic trial","","f","","0","3","6","false","false","true","both pre & post","LEFT","LEFT","f","1","true","","","",""
"","html-keyboard-response","126","2676948","0.0-200.0","nvp313vw","1920","1080","","","","","","","","","","","null","+","Fixation - short","","null","","","","","","","","","","","","","","","","",""
"","html-keyboard-response","127","2677929","0.0-201.0","nvp313vw","","","","","","","","","","","","","981","mts","diagnostic trial","","j","","0","4","6","false","false","false","both pre & post","LEFT","RIGHT","j","1","false","","","",""
"","html-keyboard-response","128","2678688","0.0-204.0","nvp313vw","1920","1080","","","","","","","","","","","null","+","Fixation - short","","null","","","","","","","","","","","","","","","","",""
"","html-keyboard-response","129","2679816","0.0-205.0","nvp313vw","","","","","","","","","","","","","1128","mts","diagnostic trial","","f","","0","5","6","false","false","true","both pre & post","LEFT","LEFT","f","1","true","","","",""
"","html-keyboard-response","130","2680576","0.0-208.0","nvp313vw","1920","1080","","","","","","","","","","","null","+","Fixation - short","","null","","","","","","","","","","","","","","","","",""
"","canvas-keyboard-response","131","2681836","0.0-209.0","nvp313vw","","","","","","","","","","","","","null","Cue","Cue","","null","","0","5","","","false","","","","","","","","","","",""
"","html-keyboard-response","132","2682597","0.0-210.0","nvp313vw","1920","1080","","","","","","","","","","","null","+","Fixation - short","","null","","","","","","","","","","","","","","","","",""
"","html-keyboard-response","133","2683441","0.0-211.0","nvp313vw","","","","","","","","","","","","","844","mts","diagnostic trial","","j","","0","6","6","true","false","false","both pre & post","LEFT","RIGHT","j","1","false","","","",""
"","html-keyboard-response","134","2684192","0.0-214.0","nvp313vw","1920","1080","","","","","","","","","","","null","+","Fixation - short","","null","","","","","","","","","","","","","","","","",""
"","html-keyboard-response","135","2684745","0.0-215.0","nvp313vw","","","","","","","","","","","","","553","mts","diagnostic trial","","f","","0","7","6","true","false","true","both pre & post","LEFT","LEFT","f","1","true","","","",""
"","html-keyboard-response","136","2685509","0.0-218.0","nvp313vw","1920","1080","","","","","","","","","","","null","+","Fixation - short","","null","","","","","","","","","","","","","","","","",""
"","html-keyboard-response","137","2687073","0.0-219.0","nvp313vw","","","","","","","","","","","","","1562","kue","inducer trial","","f","","0","","","","true","","","","","j","0","","false","RIGHT","",""
"","call-function","138","2687073","0.0-221.0-0.0","nvp313vw","","","","","","","","","","","","","","","","","","","","","","","","","","","","","","","","","",""
"","html-keyboard-response","139","2687379","0.0-221.0-1.0","nvp313vw","1920","1080","","","","","","","","","","","null","Wrong","Feedback","","null","","","","","","","","","","","","","","","","",""
"","call-function","140","2687379","0.0-221.0-2.0","nvp313vw","","","","","","","","","","","","","","","","","","","","","","","","","","","","","","","","","",""
"","html-keyboard-response","141","2688144","0.0-222.0","nvp313vw","1920","1080","","","","","","","","","","","null","+","Fixation - short","","null","","","","","","","","","","","","","","","","",""
"","html-keyboard-response","142","2698952","0.0-223.0","nvp313vw","","","","","","","","","","","","","10808","If vbt press LEFT | If otr press RIGHT","inducer instructions",""," ","","1","","","","","","","","","","","","","","",""
"","html-keyboard-response","143","2699704","0.0-224.0","nvp313vw","1920","1080","","","","","","","","","","","null","+","Fixation - short","","null","","","","","","","","","","","","","","","","",""
"","html-keyboard-response","144","2700632","0.0-225.0","nvp313vw","","","","","","","","","","","","","928","vbt","diagnostic trial","","f","","1","0","8","false","false","false","both pre & post","LEFT","RIGHT","j","0","false","","","",""
"","call-function","145","2700632","0.0-227.0-0.0","nvp313vw","","","","","","","","","","","","","","","","","","","","","","","","","","","","","","","","","",""
"","html-keyboard-response","146","2700959","0.0-227.0-1.0","nvp313vw","1920","1080","","","","","","","","","","","null","Wrong","Feedback","","null","","","","","","","","","","","","","","","","",""
"","call-function","147","2700960","0.0-227.0-2.0","nvp313vw","","","","","","","","","","","","","","","","","","","","","","","","","","","","","","","","","",""
"","html-keyboard-response","148","2701714","0.0-228.0","nvp313vw","1920","1080","","","","","","","","","","","null","+","Fixation - short","","null","","","","","","","","","","","","","","","","",""
"","html-keyboard-response","149","2702393","0.0-229.0","nvp313vw","","","","","","","","","","","","","676","vbt","diagnostic trial","","j","","1","1","8","false","false","false","both pre & post","LEFT","RIGHT","j","1","false","","","",""
"","html-keyboard-response","150","2703147","0.0-232.0","nvp313vw","1920","1080","","","","","","","","","","","null","+","Fixation - short","","null","","","","","","","","","","","","","","","","",""
"","html-keyboard-response","151","2704152","0.0-233.0","nvp313vw","","","","","","","","","","","","","1005","vbt","diagnostic trial","","f","","1","2","8","false","false","true","both pre & post","LEFT","LEFT","f","1","true","","","",""
"","html-keyboard-response","152","2704915","0.0-236.0","nvp313vw","1920","1080","","","","","","","","","","","null","+","Fixation - short","","null","","","","","","","","","","","","","","","","",""
"","html-keyboard-response","153","2706162","0.0-237.0","nvp313vw","","","","","","","","","","","","","1247","otr","diagnostic trial","","j","","1","3","8","false","false","true","both pre & post","RIGHT","LEFT","f","0","false","","","",""
"","call-function","154","2706162","0.0-239.0-0.0","nvp313vw","","","","","","","","","","","","","","","","","","","","","","","","","","","","","","","","","",""
"","html-keyboard-response","155","2706476","0.0-239.0-1.0","nvp313vw","1920","1080","","","","","","","","","","","null","Wrong","Feedback","","null","","","","","","","","","","","","","","","","",""
"","call-function","156","2706476","0.0-239.0-2.0","nvp313vw","","","","","","","","","","","","","","","","","","","","","","","","","","","","","","","","","",""
"","html-keyboard-response","157","2707239","0.0-240.0","nvp313vw","1920","1080","","","","","","","","","","","null","+","Fixation - short","","null","","","","","","","","","","","","","","","","",""
"","html-keyboard-response","158","2708553","0.0-241.0","nvp313vw","","","","","","","","","","","","","1314","vbt","diagnostic trial","","j","","1","4","8","false","false","true","both pre & post","LEFT","LEFT","f","0","true","","","",""
"","call-function","159","2708553","0.0-243.0-0.0","nvp313vw","","","","","","","","","","","","","","","","","","","","","","","","","","","","","","","","","",""
"","html-keyboard-response","160","2708854","0.0-243.0-1.0","nvp313vw","1920","1080","","","","","","","","","","","null","Wrong","Feedback","","null","","","","","","","","","","","","","","","","",""
"","call-function","161","2708854","0.0-243.0-2.0","nvp313vw","","","","","","","","","","","","","","","","","","","","","","","","","","","","","","","","","",""
"","html-keyboard-response","162","2709608","0.0-244.0","nvp313vw","1920","1080","","","","","","","","","","","null","+","Fixation - short","","null","","","","","","","","","","","","","","","","",""
"","html-keyboard-response","163","2711105","0.0-245.0","nvp313vw","","","","","","","","","","","","","1495","otr","diagnostic trial","","j","","1","5","8","false","false","true","both pre & post","RIGHT","LEFT","f","0","false","","","",""
"","call-function","164","2711105","0.0-247.0-0.0","nvp313vw","","","","","","","","","","","","","","","","","","","","","","","","","","","","","","","","","",""
"","html-keyboard-response","165","2711420","0.0-247.0-1.0","nvp313vw","1920","1080","","","","","","","","","","","null","Wrong","Feedback","","null","","","","","","","","","","","","","","","","",""
"","call-function","166","2711420","0.0-247.0-2.0","nvp313vw","","","","","","","","","","","","","","","","","","","","","","","","","","","","","","","","","",""
"","html-keyboard-response","167","2712180","0.0-248.0","nvp313vw","1920","1080","","","","","","","","","","","null","+","Fixation - short","","null","","","","","","","","","","","","","","","","",""
"","html-keyboard-response","168","2712945","0.0-249.0","nvp313vw","","","","","","","","","","","","","763","vbt","diagnostic trial","","f","","1","6","8","false","false","true","both pre & post","LEFT","LEFT","f","1","true","","","",""
"","html-keyboard-response","169","2713701","0.0-252.0","nvp313vw","1920","1080","","","","","","","","","","","null","+","Fixation - short","","null","","","","","","","","","","","","","","","","",""
"","html-keyboard-response","170","2714681","0.0-253.0","nvp313vw","","","","","","","","","","","","","979","vbt","diagnostic trial","","j","","1","7","8","false","false","false","both pre & post","LEFT","RIGHT","j","1","false","","","",""
"","html-keyboard-response","171","2715438","0.0-256.0","nvp313vw","1920","1080","","","","","","","","","","","null","+","Fixation - short","","null","","","","","","","","","","","","","","","","",""
"","canvas-keyboard-response","172","2716693","0.0-257.0","nvp313vw","","","","","","","","","","","","","null","Cue","Cue","","null","","1","7","","","false","","","","","","","","","","",""
"","html-keyboard-response","173","2717455","0.0-258.0","nvp313vw","1920","1080","","","","","","","","","","","null","+","Fixation - short","","null","","","","","","","","","","","","","","","","",""
"","html-keyboard-response","174","2718681","0.0-259.0","nvp313vw","","","","","","","","","","","","","1225","vbt","diagnostic trial","","j","","1","8","8","true","false","false","both pre & post","LEFT","RIGHT","j","1","false","","","",""
"","html-keyboard-response","175","2719438","0.0-262.0","nvp313vw","1920","1080","","","","","","","","","","","null","+","Fixation - short","","null","","","","","","","","","","","","","","","","",""
"","html-keyboard-response","176","2720160","0.0-263.0","nvp313vw","","","","","","","","","","","","","721","vbt","diagnostic trial","","j","","1","9","8","true","false","false","both pre & post","LEFT","RIGHT","j","1","false","","","",""
"","html-keyboard-response","177","2720916","0.0-266.0","nvp313vw","1920","1080","","","","","","","","","","","null","+","Fixation - short","","null","","","","","","","","","","","","","","","","",""
"","html-keyboard-response","178","2722281","0.0-267.0","nvp313vw","","","","","","","","","","","","","1363","otr","inducer trial","","f","","1","","","","true","","","","","j","0","","false","RIGHT","",""
"","call-function","179","2722281","0.0-269.0-0.0","nvp313vw","","","","","","","","","","","","","","","","","","","","","","","","","","","","","","","","","",""
"","html-keyboard-response","180","2722594","0.0-269.0-1.0","nvp313vw","1920","1080","","","","","","","","","","","null","Wrong","Feedback","","null","","","","","","","","","","","","","","","","",""
"","call-function","181","2722594","0.0-269.0-2.0","nvp313vw","","","","","","","","","","","","","","","","","","","","","","","","","","","","","","","","","",""
"","html-keyboard-response","182","2723356","0.0-270.0","nvp313vw","1920","1080","","","","","","","","","","","null","+","Fixation - short","","null","","","","","","","","","","","","","","","","",""
"","html-keyboard-response","183","2730824","0.0-271.0","nvp313vw","","","","","","","","","","","","","7468","If ibg press LEFT | If hfs press RIGHT","inducer instructions",""," ","","2","","","","","","","","","","","","","","",""
"","html-keyboard-response","184","2731587","0.0-272.0","nvp313vw","1920","1080","","","","","","","","","","","null","+","Fixation - short","","null","","","","","","","","","","","","","","","","",""
"","html-keyboard-response","185","2732824","0.0-273.0","nvp313vw","","","","","","","","","","","","","1237","ibg","diagnostic trial","","f","","2","0","8","false","false","true","both pre & post","LEFT","LEFT","f","1","true","","","",""
"","html-keyboard-response","186","2733579","0.0-276.0","nvp313vw","1920","1080","","","","","","","","","","","null","+","Fixation - short","","null","","","","","","","","","","","","","","","","",""
"","html-keyboard-response","187","2734592","0.0-277.0","nvp313vw","","","","","","","","","","","","","1014","hfs","diagnostic trial","","j","","2","1","8","false","false","false","both pre & post","RIGHT","RIGHT","j","1","true","","","",""
"","html-keyboard-response","188","2735353","0.0-280.0","nvp313vw","1920","1080","","","","","","","","","","","null","+","Fixation - short","","null","","","","","","","","","","","","","","","","",""
"","html-keyboard-response","189","2736209","0.0-281.0","nvp313vw","","","","","","","","","","","","","855","hfs","diagnostic trial","","j","","2","2","8","false","false","false","both pre & post","RIGHT","RIGHT","j","1","true","","","",""
"","html-keyboard-response","190","2736961","0.0-284.0","nvp313vw","1920","1080","","","","","","","","","","","null","+","Fixation - short","","null","","","","","","","","","","","","","","","","",""
"","html-keyboard-response","191","2737905","0.0-285.0","nvp313vw","","","","","","","","","","","","","943","hfs","diagnostic trial","","f","","2","3","8","false","false","true","both pre & post","RIGHT","LEFT","f","1","false","","","",""
"","html-keyboard-response","192","2738670","0.0-288.0","nvp313vw","1920","1080","","","","","","","","","","","null","+","Fixation - short","","null","","","","","","","","","","","","","","","","",""
"","html-keyboard-response","193","2739352","0.0-289.0","nvp313vw","","","","","","","","","","","","","683","hfs","diagnostic trial","","j","","2","4","8","false","false","false","both pre & post","RIGHT","RIGHT","j","1","true","","","",""
"","html-keyboard-response","194","2740116","0.0-292.0","nvp313vw","1920","1080","","","","","","","","","","","null","+","Fixation - short","","null","","","","","","","","","","","","","","","","",""
"","html-keyboard-response","195","2741297","0.0-293.0","nvp313vw","","","","","","","","","","","","","1181","ibg","diagnostic trial","","f","","2","5","8","false","false","true","both pre & post","LEFT","LEFT","f","1","true","","","",""
"","html-keyboard-response","196","2742125","0.0-296.0","nvp313vw","1920","1080","","","","","","","","","","","null","+","Fixation - short","","null","","","","","","","","","","","","","","","","",""
"","html-keyboard-response","197","2742872","0.0-297.0","nvp313vw","","","","","","","","","","","","","747","hfs","diagnostic trial","","j","","2","6","8","false","false","false","both pre & post","RIGHT","RIGHT","j","1","true","","","",""
"","html-keyboard-response","198","2743634","0.0-300.0","nvp313vw","1920","1080","","","","","","","","","","","null","+","Fixation - short","","null","","","","","","","","","","","","","","","","",""
"","html-keyboard-response","199","2744625","0.0-301.0","nvp313vw","","","","","","","","","","","","","990","hfs","diagnostic trial","","f","","2","7","8","false","false","true","both pre & post","RIGHT","LEFT","f","1","false","","","",""
"","html-keyboard-response","200","2745384","0.0-304.0","nvp313vw","1920","1080","","","","","","","","","","","null","+","Fixation - short","","null","","","","","","","","","","","","","","","","",""
"","canvas-keyboard-response","201","2746641","0.0-305.0","nvp313vw","","","","","","","","","","","","","null","Cue","Cue","","null","","2","7","","","false","","","","","","","","","","",""
"","html-keyboard-response","202","2747403","0.0-306.0","nvp313vw","1920","1080","","","","","","","","","","","null","+","Fixation - short","","null","","","","","","","","","","","","","","","","",""
"","html-keyboard-response","203","2748185","0.0-307.0","nvp313vw","","","","","","","","","","","","","781","hfs","diagnostic trial","","j","","2","8","8","true","false","false","both pre & post","RIGHT","RIGHT","j","1","true","","","",""
"","html-keyboard-response","204","2748935","0.0-310.0","nvp313vw","1920","1080","","","","","","","","","","","null","+","Fixation - short","","null","","","","","","","","","","","","","","","","",""
"","html-keyboard-response","205","2750552","0.0-311.0","nvp313vw","","","","","","","","","","","","","1618","ibg","diagnostic trial","","f","","2","9","8","true","false","true","both pre & post","LEFT","LEFT","f","1","true","","","",""
"","html-keyboard-response","206","2751311","0.0-314.0","nvp313vw","1920","1080","","","","","","","","","","","null","+","Fixation - short","","null","","","","","","","","","","","","","","","","",""
"","html-keyboard-response","207","2752016","0.0-315.0","nvp313vw","","","","","","","","","","","","","704","ibg","diagnostic trial","","j","","2","10","8","true","false","false","both pre & post","LEFT","RIGHT","j","1","false","","","",""
"","html-keyboard-response","208","2752771","0.0-318.0","nvp313vw","1920","1080","","","","","","","","","","","null","+","Fixation - short","","null","","","","","","","","","","","","","","","","",""
"","html-keyboard-response","209","2753320","0.0-319.0","nvp313vw","","","","","","","","","","","","","549","ibg","diagnostic trial","","j","","2","11","8","true","false","true","both pre & post","LEFT","LEFT","f","0","true","","","",""
"","call-function","210","2753321","0.0-321.0-0.0","nvp313vw","","","","","","","","","","","","","","","","","","","","","","","","","","","","","","","","","",""
"","html-keyboard-response","211","2753622","0.0-321.0-1.0","nvp313vw","1920","1080","","","","","","","","","","","null","Wrong","Feedback","","null","","","","","","","","","","","","","","","","",""
"","call-function","212","2753622","0.0-321.0-2.0","nvp313vw","","","","","","","","","","","","","","","","","","","","","","","","","","","","","","","","","",""
"","html-keyboard-response","213","2754382","0.0-322.0","nvp313vw","1920","1080","","","","","","","","","","","null","+","Fixation - short","","null","","","","","","","","","","","","","","","","",""
"","html-keyboard-response","214","2756395","0.0-323.0","nvp313vw","","","","","","","","","","","","","null","ibg","inducer trial","","null","","2","","","","true","","","","","f","NaN","","false","LEFT","",""
"","call-function","215","2756395","0.0-324.0-0.0","nvp313vw","","","","","","","","","","","","","","","","","","","","","","","","","","","","","","","","","",""
"","html-keyboard-response","216","2756706","0.0-324.0-1.0","nvp313vw","1920","1080","","","","","","","","","","","null","Slow","Feedback","","null","","","","","","","","","","","","","","","","",""
"","call-function","217","2756706","0.0-324.0-2.0","nvp313vw","","","","","","","","","","","","","","","","","","","","","","","","","","","","","","","","","",""
"","html-keyboard-response","218","2757466","0.0-326.0","nvp313vw","1920","1080","","","","","","","","","","","null","+","Fixation - short","","null","","","","","","","","","","","","","","","","",""
"","html-keyboard-response","219","2766033","0.0-327.0","nvp313vw","","","","","","","","","","","","","8566","If tgf press LEFT | If pcm press RIGHT","inducer instructions",""," ","","3","","","","","","","","","","","","","","",""
"","html-keyboard-response","220","2766797","0.0-328.0","nvp313vw","1920","1080","","","","","","","","","","","null","+","Fixation - short","","null","","","","","","","","","","","","","","","","",""
"","html-keyboard-response","221","2767937","0.0-329.0","nvp313vw","","","","","","","","","","","","","1138","tgf","diagnostic trial","","f","","3","0","4","false","false","true","both pre & post","LEFT","LEFT","f","1","true","","","",""
"","html-keyboard-response","222","2768697","0.0-332.0","nvp313vw","1920","1080","","","","","","","","","","","null","+","Fixation - short","","null","","","","","","","","","","","","","","","","",""
"","html-keyboard-response","223","2769825","0.0-333.0","nvp313vw","","","","","","","","","","","","","1127","tgf","diagnostic trial","","f","","3","1","4","false","false","true","both pre & post","LEFT","LEFT","f","1","true","","","",""
"","html-keyboard-response","224","2770586","0.0-336.0","nvp313vw","1920","1080","","","","","","","","","","","null","+","Fixation - short","","null","","","","","","","","","","","","","","","","",""
"","html-keyboard-response","225","2771233","0.0-337.0","nvp313vw","","","","","","","","","","","","","647","tgf","diagnostic trial","","f","","3","2","4","false","false","true","both pre & post","LEFT","LEFT","f","1","true","","","",""
"","html-keyboard-response","226","2771994","0.0-340.0","nvp313vw","1920","1080","","","","","","","","","","","null","+","Fixation - short","","null","","","","","","","","","","","","","","","","",""
"","html-keyboard-response","227","2772752","0.0-341.0","nvp313vw","","","","","","","","","","","","","758","pcm","diagnostic trial","","j","","3","3","4","false","false","false","both pre & post","RIGHT","RIGHT","j","1","true","","","",""
"","html-keyboard-response","228","2773505","0.0-344.0","nvp313vw","1920","1080","","","","","","","","","","","null","+","Fixation - short","","null","","","","","","","","","","","","","","","","",""
"","canvas-keyboard-response","229","2774764","0.0-345.0","nvp313vw","","","","","","","","","","","","","null","Cue","Cue","","null","","3","3","","","false","","","","","","","","","","",""
"","html-keyboard-response","230","2775524","0.0-346.0","nvp313vw","1920","1080","","","","","","","","","","","null","+","Fixation - short","","null","","","","","","","","","","","","","","","","",""
"","html-keyboard-response","231","2776465","0.0-347.0","nvp313vw","","","","","","","","","","","","","941","pcm","diagnostic trial","","j","","3","4","4","true","false","false","both pre & post","RIGHT","RIGHT","j","1","true","","","",""
"","html-keyboard-response","232","2777224","0.0-350.0","nvp313vw","1920","1080","","","","","","","","","","","null","+","Fixation - short","","null","","","","","","","","","","","","","","","","",""
"","html-keyboard-response","233","2778097","0.0-351.0","nvp313vw","","","","","","","","","","","","","871","pcm","diagnostic trial","","j","","3","5","4","true","false","false","both pre & post","RIGHT","RIGHT","j","1","true","","","",""
"","html-keyboard-response","234","2778854","0.0-354.0","nvp313vw","1920","1080","","","","","","","","","","","null","+","Fixation - short","","null","","","","","","","","","","","","","","","","",""
"","html-keyboard-response","235","2779952","0.0-355.0","nvp313vw","","","","","","","","","","","","","1098","pcm","diagnostic trial","","f","","3","6","4","true","false","true","both pre & post","RIGHT","LEFT","f","1","false","","","",""
"","html-keyboard-response","236","2780706","0.0-358.0","nvp313vw","1920","1080","","","","","","","","","","","null","+","Fixation - short","","null","","","","","","","","","","","","","","","","",""
"","html-keyboard-response","237","2781928","0.0-359.0","nvp313vw","","","","","","","","","","","","","1222","tgf","inducer trial","","f","","3","","","","true","","","","","f","1","","false","LEFT","",""
"","html-keyboard-response","238","2782719","0.0-362.0","nvp313vw","1920","1080","","","","","","","","","","","null","+","Fixation - short","","null","","","","","","","","","","","","","","","","",""
"","html-keyboard-response","239","2788568","0.0-363.0","nvp313vw","","","","","","","","","","","","","5850","If asn press LEFT | If efg press RIGHT","inducer instructions",""," ","","4","","","","","","","","","","","","","","",""
"","html-keyboard-response","240","2789326","0.0-364.0","nvp313vw","1920","1080","","","","","","","","","","","null","+","Fixation - short","","null","","","","","","","","","","","","","","","","",""
"","html-keyboard-response","241","2790328","0.0-365.0","nvp313vw","","","","","","","","","","","","","1003","efg","diagnostic trial","","j","","4","0","10","false","false","false","both pre & post","RIGHT","RIGHT","j","1","true","","","",""
"","html-keyboard-response","242","2791082","0.0-368.0","nvp313vw","1920","1080","","","","","","","","","","","null","+","Fixation - short","","null","","","","","","","","","","","","","","","","",""
"","html-keyboard-response","243","2791625","0.0-369.0","nvp313vw","","","","","","","","","","","","","544","asn","diagnostic trial","","j","","4","1","10","false","false","false","both pre & post","LEFT","RIGHT","j","1","false","","","",""
"","html-keyboard-response","244","2792381","0.0-372.0","nvp313vw","1920","1080","","","","","","","","","","","null","+","Fixation - short","","null","","","","","","","","","","","","","","","","",""
"","html-keyboard-response","245","2792833","0.0-373.0","nvp313vw","","","","","","","","","","","","","451","efg","diagnostic trial","","j","","4","2","10","false","false","false","both pre & post","RIGHT","RIGHT","j","1","true","","","",""
"","html-keyboard-response","246","2793635","0.0-376.0","nvp313vw","1920","1080","","","","","","","","","","","null","+","Fixation - short","","null","","","","","","","","","","","","","","","","",""
"","html-keyboard-response","247","2794200","0.0-377.0","nvp313vw","","","","","","","","","","","","","565","asn","diagnostic trial","","f","","4","3","10","false","false","true","both pre & post","LEFT","LEFT","f","1","true","","","",""
"","html-keyboard-response","248","2794960","0.0-380.0","nvp313vw","1920","1080","","","","","","","","","","","null","+","Fixation - short","","null","","","","","","","","","","","","","","","","",""
"","html-keyboard-response","249","2795745","0.0-381.0","nvp313vw","","","","","","","","","","","","","784","asn","diagnostic trial","","j","","4","4","10","false","false","true","both pre & post","LEFT","LEFT","f","0","true","","","",""
"","call-function","250","2795745","0.0-383.0-0.0","nvp313vw","","","","","","","","","","","","","","","","","","","","","","","","","","","","","","","","","",""
"","html-keyboard-response","251","2796046","0.0-383.0-1.0","nvp313vw","1920","1080","","","","","","","","","","","null","Wrong","Feedback","","null","","","","","","","","","","","","","","","","",""
"","call-function","252","2796046","0.0-383.0-2.0","nvp313vw","","","","","","","","","","","","","","","","","","","","","","","","","","","","","","","","","",""
"","html-keyboard-response","253","2796852","0.0-384.0","nvp313vw","1920","1080","","","","","","","","","","","null","+","Fixation - short","","null","","","","","","","","","","","","","","","","",""
"","html-keyboard-response","254","2797657","0.0-385.0","nvp313vw","","","","","","","","","","","","","806","asn","diagnostic trial","","j","","4","5","10","false","false","false","both pre & post","LEFT","RIGHT","j","1","false","","","",""
"","html-keyboard-response","255","2798416","0.0-388.0","nvp313vw","1920","1080","","","","","","","","","","","null","+","Fixation - short","","null","","","","","","","","","","","","","","","","",""
"","html-keyboard-response","256","2799010","0.0-389.0","nvp313vw","","","","","","","","","","","","","594","efg","diagnostic trial","","j","","4","6","10","false","false","false","both pre & post","RIGHT","RIGHT","j","1","true","","","",""
"","html-keyboard-response","257","2799769","0.0-392.0","nvp313vw","1920","1080","","","","","","","","","","","null","+","Fixation - short","","null","","","","","","","","","","","","","","","","",""
"","html-keyboard-response","258","2800232","0.0-393.0","nvp313vw","","","","","","","","","","","","","464","asn","diagnostic trial","","j","","4","7","10","false","false","false","both pre & post","LEFT","RIGHT","j","1","false","","","",""
"","html-keyboard-response","259","2800995","0.0-396.0","nvp313vw","1920","1080","","","","","","","","","","","null","+","Fixation - short","","null","","","","","","","","","","","","","","","","",""
"","html-keyboard-response","260","2801569","0.0-397.0","nvp313vw","","","","","","","","","","","","","573","efg","diagnostic trial","","j","","4","8","10","false","false","false","both pre & post","RIGHT","RIGHT","j","1","true","","","",""
"","html-keyboard-response","261","2802325","0.0-400.0","nvp313vw","1920","1080","","","","","","","","","","","null","+","Fixation - short","","null","","","","","","","","","","","","","","","","",""
"","html-keyboard-response","262","2802929","0.0-401.0","nvp313vw","","","","","","","","","","","","","604","efg","diagnostic trial","","f","","4","9","10","false","false","true","both pre & post","RIGHT","LEFT","f","1","false","","","",""
"","html-keyboard-response","263","2803679","0.0-404.0","nvp313vw","1920","1080","","","","","","","","","","","null","+","Fixation - short","","null","","","","","","","","","","","","","","","","",""
"","canvas-keyboard-response","264","2804940","0.0-405.0","nvp313vw","","","","","","","","","","","","","null","Cue","Cue","","null","","4","9","","","false","","","","","","","","","","",""
"","html-keyboard-response","265","2805700","0.0-406.0","nvp313vw","1920","1080","","","","","","","","","","","null","+","Fixation - short","","null","","","","","","","","","","","","","","","","",""
"","html-keyboard-response","266","2806488","0.0-407.0","nvp313vw","","","","","","","","","","","","","787","efg","diagnostic trial","","f","","4","10","10","true","false","true","both pre & post","RIGHT","LEFT","f","1","false","","","",""
"","html-keyboard-response","267","2807244","0.0-410.0","nvp313vw","1920","1080","","","","","","","","","","","null","+","Fixation - short","","null","","","","","","","","","","","","","","","","",""
"","html-keyboard-response","268","2808104","0.0-411.0","nvp313vw","","","","","","","","","","","","","860","efg","diagnostic trial","","j","","4","11","10","true","false","false","both pre & post","RIGHT","RIGHT","j","1","true","","","",""
"","html-keyboard-response","269","2808864","0.0-414.0","nvp313vw","1920","1080","","","","","","","","","","","null","+","Fixation - short","","null","","","","","","","","","","","","","","","","",""
"","html-keyboard-response","270","2810048","0.0-415.0","nvp313vw","","","","","","","","","","","","","1184","asn","diagnostic trial","","f","","4","12","10","true","false","true","both pre & post","LEFT","LEFT","f","1","true","","","",""
"","html-keyboard-response","271","2810805","0.0-418.0","nvp313vw","1920","1080","","","","","","","","","","","null","+","Fixation - short","","null","","","","","","","","","","","","","","","","",""
"","html-keyboard-response","272","2811617","0.0-419.0","nvp313vw","","","","","","","","","","","","","812","asn","diagnostic trial","","f","","4","13","10","true","false","true","both pre & post","LEFT","LEFT","f","1","true","","","",""
"","html-keyboard-response","273","2812377","0.0-422.0","nvp313vw","1920","1080","","","","","","","","","","","null","+","Fixation - short","","null","","","","","","","","","","","","","","","","",""
"","html-keyboard-response","274","2813825","0.0-423.0","nvp313vw","","","","","","","","","","","","","1448","asn","inducer trial","","j","","4","","","","true","","","","","f","0","","false","LEFT","",""
"","call-function","275","2813825","0.0-425.0-0.0","nvp313vw","","","","","","","","","","","","","","","","","","","","","","","","","","","","","","","","","",""
"","html-keyboard-response","276","2814134","0.0-425.0-1.0","nvp313vw","1920","1080","","","","","","","","","","","null","Wrong","Feedback","","null","","","","","","","","","","","","","","","","",""
"","call-function","277","2814134","0.0-425.0-2.0","nvp313vw","","","","","","","","","","","","","","","","","","","","","","","","","","","","","","","","","",""
"","html-keyboard-response","278","2814945","0.0-426.0","nvp313vw","1920","1080","","","","","","","","","","","null","+","Fixation - short","","null","","","","","","","","","","","","","","","","",""
"","html-keyboard-response","279","2822137","0.0-427.0","nvp313vw","","","","","","","","","","","","","7192","If tkb press LEFT | If jup press RIGHT","inducer instructions",""," ","","5","","","","","","","","","","","","","","",""
"","html-keyboard-response","280","2822902","0.0-428.0","nvp313vw","1920","1080","","","","","","","","","","","null","+","Fixation - short","","null","","","","","","","","","","","","","","","","",""
"","html-keyboard-response","281","2823944","0.0-429.0","nvp313vw","","","","","","","","","","","","","1042","tkb","diagnostic trial","","f","","5","0","8","false","false","true","both pre & post","LEFT","LEFT","f","1","true","","","",""
"","html-keyboard-response","282","2824707","0.0-432.0","nvp313vw","1920","1080","","","","","","","","","","","null","+","Fixation - short","","null","","","","","","","","","","","","","","","","",""
"","html-keyboard-response","283","2825393","0.0-433.0","nvp313vw","","","","","","","","","","","","","686","jup","diagnostic trial","","j","","5","1","8","false","false","false","both pre & post","RIGHT","RIGHT","j","1","true","","","",""
"","html-keyboard-response","284","2826149","0.0-436.0","nvp313vw","1920","1080","","","","","","","","","","","null","+","Fixation - short","","null","","","","","","","","","","","","","","","","",""
"","html-keyboard-response","285","2826880","0.0-437.0","nvp313vw","","","","","","","","","","","","","732","tkb","diagnostic trial","","j","","5","2","8","false","false","false","both pre & post","LEFT","RIGHT","j","1","false","","","",""
"","html-keyboard-response","286","2827643","0.0-440.0","nvp313vw","1920","1080","","","","","","","","","","","null","+","Fixation - short","","null","","","","","","","","","","","","","","","","",""
"","html-keyboard-response","287","2828224","0.0-441.0","nvp313vw","","","","","","","","","","","","","582","jup","diagnostic trial","","j","","5","3","8","false","false","false","both pre & post","RIGHT","RIGHT","j","1","true","","","",""
"","html-keyboard-response","288","2828982","0.0-444.0","nvp313vw","1920","1080","","","","","","","","","","","null","+","Fixation - short","","null","","","","","","","","","","","","","","","","",""
"","html-keyboard-response","289","2829449","0.0-445.0","nvp313vw","","","","","","","","","","","","","467","jup","diagnostic trial","","j","","5","4","8","false","false","false","both pre & post","RIGHT","RIGHT","j","1","true","","","",""
"","html-keyboard-response","290","2830235","0.0-448.0","nvp313vw","1920","1080","","","","","","","","","","","null","+","Fixation - short","","null","","","","","","","","","","","","","","","","",""
"","html-keyboard-response","291","2830720","0.0-449.0","nvp313vw","","","","","","","","","","","","","484","jup","diagnostic trial","","j","","5","5","8","false","false","false","both pre & post","RIGHT","RIGHT","j","1","true","","","",""
"","html-keyboard-response","292","2831479","0.0-452.0","nvp313vw","1920","1080","","","","","","","","","","","null","+","Fixation - short","","null","","","","","","","","","","","","","","","","",""
"","html-keyboard-response","293","2832065","0.0-453.0","nvp313vw","","","","","","","","","","","","","585","jup","diagnostic trial","","f","","5","6","8","false","false","true","both pre & post","RIGHT","LEFT","f","1","false","","","",""
"","html-keyboard-response","294","2832828","0.0-456.0","nvp313vw","1920","1080","","","","","","","","","","","null","+","Fixation - short","","null","","","","","","","","","","","","","","","","",""
"","html-keyboard-response","295","2833808","0.0-457.0","nvp313vw","","","","","","","","","","","","","981","jup","diagnostic trial","","f","","5","7","8","false","false","true","both pre & post","RIGHT","LEFT","f","1","false","","","",""
"","html-keyboard-response","296","2834567","0.0-460.0","nvp313vw","1920","1080","","","","","","","","","","","null","+","Fixation - short","","null","","","","","","","","","","","","","","","","",""
"","canvas-keyboard-response","297","2835823","0.0-461.0","nvp313vw","","","","","","","","","","","","","null","Cue","Cue","","null","","5","7","","","false","","","","","","","","","","",""
"","html-keyboard-response","298","2836581","0.0-462.0","nvp313vw","1920","1080","","","","","","","","","","","null","+","Fixation - short","","null","","","","","","","","","","","","","","","","",""
"","html-keyboard-response","299","2837344","0.0-463.0","nvp313vw","","","","","","","","","","","","","762","tkb","diagnostic trial","","j","","5","8","8","true","false","false","both pre & post","LEFT","RIGHT","j","1","false","","","",""
"","html-keyboard-response","300","2838102","0.0-466.0","nvp313vw","1920","1080","","","","","","","","","","","null","+","Fixation - short","","null","","","","","","","","","","","","","","","","",""
"","html-keyboard-response","301","2840109","0.0-467.0","nvp313vw","","","","","","","","","","","","","null","jup","inducer trial","","null","","5","","","","true","","","","","j","NaN","","false","RIGHT","",""
"","call-function","302","2840110","0.0-468.0-0.0","nvp313vw","","","","","","","","","","","","","","","","","","","","","","","","","","","","","","","","","",""
"","html-keyboard-response","303","2840420","0.0-468.0-1.0","nvp313vw","1920","1080","","","","","","","","","","","null","Slow","Feedback","","null","","","","","","","","","","","","","","","","",""
"","call-function","304","2840420","0.0-468.0-2.0","nvp313vw","","","","","","","","","","","","","","","","","","","","","","","","","","","","","","","","","",""
"","html-keyboard-response","305","2841182","0.0-470.0","nvp313vw","1920","1080","","","","","","","","","","","null","+","Fixation - short","","null","","","","","","","","","","","","","","","","",""
"","html-keyboard-response","306","2846025","0.0-471.0","nvp313vw","","","","","","","","","","","","","4843","If imm press LEFT | If jcr press RIGHT","inducer instructions",""," ","","6","","","","","","","","","","","","","","",""
"","html-keyboard-response","307","2846784","0.0-472.0","nvp313vw","1920","1080","","","","","","","","","","","null","+","Fixation - short","","null","","","","","","","","","","","","","","","","",""
"","html-keyboard-response","308","2847745","0.0-473.0","nvp313vw","","","","","","","","","","","","","961","jcr","diagnostic trial","","f","","6","0","10","false","false","true","both pre & post","RIGHT","LEFT","f","1","false","","","",""
"","html-keyboard-response","309","2848495","0.0-476.0","nvp313vw","1920","1080","","","","","","","","","","","null","+","Fixation - short","","null","","","","","","","","","","","","","","","","",""
"","html-keyboard-response","310","2849233","0.0-477.0","nvp313vw","","","","","","","","","","","","","737","jcr","diagnostic trial","","j","","6","1","10","false","false","false","both pre & post","RIGHT","RIGHT","j","1","true","","","",""
"","html-keyboard-response","311","2849984","0.0-480.0","nvp313vw","1920","1080","","","","","","","","","","","null","+","Fixation - short","","null","","","","","","","","","","","","","","","","",""
"","html-keyboard-response","312","2850497","0.0-481.0","nvp313vw","","","","","","","","","","","","","512","jcr","diagnostic trial","","j","","6","2","10","false","false","true","both pre & post","RIGHT","LEFT","f","0","false","","","",""
"","call-function","313","2850497","0.0-483.0-0.0","nvp313vw","","","","","","","","","","","","","","","","","","","","","","","","","","","","","","","","","",""
"","html-keyboard-response","314","2850808","0.0-483.0-1.0","nvp313vw","1920","1080","","","","","","","","","","","null","Wrong","Feedback","","null","","","","","","","","","","","","","","","","",""
"","call-function","315","2850809","0.0-483.0-2.0","nvp313vw","","","","","","","","","","","","","","","","","","","","","","","","","","","","","","","","","",""
"","html-keyboard-response","316","2851571","0.0-484.0","nvp313vw","1920","1080","","","","","","","","","","","null","+","Fixation - short","","null","","","","","","","","","","","","","","","","",""
"","html-keyboard-response","317","2852145","0.0-485.0","nvp313vw","","","","","","","","","","","","","572","imm","diagnostic trial","","f","","6","3","10","false","false","true","both pre & post","LEFT","LEFT","f","1","true","","","",""
"","html-keyboard-response","318","2852902","0.0-488.0","nvp313vw","1920","1080","","","","","","","","","","","null","+","Fixation - short","","null","","","","","","","","","","","","","","","","",""
"","html-keyboard-response","319","2853464","0.0-489.0","nvp313vw","","","","","","","","","","","","","562","imm","diagnostic trial","","f","","6","4","10","false","false","true","both pre & post","LEFT","LEFT","f","1","true","","","",""
"","html-keyboard-response","320","2854225","0.0-492.0","nvp313vw","1920","1080","","","","","","","","","","","null","+","Fixation - short","","null","","","","","","","","","","","","","","","","",""
"","html-keyboard-response","321","2854752","0.0-493.0","nvp313vw","","","","","","","","","","","","","526","jcr","diagnostic trial","","j","","6","5","10","false","false","false","both pre & post","RIGHT","RIGHT","j","1","true","","","",""
"","html-keyboard-response","322","2855516","0.0-496.0","nvp313vw","1920","1080","","","","","","","","","","","null","+","Fixation - short","","null","","","","","","","","","","","","","","","","",""
"","html-keyboard-response","323","2856329","0.0-497.0","nvp313vw","","","","","","","","","","","","","812","jcr","diagnostic trial","","j","","6","6","10","false","false","false","both pre & post","RIGHT","RIGHT","j","1","true","","","",""
"","html-keyboard-response","324","2857085","0.0-500.0","nvp313vw","1920","1080","","","","","","","","","","","null","+","Fixation - short","","null","","","","","","","","","","","","","","","","",""
"","html-keyboard-response","325","2857712","0.0-501.0","nvp313vw","","","","","","","","","","","","","627","imm","diagnostic trial","","j","","6","7","10","false","false","false","both pre & post","LEFT","RIGHT","j","1","false","","","",""
"","html-keyboard-response","326","2858469","0.0-504.0","nvp313vw","1920","1080","","","","","","","","","","","null","+","Fixation - short","","null","","","","","","","","","","","","","","","","",""
"","html-keyboard-response","327","2858985","0.0-505.0","nvp313vw","","","","","","","","","","","","","515","imm","diagnostic trial","","j","","6","8","10","false","false","false","both pre & post","LEFT","RIGHT","j","1","false","","","",""
"","html-keyboard-response","328","2859744","0.0-508.0","nvp313vw","1920","1080","","","","","","","","","","","null","+","Fixation - short","","null","","","","","","","","","","","","","","","","",""
"","html-keyboard-response","329","2860232","0.0-509.0","nvp313vw","","","","","","","","","","","","","489","imm","diagnostic trial","","j","","6","9","10","false","false","false","both pre & post","LEFT","RIGHT","j","1","false","","","",""
"","html-keyboard-response","330","2860983","0.0-512.0","nvp313vw","1920","1080","","","","","","","","","","","null","+","Fixation - short","","null","","","","","","","","","","","","","","","","",""
"","canvas-keyboard-response","331","2862392","0.0-513.0","nvp313vw","","","","","","","","","","","","","null","Cue","Cue","","null","","6","9","","","false","","","","","","","","","","",""
"","html-keyboard-response","332","2863154","0.0-514.0","nvp313vw","1920","1080","","","","","","","","","","","null","+","Fixation - short","","null","","","","","","","","","","","","","","","","",""
"","html-keyboard-response","333","2863761","0.0-515.0","nvp313vw","","","","","","","","","","","","","606","jcr","diagnostic trial","","f","","6","10","10","true","false","true","both pre & post","RIGHT","LEFT","f","1","false","","","",""
"","html-keyboard-response","334","2864514","0.0-518.0","nvp313vw","1920","1080","","","","","","","","","","","null","+","Fixation - short","","null","","","","","","","","","","","","","","","","",""
"","html-keyboard-response","335","2865240","0.0-519.0","nvp313vw","","","","","","","","","","","","","727","imm","diagnostic trial","","j","","6","11","10","true","false","false","both pre & post","LEFT","RIGHT","j","1","false","","","",""
"","html-keyboard-response","336","2865999","0.0-522.0","nvp313vw","1920","1080","","","","","","","","","","","null","+","Fixation - short","","null","","","","","","","","","","","","","","","","",""
"","html-keyboard-response","337","2867872","0.0-523.0","nvp313vw","","","","","","","","","","","","","1873","jcr","inducer trial","","j","","6","","","","true","","","","","j","1","","false","RIGHT","",""
"","html-keyboard-response","338","2868638","0.0-526.0","nvp313vw","1920","1080","","","","","","","","","","","null","+","Fixation - short","","null","","","","","","","","","","","","","","","","",""
"","html-keyboard-response","339","2873529","0.0-527.0","nvp313vw","","","","","","","","","","","","","4891","If bgi press LEFT | If dgv press RIGHT","inducer instructions",""," ","","7","","","","","","","","","","","","","","",""
"","html-keyboard-response","340","2874289","0.0-528.0","nvp313vw","1920","1080","","","","","","","","","","","null","+","Fixation - short","","null","","","","","","","","","","","","","","","","",""
"","html-keyboard-response","341","2875169","0.0-529.0","nvp313vw","","","","","","","","","","","","","879","bgi","diagnostic trial","","j","","7","0","5","false","false","false","both pre & post","LEFT","RIGHT","j","1","false","","","",""
"","html-keyboard-response","342","2875928","0.0-532.0","nvp313vw","1920","1080","","","","","","","","","","","null","+","Fixation - short","","null","","","","","","","","","","","","","","","","",""
"","html-keyboard-response","343","2876544","0.0-533.0","nvp313vw","","","","","","","","","","","","","616","dgv","diagnostic trial","","f","","7","1","5","false","false","true","both pre & post","RIGHT","LEFT","f","1","false","","","",""
"","html-keyboard-response","344","2877297","0.0-536.0","nvp313vw","1920","1080","","","","","","","","","","","null","+","Fixation - short","","null","","","","","","","","","","","","","","","","",""
"","html-keyboard-response","345","2877785","0.0-537.0","nvp313vw","","","","","","","","","","","","","488","dgv","diagnostic trial","","f","","7","2","5","false","false","true","both pre & post","RIGHT","LEFT","f","1","false","","","",""
"","html-keyboard-response","346","2878547","0.0-540.0","nvp313vw","1920","1080","","","","","","","","","","","null","+","Fixation - short","","null","","","","","","","","","","","","","","","","",""
"","html-keyboard-response","347","2879056","0.0-541.0","nvp313vw","","","","","","","","","","","","","509","bgi","diagnostic trial","","f","","7","3","5","false","false","true","both pre & post","LEFT","LEFT","f","1","true","","","",""
"","html-keyboard-response","348","2879820","0.0-544.0","nvp313vw","1920","1080","","","","","","","","","","","null","+","Fixation - short","","null","","","","","","","","","","","","","","","","",""
"","html-keyboard-response","349","2880504","0.0-545.0","nvp313vw","","","","","","","","","","","","","683","bgi","diagnostic trial","","j","","7","4","5","false","false","false","both pre & post","LEFT","RIGHT","j","1","false","","","",""
"","html-keyboard-response","350","2881270","0.0-548.0","nvp313vw","1920","1080","","","","","","","","","","","null","+","Fixation - short","","null","","","","","","","","","","","","","","","","",""
"","canvas-keyboard-response","351","2882532","0.0-549.0","nvp313vw","","","","","","","","","","","","","null","Cue","Cue","","null","","7","4","","","false","","","","","","","","","","",""
"","html-keyboard-response","352","2883294","0.0-550.0","nvp313vw","1920","1080","","","","","","","","","","","null","+","Fixation - short","","null","","","","","","","","","","","","","","","","",""
"","html-keyboard-response","353","2884088","0.0-551.0","nvp313vw","","","","","","","","","","","","","793","bgi","diagnostic trial","","j","","7","5","5","true","false","false","both pre & post","LEFT","RIGHT","j","1","false","","","",""
"","html-keyboard-response","354","2884847","0.0-554.0","nvp313vw","1920","1080","","","","","","","","","","","null","+","Fixation - short","","null","","","","","","","","","","","","","","","","",""
"","html-keyboard-response","355","2886280","0.0-555.0","nvp313vw","","","","","","","","","","","","","1432","dgv","diagnostic trial","","j","","7","6","5","true","false","true","both pre & post","RIGHT","LEFT","f","0","false","","","",""
"","call-function","356","2886281","0.0-557.0-0.0","nvp313vw","","","","","","","","","","","","","","","","","","","","","","","","","","","","","","","","","",""
"","html-keyboard-response","357","2886592","0.0-557.0-1.0","nvp313vw","1920","1080","","","","","","","","","","","null","Wrong","Feedback","","null","","","","","","","","","","","","","","","","",""
"","call-function","358","2886592","0.0-557.0-2.0","nvp313vw","","","","","","","","","","","","","","","","","","","","","","","","","","","","","","","","","",""
"","html-keyboard-response","359","2887353","0.0-558.0","nvp313vw","1920","1080","","","","","","","","","","","null","+","Fixation - short","","null","","","","","","","","","","","","","","","","",""
"","html-keyboard-response","360","2888488","0.0-559.0","nvp313vw","","","","","","","","","","","","","1135","dgv","diagnostic trial","","j","","7","7","5","true","false","false","both pre & post","RIGHT","RIGHT","j","1","true","","","",""
"","html-keyboard-response","361","2889247","0.0-562.0","nvp313vw","1920","1080","","","","","","","","","","","null","+","Fixation - short","","null","","","","","","","","","","","","","","","","",""
"","html-keyboard-response","362","2890321","0.0-563.0","nvp313vw","","","","","","","","","","","","","1072","bgi","diagnostic trial","","f","","7","8","5","true","false","true","both pre & post","LEFT","LEFT","f","1","true","","","",""
"","html-keyboard-response","363","2891082","0.0-566.0","nvp313vw","1920","1080","","","","","","","","","","","null","+","Fixation - short","","null","","","","","","","","","","","","","","","","",""
"","html-keyboard-response","364","2892584","0.0-567.0","nvp313vw","","","","","","","","","","","","","1502","dgv","inducer trial","","j","","7","","","","true","","","","","j","1","","false","RIGHT","",""
"","html-keyboard-response","365","2893336","0.0-570.0","nvp313vw","1920","1080","","","","","","","","","","","null","+","Fixation - short","","null","","","","","","","","","","","","","","","","",""
"","html-keyboard-response","366","2896433","0.0-571.0","nvp313vw","","","","","","","","","","","","","3096","If saj press LEFT | If edc press RIGHT","inducer instructions",""," ","","8","","","","","","","","","","","","","","",""
"","html-keyboard-response","367","2897196","0.0-572.0","nvp313vw","1920","1080","","","","","","","","","","","null","+","Fixation - short","","null","","","","","","","","","","","","","","","","",""
"","html-keyboard-response","368","2898280","0.0-573.0","nvp313vw","","","","","","","","","","","","","1084","saj","diagnostic trial","","f","","8","0","4","false","false","false","both pre & post","LEFT","RIGHT","j","0","false","","","",""
"","call-function","369","2898281","0.0-575.0-0.0","nvp313vw","","","","","","","","","","","","","","","","","","","","","","","","","","","","","","","","","",""
"","html-keyboard-response","370","2898594","0.0-575.0-1.0","nvp313vw","1920","1080","","","","","","","","","","","null","Wrong","Feedback","","null","","","","","","","","","","","","","","","","",""
"","call-function","371","2898594","0.0-575.0-2.0","nvp313vw","","","","","","","","","","","","","","","","","","","","","","","","","","","","","","","","","",""
"","html-keyboard-response","372","2899352","0.0-576.0","nvp313vw","1920","1080","","","","","","","","","","","null","+","Fixation - short","","null","","","","","","","","","","","","","","","","",""
"","html-keyboard-response","373","2900168","0.0-577.0","nvp313vw","","","","","","","","","","","","","816","saj","diagnostic trial","","f","","8","1","4","false","false","true","both pre & post","LEFT","LEFT","f","1","true","","","",""
"","html-keyboard-response","374","2900930","0.0-580.0","nvp313vw","1920","1080","","","","","","","","","","","null","+","Fixation - short","","null","","","","","","","","","","","","","","","","",""
"","html-keyboard-response","375","2901608","0.0-581.0","nvp313vw","","","","","","","","","","","","","678","edc","diagnostic trial","","f","","8","2","4","false","false","true","both pre & post","RIGHT","LEFT","f","1","false","","","",""
"","html-keyboard-response","376","2902374","0.0-584.0","nvp313vw","1920","1080","","","","","","","","","","","null","+","Fixation - short","","null","","","","","","","","","","","","","","","","",""
"","html-keyboard-response","377","2902849","0.0-585.0","nvp313vw","","","","","","","","","","","","","474","edc","diagnostic trial","","f","","8","3","4","false","false","true","both pre & post","RIGHT","LEFT","f","1","false","","","",""
"","html-keyboard-response","378","2903606","0.0-588.0","nvp313vw","1920","1080","","","","","","","","","","","null","+","Fixation - short","","null","","","","","","","","","","","","","","","","",""
"","canvas-keyboard-response","379","2904974","0.0-589.0","nvp313vw","","","","","","","","","","","","","null","Cue","Cue","","null","","8","3","","","false","","","","","","","","","","",""
"","html-keyboard-response","380","2905736","0.0-590.0","nvp313vw","1920","1080","","","","","","","","","","","null","+","Fixation - short","","null","","","","","","","","","","","","","","","","",""
"","html-keyboard-response","381","2906297","0.0-591.0","nvp313vw","","","","","","","","","","","","","560","edc","diagnostic trial","","f","","8","4","4","true","false","false","both pre & post","RIGHT","RIGHT","j","0","true","","","",""
"","call-function","382","2906297","0.0-593.0-0.0","nvp313vw","","","","","","","","","","","","","","","","","","","","","","","","","","","","","","","","","",""
"","html-keyboard-response","383","2906604","0.0-593.0-1.0","nvp313vw","1920","1080","","","","","","","","","","","null","Wrong","Feedback","","null","","","","","","","","","","","","","","","","",""
"","call-function","384","2906604","0.0-593.0-2.0","nvp313vw","","","","","","","","","","","","","","","","","","","","","","","","","","","","","","","","","",""
"","html-keyboard-response","385","2907363","0.0-594.0","nvp313vw","1920","1080","","","","","","","","","","","null","+","Fixation - short","","null","","","","","","","","","","","","","","","","",""
"","html-keyboard-response","386","2908353","0.0-595.0","nvp313vw","","","","","","","","","","","","","990","saj","diagnostic trial","","f","","8","5","4","true","false","true","both pre & post","LEFT","LEFT","f","1","true","","","",""
"","html-keyboard-response","387","2909110","0.0-598.0","nvp313vw","1920","1080","","","","","","","","","","","null","+","Fixation - short","","null","","","","","","","","","","","","","","","","",""
"","html-keyboard-response","388","2909944","0.0-599.0","nvp313vw","","","","","","","","","","","","","834","edc","diagnostic trial","","j","","8","6","4","true","false","false","both pre & post","RIGHT","RIGHT","j","1","true","","","",""
"","html-keyboard-response","389","2910709","0.0-602.0","nvp313vw","1920","1080","","","","","","","","","","","null","+","Fixation - short","","null","","","","","","","","","","","","","","","","",""
"","html-keyboard-response","390","2911480","0.0-603.0","nvp313vw","","","","","","","","","","","","","771","saj","diagnostic trial","","j","","8","7","4","true","false","true","both pre & post","LEFT","LEFT","f","0","true","","","",""
"","call-function","391","2911481","0.0-605.0-0.0","nvp313vw","","","","","","","","","","","","","","","","","","","","","","","","","","","","","","","","","",""
"","html-keyboard-response","392","2911811","0.0-605.0-1.0","nvp313vw","1920","1080","","","","","","","","","","","null","Wrong","Feedback","","null","","","","","","","","","","","","","","","","",""
"","call-function","393","2911811","0.0-605.0-2.0","nvp313vw","","","","","","","","","","","","","","","","","","","","","","","","","","","","","","","","","",""
"","html-keyboard-response","394","2912569","0.0-606.0","nvp313vw","1920","1080","","","","","","","","","","","null","+","Fixation - short","","null","","","","","","","","","","","","","","","","",""
"","html-keyboard-response","395","2914582","0.0-607.0","nvp313vw","","","","","","","","","","","","","null","edc","inducer trial","","null","","8","","","","true","","","","","j","NaN","","false","RIGHT","",""
"","call-function","396","2914582","0.0-608.0-0.0","nvp313vw","","","","","","","","","","","","","","","","","","","","","","","","","","","","","","","","","",""
"","html-keyboard-response","397","2914892","0.0-608.0-1.0","nvp313vw","1920","1080","","","","","","","","","","","null","Slow","Feedback","","null","","","","","","","","","","","","","","","","",""
"","call-function","398","2914893","0.0-608.0-2.0","nvp313vw","","","","","","","","","","","","","","","","","","","","","","","","","","","","","","","","","",""
"","html-keyboard-response","399","2915650","0.0-610.0","nvp313vw","1920","1080","","","","","","","","","","","null","+","Fixation - short","","null","","","","","","","","","","","","","","","","",""
"","html-keyboard-response","400","2923280","0.0-611.0","nvp313vw","","","","","","","","","","","","","7630","If dlg press LEFT | If jft press RIGHT","inducer instructions",""," ","","9","","","","","","","","","","","","","","",""
"","html-keyboard-response","401","2924042","0.0-612.0","nvp313vw","1920","1080","","","","","","","","","","","null","+","Fixation - short","","null","","","","","","","","","","","","","","","","",""
"","html-keyboard-response","402","2925160","0.0-613.0","nvp313vw","","","","","","","","","","","","","1117","dlg","diagnostic trial","","f","","9","0","7","false","false","true","both pre & post","LEFT","LEFT","f","1","true","","","",""
"","html-keyboard-response","403","2925913","0.0-616.0","nvp313vw","1920","1080","","","","","","","","","","","null","+","Fixation - short","","null","","","","","","","","","","","","","","","","",""
"","html-keyboard-response","404","2926673","0.0-617.0","nvp313vw","","","","","","","","","","","","","759","dlg","diagnostic trial","","j","","9","1","7","false","false","false","both pre & post","LEFT","RIGHT","j","1","false","","","",""
"","html-keyboard-response","405","2927436","0.0-620.0","nvp313vw","1920","1080","","","","","","","","","","","null","+","Fixation - short","","null","","","","","","","","","","","","","","","","",""
"","html-keyboard-response","406","2927977","0.0-621.0","nvp313vw","","","","","","","","","","","","","540","dlg","diagnostic trial","","j","","9","2","7","false","false","false","both pre & post","LEFT","RIGHT","j","1","false","","","",""
"","html-keyboard-response","407","2928729","0.0-624.0","nvp313vw","1920","1080","","","","","","","","","","","null","+","Fixation - short","","null","","","","","","","","","","","","","","","","",""
"","html-keyboard-response","408","2929185","0.0-625.0","nvp313vw","","","","","","","","","","","","","454","dlg","diagnostic trial","","j","","9","3","7","false","false","false","both pre & post","LEFT","RIGHT","j","1","false","","","",""
"","html-keyboard-response","409","2929939","0.0-628.0","nvp313vw","1920","1080","","","","","","","","","","","null","+","Fixation - short","","null","","","","","","","","","","","","","","","","",""
"","html-keyboard-response","410","2931056","0.0-629.0","nvp313vw","","","","","","","","","","","","","1117","jft","diagnostic trial","","f","","9","4","7","false","false","true","both pre & post","RIGHT","LEFT","f","1","false","","","",""
"","html-keyboard-response","411","2931812","0.0-632.0","nvp313vw","1920","1080","","","","","","","","","","","null","+","Fixation - short","","null","","","","","","","","","","","","","","","","",""
"","html-keyboard-response","412","2932448","0.0-633.0","nvp313vw","","","","","","","","","","","","","636","jft","diagnostic trial","","f","","9","5","7","false","false","true","both pre & post","RIGHT","LEFT","f","1","false","","","",""
"","html-keyboard-response","413","2933286","0.0-636.0","nvp313vw","1920","1080","","","","","","","","","","","null","+","Fixation - short","","null","","","","","","","","","","","","","","","","",""
"","html-keyboard-response","414","2933872","0.0-637.0","nvp313vw","","","","","","","","","","","","","585","jft","diagnostic trial","","f","","9","6","7","false","false","true","both pre & post","RIGHT","LEFT","f","1","false","","","",""
"","html-keyboard-response","415","2934637","0.0-640.0","nvp313vw","1920","1080","","","","","","","","","","","null","+","Fixation - short","","null","","","","","","","","","","","","","","","","",""
"","canvas-keyboard-response","416","2935896","0.0-641.0","nvp313vw","","","","","","","","","","","","","null","Cue","Cue","","null","","9","6","","","false","","","","","","","","","","",""
"","html-keyboard-response","417","2936659","0.0-642.0","nvp313vw","1920","1080","","","","","","","","","","","null","+","Fixation - short","","null","","","","","","","","","","","","","","","","",""
"","html-keyboard-response","418","2937288","0.0-643.0","nvp313vw","","","","","","","","","","","","","629","jft","diagnostic trial","","f","","9","7","7","true","false","true","both pre & post","RIGHT","LEFT","f","1","false","","","",""
"","html-keyboard-response","419","2938046","0.0-646.0","nvp313vw","1920","1080","","","","","","","","","","","null","+","Fixation - short","","null","","","","","","","","","","","","","","","","",""
"","html-keyboard-response","420","2938760","0.0-647.0","nvp313vw","","","","","","","","","","","","","713","jft","diagnostic trial","","j","","9","8","7","true","false","false","both pre & post","RIGHT","RIGHT","j","1","true","","","",""
"","html-keyboard-response","421","2939518","0.0-650.0","nvp313vw","1920","1080","","","","","","","","","","","null","+","Fixation - short","","null","","","","","","","","","","","","","","","","",""
"","html-keyboard-response","422","2940528","0.0-651.0","nvp313vw","","","","","","","","","","","","","1011","jft","diagnostic trial","","f","","9","9","7","true","false","true","both pre & post","RIGHT","LEFT","f","1","false","","","",""
"","html-keyboard-response","423","2941291","0.0-654.0","nvp313vw","1920","1080","","","","","","","","","","","null","+","Fixation - short","","null","","","","","","","","","","","","","","","","",""
"","html-keyboard-response","424","2941960","0.0-655.0","nvp313vw","","","","","","","","","","","","","670","jft","diagnostic trial","","f","","9","10","7","true","false","true","both pre & post","RIGHT","LEFT","f","1","false","","","",""
"","html-keyboard-response","425","2942717","0.0-658.0","nvp313vw","1920","1080","","","","","","","","","","","null","+","Fixation - short","","null","","","","","","","","","","","","","","","","",""
"","html-keyboard-response","426","2944161","0.0-659.0","nvp313vw","","","","","","","","","","","","","1443","jft","inducer trial","","f","","9","","","","true","","","","","j","0","","false","RIGHT","",""
"","call-function","427","2944161","0.0-661.0-0.0","nvp313vw","","","","","","","","","","","","","","","","","","","","","","","","","","","","","","","","","",""
"","html-keyboard-response","428","2944468","0.0-661.0-1.0","nvp313vw","1920","1080","","","","","","","","","","","null","Wrong","Feedback","","null","","","","","","","","","","","","","","","","",""
"","call-function","429","2944468","0.0-661.0-2.0","nvp313vw","","","","","","","","","","","","","","","","","","","","","","","","","","","","","","","","","",""
"","html-keyboard-response","430","2945229","0.0-662.0","nvp313vw","1920","1080","","","","","","","","","","","null","+","Fixation - short","","null","","","","","","","","","","","","","","","","",""
"","call-function","431","2945229","0.0-663.0","nvp313vw","","","","","","","","","","","","","","","","","","","","","","","","","","","","","","","","","",""
"","survey","432","3097256","0.0-664.0","nvp313vw","","","","","","","","","","","","","152005","feedback","Feedback","","{""strategy_feedback"":""To create a mental heuristic for each round. E.g. Alphabetical order from left to right."",""open_feedback"":""Took some time to wrap my mind around the rules. Might have confounded my first round of the real task. ""}","","","","","","","","","","","","","","","","[]","[{""event"":""focus"",""trial"":0,""time"":1},{""event"":""blur"",""trial"":2,""time"":4440},{""event"":""focus"",""trial"":2,""time"":15977},{""event"":""fullscreenenter"",""trial"":3,""time"":79155}]"
