"value","trial_type","trial_index","time_elapsed","internal_node_id","id","width","height","webaudio","browser","browser_version","mobile","os","fullscreen","vsync_rate","webcam","microphone","view_history","rt","stimulus","trial_info","success","response","exp_parameters","inducer_run","diagnostic_run","cue_num","post_cue","inducer_trial","italic","forced_equal_run","correct_inducer_response_side","correct_diag_response_side","correct_response_key","correct_response","congruent","force_equal","correct_indu_response_side","accuracy","interactive"
"","call-function","0","1","0.0-0.0","jzn59dl4","","","","","","","","","","","","","","","","","","","","","","","","","","","","","","","","","",""
"","browser-check","1","417","0.0-1.0","jzn59dl4","1920","957","true","chrome","122.0.0","false","Windows 10","true","146.13","true","true","","","","","","","","","","","","","","","","","","","","","","",""
"","instructions","2","54996","0.0-2.0","jzn59dl4","","","","","","","","","","","","[{""page_index"":0,""viewing_time"":22702},{""page_index"":1,""viewing_time"":29443},{""page_index"":2,""viewing_time"":2432}]","54578","The experiment and consent","The experiment and consent","","","","","","","","","","","","","","","","","","",""
"","fullscreen","3","61119","0.0-3.0","jzn59dl4","","","","","","","","","","","","","5115","","Full screen","true","","","","","","","","","","","","","","","","","",""
"","instructions","4","90334","0.0-4.0","jzn59dl4","","","","","","","","","","","","[{""page_index"":0,""viewing_time"":17807},{""page_index"":1,""viewing_time"":11406}]","29214","Instructions","Basic overview explanation","","","","","","","","","","","","","","","","","","",""
"","html-keyboard-response","5","108197","0.0-5.0","jzn59dl4","","","","","","","","","","","","","16356","If italic press LEFT | If upright press RIGHT","Diagnostic instructions",""," ","{""debug"":true,""skip_instructions"":false,""skip_practice"":false,""save_local_data"":false,""studu_name"":""exp2_pilot"",""default_background_colour"":""#cccccc"",""wrong_response_colour"":""#d22d2d"",""instruction_delay"":20000,""trial_duration"":2000,""short_fixation"":750,""long_fixation"":1500,""wrong_response_delay"":300,""too_slow_delay"":300,""instruction_font_size"":""24px"",""general_font_size"":""42px"",""fixation_size"":""48px"",""allowed_responses"":[""f"",""j""],""cue_min_length"":0,""cue_max_length"":4,""tot_post_cue_len"":30,""cue_colour"":""blue"",""cue_shape"":""Triangle"",""cue_size"":70,""cue_duration"":1250,""avg_number_of_cues"":3,""inducer_colour"":""yellow"",""number_of_inducers"":10,""pre_cue_italic_forced_equal"":true,""post_cue_italic_forced_equal"":true,""prac_diagnostic_rounds"":16,""prac_inducer_rounds"":6,""prac_cue_rounds"":16,""prac_post_cue_num"":3}","","","","","","","","","","","","","","","",""
"","html-keyboard-response","6","108953","0.0-6.0","jzn59dl4","1920","1080","","","","","","","","","","","null","+","Fixation - short","","null","","","","","","","","","","","","","","","","",""
"","html-keyboard-response","7","109821","0.0-7.0","jzn59dl4","","","","","","","","","","","","","867","pcm","diagnostic practice","","f","","prac","0","-84","true","false","true","prac equal","RIGHT","LEFT","f","1","false","","","",""
"","html-keyboard-response","8","110588","0.0-10.0","jzn59dl4","1920","1080","","","","","","","","","","","null","+","Fixation - short","","null","","","","","","","","","","","","","","","","",""
"","html-keyboard-response","9","111088","0.0-11.0","jzn59dl4","","","","","","","","","","","","","499","goj","diagnostic practice","","j","","prac","1","-84","true","false","false","prac equal","LEFT","RIGHT","j","1","false","","","",""
"","html-keyboard-response","10","111849","0.0-14.0","jzn59dl4","1920","1080","","","","","","","","","","","null","+","Fixation - short","","null","","","","","","","","","","","","","","","","",""
"","html-keyboard-response","11","112401","0.0-15.0","jzn59dl4","","","","","","","","","","","","","551","pcm","diagnostic practice","","f","","prac","2","-84","true","false","false","prac equal","RIGHT","RIGHT","j","0","true","","","",""
"","call-function","12","112402","0.0-17.0-0.0","jzn59dl4","","","","","","","","","","","","","","","","","","","","","","","","","","","","","","","","","",""
"","html-keyboard-response","13","112711","0.0-17.0-1.0","jzn59dl4","1920","1080","","","","","","","","","","","null","Wrong","Feedback","","null","","","","","","","","","","","","","","","","",""
"","call-function","14","112712","0.0-17.0-2.0","jzn59dl4","","","","","","","","","","","","","","","","","","","","","","","","","","","","","","","","","",""
"","html-keyboard-response","15","113471","0.0-18.0","jzn59dl4","1920","1080","","","","","","","","","","","null","+","Fixation - short","","null","","","","","","","","","","","","","","","","",""
"","html-keyboard-response","16","114332","0.0-19.0","jzn59dl4","","","","","","","","","","","","","860","goj","diagnostic practice","","j","","prac","3","-84","true","false","false","prac equal","LEFT","RIGHT","j","1","false","","","",""
"","html-keyboard-response","17","115087","0.0-22.0","jzn59dl4","1920","1080","","","","","","","","","","","null","+","Fixation - short","","null","","","","","","","","","","","","","","","","",""
"","html-keyboard-response","18","115663","0.0-23.0","jzn59dl4","","","","","","","","","","","","","575","pcm","diagnostic practice","","f","","prac","4","-84","true","false","true","prac equal","RIGHT","LEFT","f","1","false","","","",""
"","html-keyboard-response","19","116418","0.0-26.0","jzn59dl4","1920","1080","","","","","","","","","","","null","+","Fixation - short","","null","","","","","","","","","","","","","","","","",""
"","html-keyboard-response","20","116982","0.0-27.0","jzn59dl4","","","","","","","","","","","","","564","pcm","diagnostic practice","","f","","prac","5","-84","true","false","true","prac equal","RIGHT","LEFT","f","1","false","","","",""
"","html-keyboard-response","21","117736","0.0-30.0","jzn59dl4","1920","1080","","","","","","","","","","","null","+","Fixation - short","","null","","","","","","","","","","","","","","","","",""
"","html-keyboard-response","22","118272","0.0-31.0","jzn59dl4","","","","","","","","","","","","","534","goj","diagnostic practice","","j","","prac","6","-84","true","false","true","prac equal","LEFT","LEFT","f","0","true","","","",""
"","call-function","23","118272","0.0-33.0-0.0","jzn59dl4","","","","","","","","","","","","","","","","","","","","","","","","","","","","","","","","","",""
"","html-keyboard-response","24","118588","0.0-33.0-1.0","jzn59dl4","1920","1080","","","","","","","","","","","null","Wrong","Feedback","","null","","","","","","","","","","","","","","","","",""
"","call-function","25","118588","0.0-33.0-2.0","jzn59dl4","","","","","","","","","","","","","","","","","","","","","","","","","","","","","","","","","",""
"","html-keyboard-response","26","119349","0.0-34.0","jzn59dl4","1920","1080","","","","","","","","","","","null","+","Fixation - short","","null","","","","","","","","","","","","","","","","",""
"","html-keyboard-response","27","119831","0.0-35.0","jzn59dl4","","","","","","","","","","","","","481","pcm","diagnostic practice","","f","","prac","7","-84","true","false","true","prac equal","RIGHT","LEFT","f","1","false","","","",""
"","html-keyboard-response","28","120596","0.0-38.0","jzn59dl4","1920","1080","","","","","","","","","","","null","+","Fixation - short","","null","","","","","","","","","","","","","","","","",""
"","html-keyboard-response","29","121047","0.0-39.0","jzn59dl4","","","","","","","","","","","","","451","pcm","diagnostic practice","","f","","prac","8","-84","true","false","false","prac equal","RIGHT","RIGHT","j","0","true","","","",""
"","call-function","30","121048","0.0-41.0-0.0","jzn59dl4","","","","","","","","","","","","","","","","","","","","","","","","","","","","","","","","","",""
"","html-keyboard-response","31","121353","0.0-41.0-1.0","jzn59dl4","1920","1080","","","","","","","","","","","null","Wrong","Feedback","","null","","","","","","","","","","","","","","","","",""
"","call-function","32","121353","0.0-41.0-2.0","jzn59dl4","","","","","","","","","","","","","","","","","","","","","","","","","","","","","","","","","",""
"","html-keyboard-response","33","122111","0.0-42.0","jzn59dl4","1920","1080","","","","","","","","","","","null","+","Fixation - short","","null","","","","","","","","","","","","","","","","",""
"","html-keyboard-response","34","123102","0.0-43.0","jzn59dl4","","","","","","","","","","","","","990","pcm","diagnostic practice","","j","","prac","9","-84","true","false","false","prac equal","RIGHT","RIGHT","j","1","true","","","",""
"","html-keyboard-response","35","123859","0.0-46.0","jzn59dl4","1920","1080","","","","","","","","","","","null","+","Fixation - short","","null","","","","","","","","","","","","","","","","",""
"","html-keyboard-response","36","124473","0.0-47.0","jzn59dl4","","","","","","","","","","","","","614","pcm","diagnostic practice","","j","","prac","10","-84","true","false","false","prac equal","RIGHT","RIGHT","j","1","true","","","",""
"","html-keyboard-response","37","125226","0.0-50.0","jzn59dl4","1920","1080","","","","","","","","","","","null","+","Fixation - short","","null","","","","","","","","","","","","","","","","",""
"","html-keyboard-response","38","125995","0.0-51.0","jzn59dl4","","","","","","","","","","","","","768","goj","diagnostic practice","","j","","prac","11","-84","true","false","false","prac equal","LEFT","RIGHT","j","1","false","","","",""
"","html-keyboard-response","39","126753","0.0-54.0","jzn59dl4","1920","1080","","","","","","","","","","","null","+","Fixation - short","","null","","","","","","","","","","","","","","","","",""
"","html-keyboard-response","40","127498","0.0-55.0","jzn59dl4","","","","","","","","","","","","","743","goj","diagnostic practice","","f","","prac","12","-84","true","false","true","prac equal","LEFT","LEFT","f","1","true","","","",""
"","html-keyboard-response","41","128250","0.0-58.0","jzn59dl4","1920","1080","","","","","","","","","","","null","+","Fixation - short","","null","","","","","","","","","","","","","","","","",""
"","html-keyboard-response","42","128727","0.0-59.0","jzn59dl4","","","","","","","","","","","","","476","goj","diagnostic practice","","f","","prac","13","-84","true","false","true","prac equal","LEFT","LEFT","f","1","true","","","",""
"","html-keyboard-response","43","129483","0.0-62.0","jzn59dl4","1920","1080","","","","","","","","","","","null","+","Fixation - short","","null","","","","","","","","","","","","","","","","",""
"","html-keyboard-response","44","130051","0.0-63.0","jzn59dl4","","","","","","","","","","","","","568","goj","diagnostic practice","","f","","prac","14","-84","true","false","true","prac equal","LEFT","LEFT","f","1","true","","","",""
"","html-keyboard-response","45","130807","0.0-66.0","jzn59dl4","1920","1080","","","","","","","","","","","null","+","Fixation - short","","null","","","","","","","","","","","","","","","","",""
"","html-keyboard-response","46","131271","0.0-67.0","jzn59dl4","","","","","","","","","","","","","463","pcm","diagnostic practice","","j","","prac","15","-84","true","false","false","prac equal","RIGHT","RIGHT","j","1","true","","","",""
"","html-keyboard-response","47","132030","0.0-70.0","jzn59dl4","1920","1080","","","","","","","","","","","null","+","Fixation - short","","null","","","","","","","","","","","","","","","","",""
"","instructions","48","135550","0.0-71.0","jzn59dl4","","","","","","","","","","","","[{""page_index"":0,""viewing_time"":3519}]","3519","Instructions","Final experiment explanation","","","","","","","","","","","","","","","","","","",""
"","html-keyboard-response","49","144259","0.0-72.0","jzn59dl4","","","","","","","","","","","","","7203","If saj press LEFT | If cpt press RIGHT","inducer practice",""," ","","prac","","","","","","","","","","","","","","",""
"","html-keyboard-response","50","145014","0.0-73.0","jzn59dl4","1920","1080","","","","","","","","","","","null","+","Fixation - short","","null","","","","","","","","","","","","","","","","",""
"","html-keyboard-response","51","145568","0.0-74.0","jzn59dl4","","","","","","","","","","","","","553","saj","inducer practice","","f","","prac","","","","true","","","","","f","1","","false","LEFT","",""
"","html-keyboard-response","52","146328","0.0-77.0","jzn59dl4","1920","1080","","","","","","","","","","","null","+","Fixation - short","","null","","","","","","","","","","","","","","","","",""
"","html-keyboard-response","53","153890","0.0-78.0","jzn59dl4","","","","","","","","","","","","","7561","If jlm press LEFT | If adj press RIGHT","inducer practice",""," ","","prac","","","","","","","","","","","","","","",""
"","html-keyboard-response","54","154648","0.0-79.0","jzn59dl4","1920","1080","","","","","","","","","","","null","+","Fixation - short","","null","","","","","","","","","","","","","","","","",""
"","html-keyboard-response","55","155890","0.0-80.0","jzn59dl4","","","","","","","","","","","","","1241","adj","inducer practice","","f","","prac","","","","true","","","","","j","0","","false","RIGHT","",""
"","call-function","56","155891","0.0-82.0-0.0","jzn59dl4","","","","","","","","","","","","","","","","","","","","","","","","","","","","","","","","","",""
"","html-keyboard-response","57","156195","0.0-82.0-1.0","jzn59dl4","1920","1080","","","","","","","","","","","null","Wrong","Feedback","","null","","","","","","","","","","","","","","","","",""
"","call-function","58","156196","0.0-82.0-2.0","jzn59dl4","","","","","","","","","","","","","","","","","","","","","","","","","","","","","","","","","",""
"","html-keyboard-response","59","156950","0.0-83.0","jzn59dl4","1920","1080","","","","","","","","","","","null","+","Fixation - short","","null","","","","","","","","","","","","","","","","",""
"","html-keyboard-response","60","162756","0.0-84.0","jzn59dl4","","","","","","","","","","","","","5805","If pxv press LEFT | If dul press RIGHT","inducer practice",""," ","","prac","","","","","","","","","","","","","","",""
"","html-keyboard-response","61","163516","0.0-85.0","jzn59dl4","1920","1080","","","","","","","","","","","null","+","Fixation - short","","null","","","","","","","","","","","","","","","","",""
"","html-keyboard-response","62","164103","0.0-86.0","jzn59dl4","","","","","","","","","","","","","586","pxv","inducer practice","","f","","prac","","","","true","","","","","f","1","","false","LEFT","",""
"","html-keyboard-response","63","164858","0.0-89.0","jzn59dl4","1920","1080","","","","","","","","","","","null","+","Fixation - short","","null","","","","","","","","","","","","","","","","",""
"","html-keyboard-response","64","169935","0.0-90.0","jzn59dl4","","","","","","","","","","","","","5076","If hrc press LEFT | If ttm press RIGHT","inducer practice",""," ","","prac","","","","","","","","","","","","","","",""
"","html-keyboard-response","65","170699","0.0-91.0","jzn59dl4","1920","1080","","","","","","","","","","","null","+","Fixation - short","","null","","","","","","","","","","","","","","","","",""
"","html-keyboard-response","66","171525","0.0-92.0","jzn59dl4","","","","","","","","","","","","","825","hrc","inducer practice","","f","","prac","","","","true","","","","","f","1","","false","LEFT","",""
"","html-keyboard-response","67","172290","0.0-95.0","jzn59dl4","1920","1080","","","","","","","","","","","null","+","Fixation - short","","null","","","","","","","","","","","","","","","","",""
"","html-keyboard-response","68","175090","0.0-96.0","jzn59dl4","","","","","","","","","","","","","2799","If efg press LEFT | If bwe press RIGHT","inducer practice",""," ","","prac","","","","","","","","","","","","","","",""
"","html-keyboard-response","69","175853","0.0-97.0","jzn59dl4","1920","1080","","","","","","","","","","","null","+","Fixation - short","","null","","","","","","","","","","","","","","","","",""
"","html-keyboard-response","70","176334","0.0-98.0","jzn59dl4","","","","","","","","","","","","","480","efg","inducer practice","","f","","prac","","","","true","","","","","f","1","","false","LEFT","",""
"","html-keyboard-response","71","177089","0.0-101.0","jzn59dl4","1920","1080","","","","","","","","","","","null","+","Fixation - short","","null","","","","","","","","","","","","","","","","",""
"","html-keyboard-response","72","180252","0.0-102.0","jzn59dl4","","","","","","","","","","","","","3161","If mmo press LEFT | If dgv press RIGHT","inducer practice",""," ","","prac","","","","","","","","","","","","","","",""
"","html-keyboard-response","73","181018","0.0-103.0","jzn59dl4","1920","1080","","","","","","","","","","","null","+","Fixation - short","","null","","","","","","","","","","","","","","","","",""
"","html-keyboard-response","74","181586","0.0-104.0","jzn59dl4","","","","","","","","","","","","","568","dgv","inducer practice","","j","","prac","","","","true","","","","","j","1","","false","RIGHT","",""
"","html-keyboard-response","75","182352","0.0-107.0","jzn59dl4","1920","1080","","","","","","","","","","","null","+","Fixation - short","","null","","","","","","","","","","","","","","","","",""
"","html-keyboard-response","76","203451","0.0-108.0","jzn59dl4","","","","","","","","","","","","","21097","Cue practice","Cue practice",""," ","","","","","","","","","","","","","","","","",""
"","html-keyboard-response","77","206121","0.0-109.0","jzn59dl4","","","","","","","","","","","","","2669","If tkb press LEFT | If dpa press RIGHT","cue practice",""," ","","prac","","","","","","","","","","","","","","",""
"","html-keyboard-response","78","206882","0.0-110.0","jzn59dl4","1920","1080","","","","","","","","","","","null","+","Fixation - short","","null","","","","","","","","","","","","","","","","",""
"","html-keyboard-response","79","207382","0.0-111.0","jzn59dl4","","","","","","","","","","","","","499","dpa","cue practice","","j","","prac","0","13","false","false","true","only pre","RIGHT","LEFT","f","0","false","","","",""
"","call-function","80","207383","0.0-113.0-0.0","jzn59dl4","","","","","","","","","","","","","","","","","","","","","","","","","","","","","","","","","",""
"","html-keyboard-response","81","207688","0.0-113.0-1.0","jzn59dl4","1920","1080","","","","","","","","","","","null","Wrong","Feedback","","null","","","","","","","","","","","","","","","","",""
"","call-function","82","207689","0.0-113.0-2.0","jzn59dl4","","","","","","","","","","","","","","","","","","","","","","","","","","","","","","","","","",""
"","html-keyboard-response","83","208448","0.0-114.0","jzn59dl4","1920","1080","","","","","","","","","","","null","+","Fixation - short","","null","","","","","","","","","","","","","","","","",""
"","html-keyboard-response","84","211585","0.0-115.0","jzn59dl4","","","","","","","","","","","","","3136","tkb","cue practice","","j","","prac","1","13","false","false","false","only pre","LEFT","RIGHT","j","1","false","","","",""
"","html-keyboard-response","85","212352","0.0-118.0","jzn59dl4","1920","1080","","","","","","","","","","","null","+","Fixation - short","","null","","","","","","","","","","","","","","","","",""
"","html-keyboard-response","86","212861","0.0-119.0","jzn59dl4","","","","","","","","","","","","","508","dpa","cue practice","","f","","prac","2","13","false","false","true","only pre","RIGHT","LEFT","f","1","false","","","",""
"","html-keyboard-response","87","213620","0.0-122.0","jzn59dl4","1920","1080","","","","","","","","","","","null","+","Fixation - short","","null","","","","","","","","","","","","","","","","",""
"","html-keyboard-response","88","214090","0.0-123.0","jzn59dl4","","","","","","","","","","","","","469","tkb","cue practice","","j","","prac","3","13","false","false","","only pre","LEFT","RIGHT","j","1","false","","","",""
"","html-keyboard-response","89","214843","0.0-126.0","jzn59dl4","1920","1080","","","","","","","","","","","null","+","Fixation - short","","null","","","","","","","","","","","","","","","","",""
"","html-keyboard-response","90","216274","0.0-127.0","jzn59dl4","","","","","","","","","","","","","1430","dpa","cue practice","","j","","prac","4","13","false","false","","only pre","RIGHT","RIGHT","j","1","true","","","",""
"","html-keyboard-response","91","217030","0.0-130.0","jzn59dl4","1920","1080","","","","","","","","","","","null","+","Fixation - short","","null","","","","","","","","","","","","","","","","",""
"","html-keyboard-response","92","217705","0.0-131.0","jzn59dl4","","","","","","","","","","","","","675","tkb","cue practice","","j","","prac","5","13","false","false","","only pre","LEFT","RIGHT","j","1","false","","","",""
"","html-keyboard-response","93","218468","0.0-134.0","jzn59dl4","1920","1080","","","","","","","","","","","null","+","Fixation - short","","null","","","","","","","","","","","","","","","","",""
"","html-keyboard-response","94","218940","0.0-135.0","jzn59dl4","","","","","","","","","","","","","471","tkb","cue practice","","j","","prac","6","13","false","false","","only pre","LEFT","RIGHT","j","1","false","","","",""
"","html-keyboard-response","95","219692","0.0-138.0","jzn59dl4","1920","1080","","","","","","","","","","","null","+","Fixation - short","","null","","","","","","","","","","","","","","","","",""
"","html-keyboard-response","96","220105","0.0-139.0","jzn59dl4","","","","","","","","","","","","","412","tkb","cue practice","","j","","prac","7","13","false","false","","only pre","LEFT","RIGHT","j","1","false","","","",""
"","html-keyboard-response","97","220864","0.0-142.0","jzn59dl4","1920","1080","","","","","","","","","","","null","+","Fixation - short","","null","","","","","","","","","","","","","","","","",""
"","html-keyboard-response","98","221478","0.0-143.0","jzn59dl4","","","","","","","","","","","","","614","tkb","cue practice","","j","","prac","8","13","false","false","","only pre","LEFT","RIGHT","j","1","false","","","",""
"","html-keyboard-response","99","222240","0.0-146.0","jzn59dl4","1920","1080","","","","","","","","","","","null","+","Fixation - short","","null","","","","","","","","","","","","","","","","",""
"","html-keyboard-response","100","222994","0.0-147.0","jzn59dl4","","","","","","","","","","","","","753","dpa","cue practice","","j","","prac","9","13","false","false","","only pre","RIGHT","RIGHT","j","1","true","","","",""
"","html-keyboard-response","101","223756","0.0-150.0","jzn59dl4","1920","1080","","","","","","","","","","","null","+","Fixation - short","","null","","","","","","","","","","","","","","","","",""
"","html-keyboard-response","102","224538","0.0-151.0","jzn59dl4","","","","","","","","","","","","","781","tkb","cue practice","","j","","prac","10","13","false","false","","only pre","LEFT","RIGHT","j","1","false","","","",""
"","html-keyboard-response","103","225293","0.0-154.0","jzn59dl4","1920","1080","","","","","","","","","","","null","+","Fixation - short","","null","","","","","","","","","","","","","","","","",""
"","html-keyboard-response","104","225938","0.0-155.0","jzn59dl4","","","","","","","","","","","","","644","dpa","cue practice","","j","","prac","11","13","false","false","","only pre","RIGHT","RIGHT","j","1","true","","","",""
"","html-keyboard-response","105","226689","0.0-158.0","jzn59dl4","1920","1080","","","","","","","","","","","null","+","Fixation - short","","null","","","","","","","","","","","","","","","","",""
"","html-keyboard-response","106","227072","0.0-159.0","jzn59dl4","","","","","","","","","","","","","382","dpa","cue practice","","j","","prac","12","13","false","false","","only pre","RIGHT","RIGHT","j","1","true","","","",""
"","html-keyboard-response","107","227832","0.0-162.0","jzn59dl4","1920","1080","","","","","","","","","","","null","+","Fixation - short","","null","","","","","","","","","","","","","","","","",""
"","canvas-keyboard-response","108","229100","0.0-163.0","jzn59dl4","","","","","","","","","","","","","null","Cue","Cue","","null","","prac","12","","","false","","","","","","","","","","",""
"","html-keyboard-response","109","229857","0.0-164.0","jzn59dl4","1920","1080","","","","","","","","","","","null","+","Fixation - short","","null","","","","","","","","","","","","","","","","",""
"","html-keyboard-response","110","230446","0.0-165.0","jzn59dl4","","","","","","","","","","","","","588","dpa","cue practice","","j","","prac","13","13","true","false","false","only pre","RIGHT","RIGHT","j","1","true","","","",""
"","html-keyboard-response","111","231207","0.0-168.0","jzn59dl4","1920","1080","","","","","","","","","","","null","+","Fixation - short","","null","","","","","","","","","","","","","","","","",""
"","html-keyboard-response","112","231625","0.0-169.0","jzn59dl4","","","","","","","","","","","","","417","dpa","cue practice","","j","","prac","14","13","true","false","true","only pre","RIGHT","LEFT","f","0","false","","","",""
"","call-function","113","231626","0.0-171.0-0.0","jzn59dl4","","","","","","","","","","","","","","","","","","","","","","","","","","","","","","","","","",""
"","html-keyboard-response","114","231938","0.0-171.0-1.0","jzn59dl4","1920","1080","","","","","","","","","","","null","Wrong","Feedback","","null","","","","","","","","","","","","","","","","",""
"","call-function","115","231939","0.0-171.0-2.0","jzn59dl4","","","","","","","","","","","","","","","","","","","","","","","","","","","","","","","","","",""
"","html-keyboard-response","116","232695","0.0-172.0","jzn59dl4","1920","1080","","","","","","","","","","","null","+","Fixation - short","","null","","","","","","","","","","","","","","","","",""
"","html-keyboard-response","117","233250","0.0-173.0","jzn59dl4","","","","","","","","","","","","","553","dpa","cue practice","","f","","prac","15","13","true","false","true","only pre","RIGHT","LEFT","f","1","false","","","",""
"","html-keyboard-response","118","234011","0.0-176.0","jzn59dl4","1920","1080","","","","","","","","","","","null","+","Fixation - short","","null","","","","","","","","","","","","","","","","",""
"","html-keyboard-response","119","234817","0.0-177.0","jzn59dl4","","","","","","","","","","","","","806","tkb","inducer practice","","j","","prac","","","","true","","","","","f","0","","false","LEFT","",""
"","call-function","120","234818","0.0-179.0-0.0","jzn59dl4","","","","","","","","","","","","","","","","","","","","","","","","","","","","","","","","","",""
"","html-keyboard-response","121","235127","0.0-179.0-1.0","jzn59dl4","1920","1080","","","","","","","","","","","null","Wrong","Feedback","","null","","","","","","","","","","","","","","","","",""
"","call-function","122","235127","0.0-179.0-2.0","jzn59dl4","","","","","","","","","","","","","","","","","","","","","","","","","","","","","","","","","",""
"","html-keyboard-response","123","235882","0.0-180.0","jzn59dl4","1920","1080","","","","","","","","","","","null","+","Fixation - short","","null","","","","","","","","","","","","","","","","",""
"","html-keyboard-response","124","251156","0.0-181.0","jzn59dl4","","","","","","","","","","","","","15272","End practice","End of practice",""," ","","","","","","","","","","","","","","","","",""
"","html-keyboard-response","125","252662","0.0-182.0","jzn59dl4","1920","1080","","","","","","","","","","","null","+","Fixation - long","","null","","","","","","","","","","","","","","","","",""
"","html-keyboard-response","126","263020","0.0-183.0","jzn59dl4","","","","","","","","","","","","","10357","If nga press LEFT | If ila press RIGHT","inducer instructions",""," ","","0","","","","","","","","","","","","","","",""
"","html-keyboard-response","127","263773","0.0-184.0","jzn59dl4","1920","1080","","","","","","","","","","","null","+","Fixation - short","","null","","","","","","","","","","","","","","","","",""
"","html-keyboard-response","128","264988","0.0-185.0","jzn59dl4","","","","","","","","","","","","","1214","nga","diagnostic trial","","j","","0","0","11","false","false","false","both pre & post","LEFT","RIGHT","j","1","false","","","",""
"","html-keyboard-response","129","265750","0.0-188.0","jzn59dl4","1920","1080","","","","","","","","","","","null","+","Fixation - short","","null","","","","","","","","","","","","","","","","",""
"","html-keyboard-response","130","266552","0.0-189.0","jzn59dl4","","","","","","","","","","","","","801","nga","diagnostic trial","","j","","0","1","11","false","false","false","both pre & post","LEFT","RIGHT","j","1","false","","","",""
"","html-keyboard-response","131","267304","0.0-192.0","jzn59dl4","1920","1080","","","","","","","","","","","null","+","Fixation - short","","null","","","","","","","","","","","","","","","","",""
"","html-keyboard-response","132","267799","0.0-193.0","jzn59dl4","","","","","","","","","","","","","494","nga","diagnostic trial","","j","","0","2","11","false","false","false","both pre & post","LEFT","RIGHT","j","1","false","","","",""
"","html-keyboard-response","133","268557","0.0-196.0","jzn59dl4","1920","1080","","","","","","","","","","","null","+","Fixation - short","","null","","","","","","","","","","","","","","","","",""
"","html-keyboard-response","134","269187","0.0-197.0","jzn59dl4","","","","","","","","","","","","","629","nga","diagnostic trial","","f","","0","3","11","false","false","true","both pre & post","LEFT","LEFT","f","1","true","","","",""
"","html-keyboard-response","135","269953","0.0-200.0","jzn59dl4","1920","1080","","","","","","","","","","","null","+","Fixation - short","","null","","","","","","","","","","","","","","","","",""
"","html-keyboard-response","136","270494","0.0-201.0","jzn59dl4","","","","","","","","","","","","","541","nga","diagnostic trial","","f","","0","4","11","false","false","true","both pre & post","LEFT","LEFT","f","1","true","","","",""
"","html-keyboard-response","137","271252","0.0-204.0","jzn59dl4","1920","1080","","","","","","","","","","","null","+","Fixation - short","","null","","","","","","","","","","","","","","","","",""
"","html-keyboard-response","138","271965","0.0-205.0","jzn59dl4","","","","","","","","","","","","","712","nga","diagnostic trial","","j","","0","5","11","false","false","false","both pre & post","LEFT","RIGHT","j","1","false","","","",""
"","html-keyboard-response","139","272721","0.0-208.0","jzn59dl4","1920","1080","","","","","","","","","","","null","+","Fixation - short","","null","","","","","","","","","","","","","","","","",""
"","html-keyboard-response","140","273347","0.0-209.0","jzn59dl4","","","","","","","","","","","","","624","nga","diagnostic trial","","f","","0","6","11","false","false","true","both pre & post","LEFT","LEFT","f","1","true","","","",""
"","html-keyboard-response","141","274100","0.0-212.0","jzn59dl4","1920","1080","","","","","","","","","","","null","+","Fixation - short","","null","","","","","","","","","","","","","","","","",""
"","html-keyboard-response","142","274727","0.0-213.0","jzn59dl4","","","","","","","","","","","","","626","nga","diagnostic trial","","f","","0","7","11","false","false","true","both pre & post","LEFT","LEFT","f","1","true","","","",""
"","html-keyboard-response","143","275488","0.0-216.0","jzn59dl4","1920","1080","","","","","","","","","","","null","+","Fixation - short","","null","","","","","","","","","","","","","","","","",""
"","html-keyboard-response","144","275925","0.0-217.0","jzn59dl4","","","","","","","","","","","","","436","nga","diagnostic trial","","f","","0","8","11","false","false","true","both pre & post","LEFT","LEFT","f","1","true","","","",""
"","html-keyboard-response","145","276690","0.0-220.0","jzn59dl4","1920","1080","","","","","","","","","","","null","+","Fixation - short","","null","","","","","","","","","","","","","","","","",""
"","html-keyboard-response","146","277457","0.0-221.0","jzn59dl4","","","","","","","","","","","","","766","ila","diagnostic trial","","f","","0","9","11","false","false","true","both pre & post","RIGHT","LEFT","f","1","false","","","",""
"","html-keyboard-response","147","278223","0.0-224.0","jzn59dl4","1920","1080","","","","","","","","","","","null","+","Fixation - short","","null","","","","","","","","","","","","","","","","",""
"","html-keyboard-response","148","278660","0.0-225.0","jzn59dl4","","","","","","","","","","","","","436","nga","diagnostic trial","","f","","0","10","11","false","false","true","both pre & post","LEFT","LEFT","f","1","true","","","",""
"","html-keyboard-response","149","279414","0.0-228.0","jzn59dl4","1920","1080","","","","","","","","","","","null","+","Fixation - short","","null","","","","","","","","","","","","","","","","",""
"","canvas-keyboard-response","150","280682","0.0-229.0","jzn59dl4","","","","","","","","","","","","","null","Cue","Cue","","null","","0","10","","","false","","","","","","","","","","",""
"","html-keyboard-response","151","281436","0.0-230.0","jzn59dl4","1920","1080","","","","","","","","","","","null","+","Fixation - short","","null","","","","","","","","","","","","","","","","",""
"","html-keyboard-response","152","282202","0.0-231.0","jzn59dl4","","","","","","","","","","","","","765","nga","diagnostic trial","","f","","0","11","11","true","false","true","both pre & post","LEFT","LEFT","f","1","true","","","",""
"","html-keyboard-response","153","282955","0.0-234.0","jzn59dl4","1920","1080","","","","","","","","","","","null","+","Fixation - short","","null","","","","","","","","","","","","","","","","",""
"","html-keyboard-response","154","283562","0.0-235.0","jzn59dl4","","","","","","","","","","","","","606","ila","diagnostic trial","","j","","0","12","11","true","false","false","both pre & post","RIGHT","RIGHT","j","1","true","","","",""
"","html-keyboard-response","155","284320","0.0-238.0","jzn59dl4","1920","1080","","","","","","","","","","","null","+","Fixation - short","","null","","","","","","","","","","","","","","","","",""
"","html-keyboard-response","156","285468","0.0-239.0","jzn59dl4","","","","","","","","","","","","","1147","ila","inducer trial","","j","","0","","","","true","","","","","j","1","","false","RIGHT","",""
"","html-keyboard-response","157","286233","0.0-242.0","jzn59dl4","1920","1080","","","","","","","","","","","null","+","Fixation - short","","null","","","","","","","","","","","","","","","","",""
"","html-keyboard-response","158","290404","0.0-243.0","jzn59dl4","","","","","","","","","","","","","4169","If geb press LEFT | If uen press RIGHT","inducer instructions",""," ","","1","","","","","","","","","","","","","","",""
"","html-keyboard-response","159","291162","0.0-244.0","jzn59dl4","1920","1080","","","","","","","","","","","null","+","Fixation - short","","null","","","","","","","","","","","","","","","","",""
"","html-keyboard-response","160","291855","0.0-245.0","jzn59dl4","","","","","","","","","","","","","692","geb","diagnostic trial","","j","","1","0","4","false","false","false","both pre & post","LEFT","RIGHT","j","1","false","","","",""
"","html-keyboard-response","161","292609","0.0-248.0","jzn59dl4","1920","1080","","","","","","","","","","","null","+","Fixation - short","","null","","","","","","","","","","","","","","","","",""
"","html-keyboard-response","162","293008","0.0-249.0","jzn59dl4","","","","","","","","","","","","","398","geb","diagnostic trial","","j","","1","1","4","false","false","false","both pre & post","LEFT","RIGHT","j","1","false","","","",""
"","html-keyboard-response","163","293770","0.0-252.0","jzn59dl4","1920","1080","","","","","","","","","","","null","+","Fixation - short","","null","","","","","","","","","","","","","","","","",""
"","html-keyboard-response","164","294428","0.0-253.0","jzn59dl4","","","","","","","","","","","","","657","uen","diagnostic trial","","f","","1","2","4","false","false","false","both pre & post","RIGHT","RIGHT","j","0","true","","","",""
"","call-function","165","294429","0.0-255.0-0.0","jzn59dl4","","","","","","","","","","","","","","","","","","","","","","","","","","","","","","","","","",""
"","html-keyboard-response","166","294735","0.0-255.0-1.0","jzn59dl4","1920","1080","","","","","","","","","","","null","Wrong","Feedback","","null","","","","","","","","","","","","","","","","",""
"","call-function","167","294735","0.0-255.0-2.0","jzn59dl4","","","","","","","","","","","","","","","","","","","","","","","","","","","","","","","","","",""
"","html-keyboard-response","168","295489","0.0-256.0","jzn59dl4","1920","1080","","","","","","","","","","","null","+","Fixation - short","","null","","","","","","","","","","","","","","","","",""
"","html-keyboard-response","169","296011","0.0-257.0","jzn59dl4","","","","","","","","","","","","","521","geb","diagnostic trial","","j","","1","3","4","false","false","false","both pre & post","LEFT","RIGHT","j","1","false","","","",""
"","html-keyboard-response","170","296769","0.0-260.0","jzn59dl4","1920","1080","","","","","","","","","","","null","+","Fixation - short","","null","","","","","","","","","","","","","","","","",""
"","canvas-keyboard-response","171","298031","0.0-261.0","jzn59dl4","","","","","","","","","","","","","null","Cue","Cue","","null","","1","3","","","false","","","","","","","","","","",""
"","html-keyboard-response","172","298790","0.0-262.0","jzn59dl4","1920","1080","","","","","","","","","","","null","+","Fixation - short","","null","","","","","","","","","","","","","","","","",""
"","html-keyboard-response","173","299302","0.0-263.0","jzn59dl4","","","","","","","","","","","","","512","geb","diagnostic trial","","j","","1","4","4","true","false","false","both pre & post","LEFT","RIGHT","j","1","false","","","",""
"","html-keyboard-response","174","300055","0.0-266.0","jzn59dl4","1920","1080","","","","","","","","","","","null","+","Fixation - short","","null","","","","","","","","","","","","","","","","",""
"","html-keyboard-response","175","300453","0.0-267.0","jzn59dl4","","","","","","","","","","","","","398","geb","diagnostic trial","","j","","1","5","4","true","false","false","both pre & post","LEFT","RIGHT","j","1","false","","","",""
"","html-keyboard-response","176","301213","0.0-270.0","jzn59dl4","1920","1080","","","","","","","","","","","null","+","Fixation - short","","null","","","","","","","","","","","","","","","","",""
"","html-keyboard-response","177","301782","0.0-271.0","jzn59dl4","","","","","","","","","","","","","568","uen","diagnostic trial","","j","","1","6","4","true","false","false","both pre & post","RIGHT","RIGHT","j","1","true","","","",""
"","html-keyboard-response","178","302547","0.0-274.0","jzn59dl4","1920","1080","","","","","","","","","","","null","+","Fixation - short","","null","","","","","","","","","","","","","","","","",""
"","html-keyboard-response","179","302998","0.0-275.0","jzn59dl4","","","","","","","","","","","","","451","geb","diagnostic trial","","j","","1","7","4","true","false","false","both pre & post","LEFT","RIGHT","j","1","false","","","",""
"","html-keyboard-response","180","303757","0.0-278.0","jzn59dl4","1920","1080","","","","","","","","","","","null","+","Fixation - short","","null","","","","","","","","","","","","","","","","",""
"","html-keyboard-response","181","304368","0.0-279.0","jzn59dl4","","","","","","","","","","","","","611","geb","inducer trial","","j","","1","","","","true","","","","","f","0","","false","LEFT","",""
"","call-function","182","304369","0.0-281.0-0.0","jzn59dl4","","","","","","","","","","","","","","","","","","","","","","","","","","","","","","","","","",""
"","html-keyboard-response","183","304671","0.0-281.0-1.0","jzn59dl4","1920","1080","","","","","","","","","","","null","Wrong","Feedback","","null","","","","","","","","","","","","","","","","",""
"","call-function","184","304672","0.0-281.0-2.0","jzn59dl4","","","","","","","","","","","","","","","","","","","","","","","","","","","","","","","","","",""
"","html-keyboard-response","185","305427","0.0-282.0","jzn59dl4","1920","1080","","","","","","","","","","","null","+","Fixation - short","","null","","","","","","","","","","","","","","","","",""
"","html-keyboard-response","186","309158","0.0-283.0","jzn59dl4","","","","","","","","","","","","","3730","If flh press LEFT | If vpu press RIGHT","inducer instructions",""," ","","2","","","","","","","","","","","","","","",""
"","html-keyboard-response","187","309911","0.0-284.0","jzn59dl4","1920","1080","","","","","","","","","","","null","+","Fixation - short","","null","","","","","","","","","","","","","","","","",""
"","html-keyboard-response","188","310636","0.0-285.0","jzn59dl4","","","","","","","","","","","","","724","vpu","diagnostic trial","","f","","2","0","8","false","false","true","both pre & post","RIGHT","LEFT","f","1","false","","","",""
"","html-keyboard-response","189","311395","0.0-288.0","jzn59dl4","1920","1080","","","","","","","","","","","null","+","Fixation - short","","null","","","","","","","","","","","","","","","","",""
"","html-keyboard-response","190","311965","0.0-289.0","jzn59dl4","","","","","","","","","","","","","569","flh","diagnostic trial","","f","","2","1","8","false","false","true","both pre & post","LEFT","LEFT","f","1","true","","","",""
"","html-keyboard-response","191","312728","0.0-292.0","jzn59dl4","1920","1080","","","","","","","","","","","null","+","Fixation - short","","null","","","","","","","","","","","","","","","","",""
"","html-keyboard-response","192","313122","0.0-293.0","jzn59dl4","","","","","","","","","","","","","393","flh","diagnostic trial","","f","","2","2","8","false","false","true","both pre & post","LEFT","LEFT","f","1","true","","","",""
"","html-keyboard-response","193","313888","0.0-296.0","jzn59dl4","1920","1080","","","","","","","","","","","null","+","Fixation - short","","null","","","","","","","","","","","","","","","","",""
"","html-keyboard-response","194","314541","0.0-297.0","jzn59dl4","","","","","","","","","","","","","652","vpu","diagnostic trial","","j","","2","3","8","false","false","false","both pre & post","RIGHT","RIGHT","j","1","true","","","",""
"","html-keyboard-response","195","315296","0.0-300.0","jzn59dl4","1920","1080","","","","","","","","","","","null","+","Fixation - short","","null","","","","","","","","","","","","","","","","",""
"","html-keyboard-response","196","315867","0.0-301.0","jzn59dl4","","","","","","","","","","","","","570","vpu","diagnostic trial","","j","","2","4","8","false","false","false","both pre & post","RIGHT","RIGHT","j","1","true","","","",""
"","html-keyboard-response","197","316622","0.0-304.0","jzn59dl4","1920","1080","","","","","","","","","","","null","+","Fixation - short","","null","","","","","","","","","","","","","","","","",""
"","html-keyboard-response","198","317035","0.0-305.0","jzn59dl4","","","","","","","","","","","","","412","vpu","diagnostic trial","","j","","2","5","8","false","false","true","both pre & post","RIGHT","LEFT","f","0","false","","","",""
"","call-function","199","317036","0.0-307.0-0.0","jzn59dl4","","","","","","","","","","","","","","","","","","","","","","","","","","","","","","","","","",""
"","html-keyboard-response","200","317347","0.0-307.0-1.0","jzn59dl4","1920","1080","","","","","","","","","","","null","Wrong","Feedback","","null","","","","","","","","","","","","","","","","",""
"","call-function","201","317348","0.0-307.0-2.0","jzn59dl4","","","","","","","","","","","","","","","","","","","","","","","","","","","","","","","","","",""
"","html-keyboard-response","202","318105","0.0-308.0","jzn59dl4","1920","1080","","","","","","","","","","","null","+","Fixation - short","","null","","","","","","","","","","","","","","","","",""
"","html-keyboard-response","203","318867","0.0-309.0","jzn59dl4","","","","","","","","","","","","","761","flh","diagnostic trial","","j","","2","6","8","false","false","false","both pre & post","LEFT","RIGHT","j","1","false","","","",""
"","html-keyboard-response","204","319629","0.0-312.0","jzn59dl4","1920","1080","","","","","","","","","","","null","+","Fixation - short","","null","","","","","","","","","","","","","","","","",""
"","html-keyboard-response","205","320173","0.0-313.0","jzn59dl4","","","","","","","","","","","","","543","vpu","diagnostic trial","","j","","2","7","8","false","false","false","both pre & post","RIGHT","RIGHT","j","1","true","","","",""
"","html-keyboard-response","206","320930","0.0-316.0","jzn59dl4","1920","1080","","","","","","","","","","","null","+","Fixation - short","","null","","","","","","","","","","","","","","","","",""
"","canvas-keyboard-response","207","322182","0.0-317.0","jzn59dl4","","","","","","","","","","","","","null","Cue","Cue","","null","","2","7","","","false","","","","","","","","","","",""
"","html-keyboard-response","208","322943","0.0-318.0","jzn59dl4","1920","1080","","","","","","","","","","","null","+","Fixation - short","","null","","","","","","","","","","","","","","","","",""
"","html-keyboard-response","209","323517","0.0-319.0","jzn59dl4","","","","","","","","","","","","","573","flh","diagnostic trial","","f","","2","8","8","true","false","true","both pre & post","LEFT","LEFT","f","1","true","","","",""
"","html-keyboard-response","210","324272","0.0-322.0","jzn59dl4","1920","1080","","","","","","","","","","","null","+","Fixation - short","","null","","","","","","","","","","","","","","","","",""
"","html-keyboard-response","211","324884","0.0-323.0","jzn59dl4","","","","","","","","","","","","","611","flh","diagnostic trial","","j","","2","9","8","true","false","false","both pre & post","LEFT","RIGHT","j","1","false","","","",""
"","html-keyboard-response","212","325647","0.0-326.0","jzn59dl4","1920","1080","","","","","","","","","","","null","+","Fixation - short","","null","","","","","","","","","","","","","","","","",""
"","html-keyboard-response","213","326138","0.0-327.0","jzn59dl4","","","","","","","","","","","","","490","flh","diagnostic trial","","f","","2","10","8","true","false","true","both pre & post","LEFT","LEFT","f","1","true","","","",""
"","html-keyboard-response","214","326897","0.0-330.0","jzn59dl4","1920","1080","","","","","","","","","","","null","+","Fixation - short","","null","","","","","","","","","","","","","","","","",""
"","html-keyboard-response","215","327416","0.0-331.0","jzn59dl4","","","","","","","","","","","","","518","vpu","diagnostic trial","","j","","2","11","8","true","false","false","both pre & post","RIGHT","RIGHT","j","1","true","","","",""
"","html-keyboard-response","216","328179","0.0-334.0","jzn59dl4","1920","1080","","","","","","","","","","","null","+","Fixation - short","","null","","","","","","","","","","","","","","","","",""
"","html-keyboard-response","217","329052","0.0-335.0","jzn59dl4","","","","","","","","","","","","","872","flh","inducer trial","","f","","2","","","","true","","","","","f","1","","false","LEFT","",""
"","html-keyboard-response","218","329812","0.0-338.0","jzn59dl4","1920","1080","","","","","","","","","","","null","+","Fixation - short","","null","","","","","","","","","","","","","","","","",""
"","html-keyboard-response","219","332508","0.0-339.0","jzn59dl4","","","","","","","","","","","","","2695","If ibg press LEFT | If pmf press RIGHT","inducer instructions",""," ","","3","","","","","","","","","","","","","","",""
"","html-keyboard-response","220","333260","0.0-340.0","jzn59dl4","1920","1080","","","","","","","","","","","null","+","Fixation - short","","null","","","","","","","","","","","","","","","","",""
"","html-keyboard-response","221","333823","0.0-341.0","jzn59dl4","","","","","","","","","","","","","563","ibg","diagnostic trial","","j","","3","0","11","false","false","false","both pre & post","LEFT","RIGHT","j","1","false","","","",""
"","html-keyboard-response","222","334585","0.0-344.0","jzn59dl4","1920","1080","","","","","","","","","","","null","+","Fixation - short","","null","","","","","","","","","","","","","","","","",""
"","html-keyboard-response","223","335017","0.0-345.0","jzn59dl4","","","","","","","","","","","","","430","ibg","diagnostic trial","","j","","3","1","11","false","false","false","both pre & post","LEFT","RIGHT","j","1","false","","","",""
"","html-keyboard-response","224","335772","0.0-348.0","jzn59dl4","1920","1080","","","","","","","","","","","null","+","Fixation - short","","null","","","","","","","","","","","","","","","","",""
"","html-keyboard-response","225","336245","0.0-349.0","jzn59dl4","","","","","","","","","","","","","472","pmf","diagnostic trial","","f","","3","2","11","false","false","true","both pre & post","RIGHT","LEFT","f","1","false","","","",""
"","html-keyboard-response","226","337007","0.0-352.0","jzn59dl4","1920","1080","","","","","","","","","","","null","+","Fixation - short","","null","","","","","","","","","","","","","","","","",""
"","html-keyboard-response","227","337468","0.0-353.0","jzn59dl4","","","","","","","","","","","","","460","ibg","diagnostic trial","","j","","3","3","11","false","false","false","both pre & post","LEFT","RIGHT","j","1","false","","","",""
"","html-keyboard-response","228","338224","0.0-356.0","jzn59dl4","1920","1080","","","","","","","","","","","null","+","Fixation - short","","null","","","","","","","","","","","","","","","","",""
"","html-keyboard-response","229","338682","0.0-357.0","jzn59dl4","","","","","","","","","","","","","457","ibg","diagnostic trial","","j","","3","4","11","false","false","true","both pre & post","LEFT","LEFT","f","0","true","","","",""
"","call-function","230","338683","0.0-359.0-0.0","jzn59dl4","","","","","","","","","","","","","","","","","","","","","","","","","","","","","","","","","",""
"","html-keyboard-response","231","338996","0.0-359.0-1.0","jzn59dl4","1920","1080","","","","","","","","","","","null","Wrong","Feedback","","null","","","","","","","","","","","","","","","","",""
"","call-function","232","338997","0.0-359.0-2.0","jzn59dl4","","","","","","","","","","","","","","","","","","","","","","","","","","","","","","","","","",""
"","html-keyboard-response","233","339754","0.0-360.0","jzn59dl4","1920","1080","","","","","","","","","","","null","+","Fixation - short","","null","","","","","","","","","","","","","","","","",""
"","html-keyboard-response","234","340380","0.0-361.0","jzn59dl4","","","","","","","","","","","","","625","ibg","diagnostic trial","","f","","3","5","11","false","false","true","both pre & post","LEFT","LEFT","f","1","true","","","",""
"","html-keyboard-response","235","341141","0.0-364.0","jzn59dl4","1920","1080","","","","","","","","","","","null","+","Fixation - short","","null","","","","","","","","","","","","","","","","",""
"","html-keyboard-response","236","341522","0.0-365.0","jzn59dl4","","","","","","","","","","","","","380","pmf","diagnostic trial","","j","","3","6","11","false","false","false","both pre & post","RIGHT","RIGHT","j","1","true","","","",""
"","html-keyboard-response","237","342285","0.0-368.0","jzn59dl4","1920","1080","","","","","","","","","","","null","+","Fixation - short","","null","","","","","","","","","","","","","","","","",""
"","html-keyboard-response","238","342689","0.0-369.0","jzn59dl4","","","","","","","","","","","","","403","pmf","diagnostic trial","","f","","3","7","11","false","false","true","both pre & post","RIGHT","LEFT","f","1","false","","","",""
"","html-keyboard-response","239","343440","0.0-372.0","jzn59dl4","1920","1080","","","","","","","","","","","null","+","Fixation - short","","null","","","","","","","","","","","","","","","","",""
"","html-keyboard-response","240","344058","0.0-373.0","jzn59dl4","","","","","","","","","","","","","617","ibg","diagnostic trial","","f","","3","8","11","false","false","true","both pre & post","LEFT","LEFT","f","1","true","","","",""
"","html-keyboard-response","241","344816","0.0-376.0","jzn59dl4","1920","1080","","","","","","","","","","","null","+","Fixation - short","","null","","","","","","","","","","","","","","","","",""
"","html-keyboard-response","242","345343","0.0-377.0","jzn59dl4","","","","","","","","","","","","","527","ibg","diagnostic trial","","j","","3","9","11","false","false","false","both pre & post","LEFT","RIGHT","j","1","false","","","",""
"","html-keyboard-response","243","346098","0.0-380.0","jzn59dl4","1920","1080","","","","","","","","","","","null","+","Fixation - short","","null","","","","","","","","","","","","","","","","",""
"","html-keyboard-response","244","346537","0.0-381.0","jzn59dl4","","","","","","","","","","","","","438","ibg","diagnostic trial","","j","","3","10","11","false","false","false","both pre & post","LEFT","RIGHT","j","1","false","","","",""
"","html-keyboard-response","245","347291","0.0-384.0","jzn59dl4","1920","1080","","","","","","","","","","","null","+","Fixation - short","","null","","","","","","","","","","","","","","","","",""
"","canvas-keyboard-response","246","348555","0.0-385.0","jzn59dl4","","","","","","","","","","","","","null","Cue","Cue","","null","","3","10","","","false","","","","","","","","","","",""
"","html-keyboard-response","247","349314","0.0-386.0","jzn59dl4","1920","1080","","","","","","","","","","","null","+","Fixation - short","","null","","","","","","","","","","","","","","","","",""
"","html-keyboard-response","248","349915","0.0-387.0","jzn59dl4","","","","","","","","","","","","","601","ibg","diagnostic trial","","j","","3","11","11","true","false","false","both pre & post","LEFT","RIGHT","j","1","false","","","",""
"","html-keyboard-response","249","350673","0.0-390.0","jzn59dl4","1920","1080","","","","","","","","","","","null","+","Fixation - short","","null","","","","","","","","","","","","","","","","",""
"","html-keyboard-response","250","351475","0.0-391.0","jzn59dl4","","","","","","","","","","","","","802","ibg","inducer trial","","f","","3","","","","true","","","","","f","1","","false","LEFT","",""
"","html-keyboard-response","251","352228","0.0-394.0","jzn59dl4","1920","1080","","","","","","","","","","","null","+","Fixation - short","","null","","","","","","","","","","","","","","","","",""
"","html-keyboard-response","252","353652","0.0-395.0","jzn59dl4","","","","","","","","","","","","","1424","If amb press LEFT | If cta press RIGHT","inducer instructions",""," ","","4","","","","","","","","","","","","","","",""
"","html-keyboard-response","253","354410","0.0-396.0","jzn59dl4","1920","1080","","","","","","","","","","","null","+","Fixation - short","","null","","","","","","","","","","","","","","","","",""
"","html-keyboard-response","254","355553","0.0-397.0","jzn59dl4","","","","","","","","","","","","","1143","cta","diagnostic trial","","j","","4","0","6","false","false","false","both pre & post","RIGHT","RIGHT","j","1","true","","","",""
"","html-keyboard-response","255","356317","0.0-400.0","jzn59dl4","1920","1080","","","","","","","","","","","null","+","Fixation - short","","null","","","","","","","","","","","","","","","","",""
"","html-keyboard-response","256","356867","0.0-401.0","jzn59dl4","","","","","","","","","","","","","549","amb","diagnostic trial","","f","","4","1","6","false","false","false","both pre & post","LEFT","RIGHT","j","0","false","","","",""
"","call-function","257","356867","0.0-403.0-0.0","jzn59dl4","","","","","","","","","","","","","","","","","","","","","","","","","","","","","","","","","",""
"","html-keyboard-response","258","357184","0.0-403.0-1.0","jzn59dl4","1920","1080","","","","","","","","","","","null","Wrong","Feedback","","null","","","","","","","","","","","","","","","","",""
"","call-function","259","357184","0.0-403.0-2.0","jzn59dl4","","","","","","","","","","","","","","","","","","","","","","","","","","","","","","","","","",""
"","html-keyboard-response","260","357940","0.0-404.0","jzn59dl4","1920","1080","","","","","","","","","","","null","+","Fixation - short","","null","","","","","","","","","","","","","","","","",""
"","html-keyboard-response","261","358556","0.0-405.0","jzn59dl4","","","","","","","","","","","","","614","cta","diagnostic trial","","j","","4","2","6","false","false","false","both pre & post","RIGHT","RIGHT","j","1","true","","","",""
"","html-keyboard-response","262","359315","0.0-408.0","jzn59dl4","1920","1080","","","","","","","","","","","null","+","Fixation - short","","null","","","","","","","","","","","","","","","","",""
"","html-keyboard-response","263","359675","0.0-409.0","jzn59dl4","","","","","","","","","","","","","359","amb","diagnostic trial","","j","","4","3","6","false","false","false","both pre & post","LEFT","RIGHT","j","1","false","","","",""
"","html-keyboard-response","264","360442","0.0-412.0","jzn59dl4","1920","1080","","","","","","","","","","","null","+","Fixation - short","","null","","","","","","","","","","","","","","","","",""
"","html-keyboard-response","265","360827","0.0-413.0","jzn59dl4","","","","","","","","","","","","","384","amb","diagnostic trial","","j","","4","4","6","false","false","false","both pre & post","LEFT","RIGHT","j","1","false","","","",""
"","html-keyboard-response","266","361588","0.0-416.0","jzn59dl4","1920","1080","","","","","","","","","","","null","+","Fixation - short","","null","","","","","","","","","","","","","","","","",""
"","html-keyboard-response","267","362144","0.0-417.0","jzn59dl4","","","","","","","","","","","","","555","cta","diagnostic trial","","f","","4","5","6","false","false","true","both pre & post","RIGHT","LEFT","f","1","false","","","",""
"","html-keyboard-response","268","362900","0.0-420.0","jzn59dl4","1920","1080","","","","","","","","","","","null","+","Fixation - short","","null","","","","","","","","","","","","","","","","",""
"","canvas-keyboard-response","269","364166","0.0-421.0","jzn59dl4","","","","","","","","","","","","","null","Cue","Cue","","null","","4","5","","","false","","","","","","","","","","",""
"","html-keyboard-response","270","364920","0.0-422.0","jzn59dl4","1920","1080","","","","","","","","","","","null","+","Fixation - short","","null","","","","","","","","","","","","","","","","",""
"","html-keyboard-response","271","365600","0.0-423.0","jzn59dl4","","","","","","","","","","","","","680","amb","diagnostic trial","","f","","4","6","6","true","false","true","both pre & post","LEFT","LEFT","f","1","true","","","",""
"","html-keyboard-response","272","366357","0.0-426.0","jzn59dl4","1920","1080","","","","","","","","","","","null","+","Fixation - short","","null","","","","","","","","","","","","","","","","",""
"","html-keyboard-response","273","366929","0.0-427.0","jzn59dl4","","","","","","","","","","","","","571","cta","diagnostic trial","","j","","4","7","6","true","false","false","both pre & post","RIGHT","RIGHT","j","1","true","","","",""
"","html-keyboard-response","274","367689","0.0-430.0","jzn59dl4","1920","1080","","","","","","","","","","","null","+","Fixation - short","","null","","","","","","","","","","","","","","","","",""
"","html-keyboard-response","275","368214","0.0-431.0","jzn59dl4","","","","","","","","","","","","","524","amb","inducer trial","","f","","4","","","","true","","","","","f","1","","false","LEFT","",""
"","html-keyboard-response","276","368976","0.0-434.0","jzn59dl4","1920","1080","","","","","","","","","","","null","+","Fixation - short","","null","","","","","","","","","","","","","","","","",""
"","html-keyboard-response","277","371208","0.0-435.0","jzn59dl4","","","","","","","","","","","","","2231","If pte press LEFT | If anz press RIGHT","inducer instructions",""," ","","5","","","","","","","","","","","","","","",""
"","html-keyboard-response","278","371971","0.0-436.0","jzn59dl4","1920","1080","","","","","","","","","","","null","+","Fixation - short","","null","","","","","","","","","","","","","","","","",""
"","html-keyboard-response","279","372471","0.0-437.0","jzn59dl4","","","","","","","","","","","","","499","anz","diagnostic trial","","j","","5","0","4","false","false","false","both pre & post","RIGHT","RIGHT","j","1","true","","","",""
"","html-keyboard-response","280","373235","0.0-440.0","jzn59dl4","1920","1080","","","","","","","","","","","null","+","Fixation - short","","null","","","","","","","","","","","","","","","","",""
"","html-keyboard-response","281","373611","0.0-441.0","jzn59dl4","","","","","","","","","","","","","375","pte","diagnostic trial","","f","","5","1","4","false","false","true","both pre & post","LEFT","LEFT","f","1","true","","","",""
"","html-keyboard-response","282","374365","0.0-444.0","jzn59dl4","1920","1080","","","","","","","","","","","null","+","Fixation - short","","null","","","","","","","","","","","","","","","","",""
"","html-keyboard-response","283","374824","0.0-445.0","jzn59dl4","","","","","","","","","","","","","458","pte","diagnostic trial","","f","","5","2","4","false","false","true","both pre & post","LEFT","LEFT","f","1","true","","","",""
"","html-keyboard-response","284","375582","0.0-448.0","jzn59dl4","1920","1080","","","","","","","","","","","null","+","Fixation - short","","null","","","","","","","","","","","","","","","","",""
"","html-keyboard-response","285","375990","0.0-449.0","jzn59dl4","","","","","","","","","","","","","407","anz","diagnostic trial","","j","","5","3","4","false","false","true","both pre & post","RIGHT","LEFT","f","0","false","","","",""
"","call-function","286","375990","0.0-451.0-0.0","jzn59dl4","","","","","","","","","","","","","","","","","","","","","","","","","","","","","","","","","",""
"","html-keyboard-response","287","376298","0.0-451.0-1.0","jzn59dl4","1920","1080","","","","","","","","","","","null","Wrong","Feedback","","null","","","","","","","","","","","","","","","","",""
"","call-function","288","376298","0.0-451.0-2.0","jzn59dl4","","","","","","","","","","","","","","","","","","","","","","","","","","","","","","","","","",""
"","html-keyboard-response","289","377056","0.0-452.0","jzn59dl4","1920","1080","","","","","","","","","","","null","+","Fixation - short","","null","","","","","","","","","","","","","","","","",""
"","canvas-keyboard-response","290","378321","0.0-453.0","jzn59dl4","","","","","","","","","","","","","null","Cue","Cue","","null","","5","3","","","false","","","","","","","","","","",""
"","html-keyboard-response","291","379077","0.0-454.0","jzn59dl4","1920","1080","","","","","","","","","","","null","+","Fixation - short","","null","","","","","","","","","","","","","","","","",""
"","html-keyboard-response","292","379777","0.0-455.0","jzn59dl4","","","","","","","","","","","","","699","anz","diagnostic trial","","f","","5","4","4","true","false","true","both pre & post","RIGHT","LEFT","f","1","false","","","",""
"","html-keyboard-response","293","380539","0.0-458.0","jzn59dl4","1920","1080","","","","","","","","","","","null","+","Fixation - short","","null","","","","","","","","","","","","","","","","",""
"","html-keyboard-response","294","380940","0.0-459.0","jzn59dl4","","","","","","","","","","","","","400","anz","diagnostic trial","","f","","5","5","4","true","false","true","both pre & post","RIGHT","LEFT","f","1","false","","","",""
"","html-keyboard-response","295","381696","0.0-462.0","jzn59dl4","1920","1080","","","","","","","","","","","null","+","Fixation - short","","null","","","","","","","","","","","","","","","","",""
"","html-keyboard-response","296","381973","0.0-463.0","jzn59dl4","","","","","","","","","","","","","277","anz","diagnostic trial","","f","","5","6","4","true","false","true","both pre & post","RIGHT","LEFT","f","1","false","","","",""
"","html-keyboard-response","297","382731","0.0-466.0","jzn59dl4","1920","1080","","","","","","","","","","","null","+","Fixation - short","","null","","","","","","","","","","","","","","","","",""
"","html-keyboard-response","298","383359","0.0-467.0","jzn59dl4","","","","","","","","","","","","","627","anz","inducer trial","","j","","5","","","","true","","","","","j","1","","false","RIGHT","",""
"","html-keyboard-response","299","384123","0.0-470.0","jzn59dl4","1920","1080","","","","","","","","","","","null","+","Fixation - short","","null","","","","","","","","","","","","","","","","",""
"","html-keyboard-response","300","385596","0.0-471.0","jzn59dl4","","","","","","","","","","","","","1472","If cnl press LEFT | If gdn press RIGHT","inducer instructions",""," ","","6","","","","","","","","","","","","","","",""
"","html-keyboard-response","301","386349","0.0-472.0","jzn59dl4","1920","1080","","","","","","","","","","","null","+","Fixation - short","","null","","","","","","","","","","","","","","","","",""
"","html-keyboard-response","302","386820","0.0-473.0","jzn59dl4","","","","","","","","","","","","","470","cnl","diagnostic trial","","f","","6","0","4","false","false","true","both pre & post","LEFT","LEFT","f","1","true","","","",""
"","html-keyboard-response","303","387581","0.0-476.0","jzn59dl4","1920","1080","","","","","","","","","","","null","+","Fixation - short","","null","","","","","","","","","","","","","","","","",""
"","html-keyboard-response","304","387923","0.0-477.0","jzn59dl4","","","","","","","","","","","","","342","cnl","diagnostic trial","","f","","6","1","4","false","false","false","both pre & post","LEFT","RIGHT","j","0","false","","","",""
"","call-function","305","387924","0.0-479.0-0.0","jzn59dl4","","","","","","","","","","","","","","","","","","","","","","","","","","","","","","","","","",""
"","html-keyboard-response","306","388229","0.0-479.0-1.0","jzn59dl4","1920","1080","","","","","","","","","","","null","Wrong","Feedback","","null","","","","","","","","","","","","","","","","",""
"","call-function","307","388230","0.0-479.0-2.0","jzn59dl4","","","","","","","","","","","","","","","","","","","","","","","","","","","","","","","","","",""
"","html-keyboard-response","308","388987","0.0-480.0","jzn59dl4","1920","1080","","","","","","","","","","","null","+","Fixation - short","","null","","","","","","","","","","","","","","","","",""
"","html-keyboard-response","309","389508","0.0-481.0","jzn59dl4","","","","","","","","","","","","","520","gdn","diagnostic trial","","j","","6","2","4","false","false","false","both pre & post","RIGHT","RIGHT","j","1","true","","","",""
"","html-keyboard-response","310","390261","0.0-484.0","jzn59dl4","1920","1080","","","","","","","","","","","null","+","Fixation - short","","null","","","","","","","","","","","","","","","","",""
"","html-keyboard-response","311","390726","0.0-485.0","jzn59dl4","","","","","","","","","","","","","464","gdn","diagnostic trial","","j","","6","3","4","false","false","false","both pre & post","RIGHT","RIGHT","j","1","true","","","",""
"","html-keyboard-response","312","391488","0.0-488.0","jzn59dl4","1920","1080","","","","","","","","","","","null","+","Fixation - short","","null","","","","","","","","","","","","","","","","",""
"","canvas-keyboard-response","313","392753","0.0-489.0","jzn59dl4","","","","","","","","","","","","","null","Cue","Cue","","null","","6","3","","","false","","","","","","","","","","",""
"","html-keyboard-response","314","393512","0.0-490.0","jzn59dl4","1920","1080","","","","","","","","","","","null","+","Fixation - short","","null","","","","","","","","","","","","","","","","",""
"","html-keyboard-response","315","394514","0.0-491.0","jzn59dl4","","","","","","","","","","","","","1001","cnl","diagnostic trial","","j","","6","4","4","true","false","false","both pre & post","LEFT","RIGHT","j","1","false","","","",""
"","html-keyboard-response","316","395279","0.0-494.0","jzn59dl4","1920","1080","","","","","","","","","","","null","+","Fixation - short","","null","","","","","","","","","","","","","","","","",""
"","html-keyboard-response","317","395679","0.0-495.0","jzn59dl4","","","","","","","","","","","","","399","cnl","diagnostic trial","","j","","6","5","4","true","false","false","both pre & post","LEFT","RIGHT","j","1","false","","","",""
"","html-keyboard-response","318","396436","0.0-498.0","jzn59dl4","1920","1080","","","","","","","","","","","null","+","Fixation - short","","null","","","","","","","","","","","","","","","","",""
"","html-keyboard-response","319","396922","0.0-499.0","jzn59dl4","","","","","","","","","","","","","485","gdn","diagnostic trial","","j","","6","6","4","true","false","false","both pre & post","RIGHT","RIGHT","j","1","true","","","",""
"","html-keyboard-response","320","397687","0.0-502.0","jzn59dl4","1920","1080","","","","","","","","","","","null","+","Fixation - short","","null","","","","","","","","","","","","","","","","",""
"","html-keyboard-response","321","398041","0.0-503.0","jzn59dl4","","","","","","","","","","","","","353","gdn","diagnostic trial","","j","","6","7","4","true","false","true","both pre & post","RIGHT","LEFT","f","0","false","","","",""
"","call-function","322","398041","0.0-505.0-0.0","jzn59dl4","","","","","","","","","","","","","","","","","","","","","","","","","","","","","","","","","",""
"","html-keyboard-response","323","398352","0.0-505.0-1.0","jzn59dl4","1920","1080","","","","","","","","","","","null","Wrong","Feedback","","null","","","","","","","","","","","","","","","","",""
"","call-function","324","398352","0.0-505.0-2.0","jzn59dl4","","","","","","","","","","","","","","","","","","","","","","","","","","","","","","","","","",""
"","html-keyboard-response","325","399111","0.0-506.0","jzn59dl4","1920","1080","","","","","","","","","","","null","+","Fixation - short","","null","","","","","","","","","","","","","","","","",""
"","html-keyboard-response","326","399759","0.0-507.0","jzn59dl4","","","","","","","","","","","","","646","cnl","inducer trial","","j","","6","","","","true","","","","","f","0","","false","LEFT","",""
"","call-function","327","399759","0.0-509.0-0.0","jzn59dl4","","","","","","","","","","","","","","","","","","","","","","","","","","","","","","","","","",""
"","html-keyboard-response","328","400069","0.0-509.0-1.0","jzn59dl4","1920","1080","","","","","","","","","","","null","Wrong","Feedback","","null","","","","","","","","","","","","","","","","",""
"","call-function","329","400069","0.0-509.0-2.0","jzn59dl4","","","","","","","","","","","","","","","","","","","","","","","","","","","","","","","","","",""
"","html-keyboard-response","330","400828","0.0-510.0","jzn59dl4","1920","1080","","","","","","","","","","","null","+","Fixation - short","","null","","","","","","","","","","","","","","","","",""
"","html-keyboard-response","331","402836","0.0-511.0","jzn59dl4","","","","","","","","","","","","","2007","If lpn press LEFT | If dij press RIGHT","inducer instructions",""," ","","7","","","","","","","","","","","","","","",""
"","html-keyboard-response","332","403596","0.0-512.0","jzn59dl4","1920","1080","","","","","","","","","","","null","+","Fixation - short","","null","","","","","","","","","","","","","","","","",""
"","html-keyboard-response","333","404362","0.0-513.0","jzn59dl4","","","","","","","","","","","","","765","dij","diagnostic trial","","f","","7","0","9","false","false","true","both pre & post","RIGHT","LEFT","f","1","false","","","",""
"","html-keyboard-response","334","405127","0.0-516.0","jzn59dl4","1920","1080","","","","","","","","","","","null","+","Fixation - short","","null","","","","","","","","","","","","","","","","",""
"","html-keyboard-response","335","405697","0.0-517.0","jzn59dl4","","","","","","","","","","","","","570","dij","diagnostic trial","","j","","7","1","9","false","false","false","both pre & post","RIGHT","RIGHT","j","1","true","","","",""
"","html-keyboard-response","336","406459","0.0-520.0","jzn59dl4","1920","1080","","","","","","","","","","","null","+","Fixation - short","","null","","","","","","","","","","","","","","","","",""
"","html-keyboard-response","337","407067","0.0-521.0","jzn59dl4","","","","","","","","","","","","","607","dij","diagnostic trial","","f","","7","2","9","false","false","true","both pre & post","RIGHT","LEFT","f","1","false","","","",""
"","html-keyboard-response","338","407832","0.0-524.0","jzn59dl4","1920","1080","","","","","","","","","","","null","+","Fixation - short","","null","","","","","","","","","","","","","","","","",""
"","html-keyboard-response","339","408529","0.0-525.0","jzn59dl4","","","","","","","","","","","","","696","lpn","diagnostic trial","","j","","7","3","9","false","false","true","both pre & post","LEFT","LEFT","f","0","true","","","",""
"","call-function","340","408530","0.0-527.0-0.0","jzn59dl4","","","","","","","","","","","","","","","","","","","","","","","","","","","","","","","","","",""
"","html-keyboard-response","341","408836","0.0-527.0-1.0","jzn59dl4","1920","1080","","","","","","","","","","","null","Wrong","Feedback","","null","","","","","","","","","","","","","","","","",""
"","call-function","342","408837","0.0-527.0-2.0","jzn59dl4","","","","","","","","","","","","","","","","","","","","","","","","","","","","","","","","","",""
"","html-keyboard-response","343","409595","0.0-528.0","jzn59dl4","1920","1080","","","","","","","","","","","null","+","Fixation - short","","null","","","","","","","","","","","","","","","","",""
"","html-keyboard-response","344","410182","0.0-529.0","jzn59dl4","","","","","","","","","","","","","586","dij","diagnostic trial","","f","","7","4","9","false","false","true","both pre & post","RIGHT","LEFT","f","1","false","","","",""
"","html-keyboard-response","345","410935","0.0-532.0","jzn59dl4","1920","1080","","","","","","","","","","","null","+","Fixation - short","","null","","","","","","","","","","","","","","","","",""
"","html-keyboard-response","346","411663","0.0-533.0","jzn59dl4","","","","","","","","","","","","","727","lpn","diagnostic trial","","f","","7","5","9","false","false","true","both pre & post","LEFT","LEFT","f","1","true","","","",""
"","html-keyboard-response","347","412421","0.0-536.0","jzn59dl4","1920","1080","","","","","","","","","","","null","+","Fixation - short","","null","","","","","","","","","","","","","","","","",""
"","html-keyboard-response","348","413008","0.0-537.0","jzn59dl4","","","","","","","","","","","","","587","dij","diagnostic trial","","j","","7","6","9","false","false","false","both pre & post","RIGHT","RIGHT","j","1","true","","","",""
"","html-keyboard-response","349","413768","0.0-540.0","jzn59dl4","1920","1080","","","","","","","","","","","null","+","Fixation - short","","null","","","","","","","","","","","","","","","","",""
"","html-keyboard-response","350","414395","0.0-541.0","jzn59dl4","","","","","","","","","","","","","626","dij","diagnostic trial","","f","","7","7","9","false","false","true","both pre & post","RIGHT","LEFT","f","1","false","","","",""
"","html-keyboard-response","351","415159","0.0-544.0","jzn59dl4","1920","1080","","","","","","","","","","","null","+","Fixation - short","","null","","","","","","","","","","","","","","","","",""
"","html-keyboard-response","352","415817","0.0-545.0","jzn59dl4","","","","","","","","","","","","","657","dij","diagnostic trial","","j","","7","8","9","false","false","false","both pre & post","RIGHT","RIGHT","j","1","true","","","",""
"","html-keyboard-response","353","416579","0.0-548.0","jzn59dl4","1920","1080","","","","","","","","","","","null","+","Fixation - short","","null","","","","","","","","","","","","","","","","",""
"","canvas-keyboard-response","354","417830","0.0-549.0","jzn59dl4","","","","","","","","","","","","","null","Cue","Cue","","null","","7","8","","","false","","","","","","","","","","",""
"","html-keyboard-response","355","418589","0.0-550.0","jzn59dl4","1920","1080","","","","","","","","","","","null","+","Fixation - short","","null","","","","","","","","","","","","","","","","",""
"","html-keyboard-response","356","419197","0.0-551.0","jzn59dl4","","","","","","","","","","","","","607","dij","diagnostic trial","","f","","7","9","9","true","false","false","both pre & post","RIGHT","RIGHT","j","0","true","","","",""
"","call-function","357","419198","0.0-553.0-0.0","jzn59dl4","","","","","","","","","","","","","","","","","","","","","","","","","","","","","","","","","",""
"","html-keyboard-response","358","419504","0.0-553.0-1.0","jzn59dl4","1920","1080","","","","","","","","","","","null","Wrong","Feedback","","null","","","","","","","","","","","","","","","","",""
"","call-function","359","419504","0.0-553.0-2.0","jzn59dl4","","","","","","","","","","","","","","","","","","","","","","","","","","","","","","","","","",""
"","html-keyboard-response","360","420259","0.0-554.0","jzn59dl4","1920","1080","","","","","","","","","","","null","+","Fixation - short","","null","","","","","","","","","","","","","","","","",""
"","html-keyboard-response","361","420801","0.0-555.0","jzn59dl4","","","","","","","","","","","","","541","dij","diagnostic trial","","j","","7","10","9","true","false","false","both pre & post","RIGHT","RIGHT","j","1","true","","","",""
"","html-keyboard-response","362","421556","0.0-558.0","jzn59dl4","1920","1080","","","","","","","","","","","null","+","Fixation - short","","null","","","","","","","","","","","","","","","","",""
"","html-keyboard-response","363","422152","0.0-559.0","jzn59dl4","","","","","","","","","","","","","595","lpn","diagnostic trial","","f","","7","11","9","true","false","true","both pre & post","LEFT","LEFT","f","1","true","","","",""
"","html-keyboard-response","364","422906","0.0-562.0","jzn59dl4","1920","1080","","","","","","","","","","","null","+","Fixation - short","","null","","","","","","","","","","","","","","","","",""
"","html-keyboard-response","365","423882","0.0-563.0","jzn59dl4","","","","","","","","","","","","","975","dij","diagnostic trial","","f","","7","12","9","true","false","true","both pre & post","RIGHT","LEFT","f","1","false","","","",""
"","html-keyboard-response","366","424636","0.0-566.0","jzn59dl4","1920","1080","","","","","","","","","","","null","+","Fixation - short","","null","","","","","","","","","","","","","","","","",""
"","html-keyboard-response","367","425407","0.0-567.0","jzn59dl4","","","","","","","","","","","","","770","dij","inducer trial","","j","","7","","","","true","","","","","j","1","","false","RIGHT","",""
"","html-keyboard-response","368","426168","0.0-570.0","jzn59dl4","1920","1080","","","","","","","","","","","null","+","Fixation - short","","null","","","","","","","","","","","","","","","","",""
"","html-keyboard-response","369","427616","0.0-571.0","jzn59dl4","","","","","","","","","","","","","1447","If yna press LEFT | If cer press RIGHT","inducer instructions",""," ","","8","","","","","","","","","","","","","","",""
"","html-keyboard-response","370","428380","0.0-572.0","jzn59dl4","1920","1080","","","","","","","","","","","null","+","Fixation - short","","null","","","","","","","","","","","","","","","","",""
"","html-keyboard-response","371","428870","0.0-573.0","jzn59dl4","","","","","","","","","","","","","489","yna","diagnostic trial","","f","","8","0","4","false","false","true","both pre & post","LEFT","LEFT","f","1","true","","","",""
"","html-keyboard-response","372","429632","0.0-576.0","jzn59dl4","1920","1080","","","","","","","","","","","null","+","Fixation - short","","null","","","","","","","","","","","","","","","","",""
"","html-keyboard-response","373","430155","0.0-577.0","jzn59dl4","","","","","","","","","","","","","522","cer","diagnostic trial","","j","","8","1","4","false","false","false","both pre & post","RIGHT","RIGHT","j","1","true","","","",""
"","html-keyboard-response","374","430916","0.0-580.0","jzn59dl4","1920","1080","","","","","","","","","","","null","+","Fixation - short","","null","","","","","","","","","","","","","","","","",""
"","html-keyboard-response","375","431443","0.0-581.0","jzn59dl4","","","","","","","","","","","","","527","cer","diagnostic trial","","j","","8","2","4","false","false","false","both pre & post","RIGHT","RIGHT","j","1","true","","","",""
"","html-keyboard-response","376","432198","0.0-584.0","jzn59dl4","1920","1080","","","","","","","","","","","null","+","Fixation - short","","null","","","","","","","","","","","","","","","","",""
"","html-keyboard-response","377","432635","0.0-585.0","jzn59dl4","","","","","","","","","","","","","436","cer","diagnostic trial","","j","","8","3","4","false","false","false","both pre & post","RIGHT","RIGHT","j","1","true","","","",""
"","html-keyboard-response","378","433386","0.0-588.0","jzn59dl4","1920","1080","","","","","","","","","","","null","+","Fixation - short","","null","","","","","","","","","","","","","","","","",""
"","canvas-keyboard-response","379","434643","0.0-589.0","jzn59dl4","","","","","","","","","","","","","null","Cue","Cue","","null","","8","3","","","false","","","","","","","","","","",""
"","html-keyboard-response","380","435401","0.0-590.0","jzn59dl4","1920","1080","","","","","","","","","","","null","+","Fixation - short","","null","","","","","","","","","","","","","","","","",""
"","html-keyboard-response","381","435916","0.0-591.0","jzn59dl4","","","","","","","","","","","","","514","yna","diagnostic trial","","f","","8","4","4","true","false","true","both pre & post","LEFT","LEFT","f","1","true","","","",""
"","html-keyboard-response","382","436671","0.0-594.0","jzn59dl4","1920","1080","","","","","","","","","","","null","+","Fixation - short","","null","","","","","","","","","","","","","","","","",""
"","html-keyboard-response","383","437104","0.0-595.0","jzn59dl4","","","","","","","","","","","","","433","yna","diagnostic trial","","f","","8","5","4","true","false","true","both pre & post","LEFT","LEFT","f","1","true","","","",""
"","html-keyboard-response","384","437863","0.0-598.0","jzn59dl4","1920","1080","","","","","","","","","","","null","+","Fixation - short","","null","","","","","","","","","","","","","","","","",""
"","html-keyboard-response","385","438368","0.0-599.0","jzn59dl4","","","","","","","","","","","","","505","cer","diagnostic trial","","j","","8","6","4","true","false","false","both pre & post","RIGHT","RIGHT","j","1","true","","","",""
"","html-keyboard-response","386","439130","0.0-602.0","jzn59dl4","1920","1080","","","","","","","","","","","null","+","Fixation - short","","null","","","","","","","","","","","","","","","","",""
"","html-keyboard-response","387","439758","0.0-603.0","jzn59dl4","","","","","","","","","","","","","627","cer","diagnostic trial","","f","","8","7","4","true","false","true","both pre & post","RIGHT","LEFT","f","1","false","","","",""
"","html-keyboard-response","388","440518","0.0-606.0","jzn59dl4","1920","1080","","","","","","","","","","","null","+","Fixation - short","","null","","","","","","","","","","","","","","","","",""
"","html-keyboard-response","389","441437","0.0-607.0","jzn59dl4","","","","","","","","","","","","","918","yna","inducer trial","","j","","8","","","","true","","","","","f","0","","false","LEFT","",""
"","call-function","390","441437","0.0-609.0-0.0","jzn59dl4","","","","","","","","","","","","","","","","","","","","","","","","","","","","","","","","","",""
"","html-keyboard-response","391","441742","0.0-609.0-1.0","jzn59dl4","1920","1080","","","","","","","","","","","null","Wrong","Feedback","","null","","","","","","","","","","","","","","","","",""
"","call-function","392","441742","0.0-609.0-2.0","jzn59dl4","","","","","","","","","","","","","","","","","","","","","","","","","","","","","","","","","",""
"","html-keyboard-response","393","442502","0.0-610.0","jzn59dl4","1920","1080","","","","","","","","","","","null","+","Fixation - short","","null","","","","","","","","","","","","","","","","",""
"","html-keyboard-response","394","444507","0.0-611.0","jzn59dl4","","","","","","","","","","","","","2004","If rif press LEFT | If ecl press RIGHT","inducer instructions",""," ","","9","","","","","","","","","","","","","","",""
"","html-keyboard-response","395","445267","0.0-612.0","jzn59dl4","1920","1080","","","","","","","","","","","null","+","Fixation - short","","null","","","","","","","","","","","","","","","","",""
"","html-keyboard-response","396","445914","0.0-613.0","jzn59dl4","","","","","","","","","","","","","646","ecl","diagnostic trial","","j","","9","0","9","false","false","false","both pre & post","RIGHT","RIGHT","j","1","true","","","",""
"","html-keyboard-response","397","446676","0.0-616.0","jzn59dl4","1920","1080","","","","","","","","","","","null","+","Fixation - short","","null","","","","","","","","","","","","","","","","",""
"","html-keyboard-response","398","447128","0.0-617.0","jzn59dl4","","","","","","","","","","","","","451","rif","diagnostic trial","","f","","9","1","9","false","false","true","both pre & post","LEFT","LEFT","f","1","true","","","",""
"","html-keyboard-response","399","447881","0.0-620.0","jzn59dl4","1920","1080","","","","","","","","","","","null","+","Fixation - short","","null","","","","","","","","","","","","","","","","",""
"","html-keyboard-response","400","448292","0.0-621.0","jzn59dl4","","","","","","","","","","","","","411","ecl","diagnostic trial","","j","","9","2","9","false","false","true","both pre & post","RIGHT","LEFT","f","0","false","","","",""
"","call-function","401","448293","0.0-623.0-0.0","jzn59dl4","","","","","","","","","","","","","","","","","","","","","","","","","","","","","","","","","",""
"","html-keyboard-response","402","448609","0.0-623.0-1.0","jzn59dl4","1920","1080","","","","","","","","","","","null","Wrong","Feedback","","null","","","","","","","","","","","","","","","","",""
"","call-function","403","448609","0.0-623.0-2.0","jzn59dl4","","","","","","","","","","","","","","","","","","","","","","","","","","","","","","","","","",""
"","html-keyboard-response","404","449365","0.0-624.0","jzn59dl4","1920","1080","","","","","","","","","","","null","+","Fixation - short","","null","","","","","","","","","","","","","","","","",""
"","html-keyboard-response","405","450038","0.0-625.0","jzn59dl4","","","","","","","","","","","","","673","ecl","diagnostic trial","","f","","9","3","9","false","false","true","both pre & post","RIGHT","LEFT","f","1","false","","","",""
"","html-keyboard-response","406","450803","0.0-628.0","jzn59dl4","1920","1080","","","","","","","","","","","null","+","Fixation - short","","null","","","","","","","","","","","","","","","","",""
"","html-keyboard-response","407","451241","0.0-629.0","jzn59dl4","","","","","","","","","","","","","437","ecl","diagnostic trial","","f","","9","4","9","false","false","true","both pre & post","RIGHT","LEFT","f","1","false","","","",""
"","html-keyboard-response","408","451997","0.0-632.0","jzn59dl4","1920","1080","","","","","","","","","","","null","+","Fixation - short","","null","","","","","","","","","","","","","","","","",""
"","html-keyboard-response","409","452367","0.0-633.0","jzn59dl4","","","","","","","","","","","","","369","ecl","diagnostic trial","","f","","9","5","9","false","false","true","both pre & post","RIGHT","LEFT","f","1","false","","","",""
"","html-keyboard-response","410","453129","0.0-636.0","jzn59dl4","1920","1080","","","","","","","","","","","null","+","Fixation - short","","null","","","","","","","","","","","","","","","","",""
"","html-keyboard-response","411","453524","0.0-637.0","jzn59dl4","","","","","","","","","","","","","394","ecl","diagnostic trial","","f","","9","6","9","false","false","true","both pre & post","RIGHT","LEFT","f","1","false","","","",""
"","html-keyboard-response","412","454288","0.0-640.0","jzn59dl4","1920","1080","","","","","","","","","","","null","+","Fixation - short","","null","","","","","","","","","","","","","","","","",""
"","html-keyboard-response","413","454679","0.0-641.0","jzn59dl4","","","","","","","","","","","","","391","ecl","diagnostic trial","","f","","9","7","9","false","false","false","both pre & post","RIGHT","RIGHT","j","0","true","","","",""
"","call-function","414","454680","0.0-643.0-0.0","jzn59dl4","","","","","","","","","","","","","","","","","","","","","","","","","","","","","","","","","",""
"","html-keyboard-response","415","454985","0.0-643.0-1.0","jzn59dl4","1920","1080","","","","","","","","","","","null","Wrong","Feedback","","null","","","","","","","","","","","","","","","","",""
"","call-function","416","454985","0.0-643.0-2.0","jzn59dl4","","","","","","","","","","","","","","","","","","","","","","","","","","","","","","","","","",""
"","html-keyboard-response","417","455740","0.0-644.0","jzn59dl4","1920","1080","","","","","","","","","","","null","+","Fixation - short","","null","","","","","","","","","","","","","","","","",""
"","html-keyboard-response","418","456861","0.0-645.0","jzn59dl4","","","","","","","","","","","","","1120","ecl","diagnostic trial","","f","","9","8","9","false","false","true","both pre & post","RIGHT","LEFT","f","1","false","","","",""
"","html-keyboard-response","419","457618","0.0-648.0","jzn59dl4","1920","1080","","","","","","","","","","","null","+","Fixation - short","","null","","","","","","","","","","","","","","","","",""
"","canvas-keyboard-response","420","458883","0.0-649.0","jzn59dl4","","","","","","","","","","","","","null","Cue","Cue","","null","","9","8","","","false","","","","","","","","","","",""
"","html-keyboard-response","421","459641","0.0-650.0","jzn59dl4","1920","1080","","","","","","","","","","","null","+","Fixation - short","","null","","","","","","","","","","","","","","","","",""
"","html-keyboard-response","422","460359","0.0-651.0","jzn59dl4","","","","","","","","","","","","","718","rif","diagnostic trial","","f","","9","9","9","true","false","true","both pre & post","LEFT","LEFT","f","1","true","","","",""
"","html-keyboard-response","423","461125","0.0-654.0","jzn59dl4","1920","1080","","","","","","","","","","","null","+","Fixation - short","","null","","","","","","","","","","","","","","","","",""
"","html-keyboard-response","424","461774","0.0-655.0","jzn59dl4","","","","","","","","","","","","","648","ecl","diagnostic trial","","f","","9","10","9","true","false","true","both pre & post","RIGHT","LEFT","f","1","false","","","",""
"","html-keyboard-response","425","462529","0.0-658.0","jzn59dl4","1920","1080","","","","","","","","","","","null","+","Fixation - short","","null","","","","","","","","","","","","","","","","",""
"","html-keyboard-response","426","463055","0.0-659.0","jzn59dl4","","","","","","","","","","","","","525","rif","inducer trial","","j","","9","","","","true","","","","","f","0","","false","LEFT","",""
"","call-function","427","463056","0.0-661.0-0.0","jzn59dl4","","","","","","","","","","","","","","","","","","","","","","","","","","","","","","","","","",""
"","html-keyboard-response","428","463364","0.0-661.0-1.0","jzn59dl4","1920","1080","","","","","","","","","","","null","Wrong","Feedback","","null","","","","","","","","","","","","","","","","",""
"","call-function","429","463365","0.0-661.0-2.0","jzn59dl4","","","","","","","","","","","","","","","","","","","","","","","","","","","","","","","","","",""
"","html-keyboard-response","430","464125","0.0-662.0","jzn59dl4","1920","1080","","","","","","","","","","","null","+","Fixation - short","","null","","","","","","","","","","","","","","","","",""
"","call-function","431","464125","0.0-663.0","jzn59dl4","","","","","","","","","","","","","","","","","","","","","","","","","","","","","","","","","",""
"","survey","432","540713","0.0-664.0","jzn59dl4","","","","","","","","","","","","","76516","feedback","Feedback","","{""strategy_feedback"":""The word at the top means to the left, and the bottom means right. "",""open_feedback"":""It was a fun challenge. ""}","","","","","","","","","","","","","","","","[]","[{""event"":""fullscreenenter"",""trial"":3,""time"":60126}]"
